consent_response.keys,consent_response.rt,key_resp_2.keys,key_resp_2.rt,user_resp.keys,user_resp.rt,trials.thisRepN,trials.thisTrialN,trials.thisN,trials.thisIndex,trials.ran,image_1_text,image_2_text,database,image,number,age,worker_ID,date,expName,psychopyVersion,OS,frameRate,hitId,workerId,assignmentId,a,tp_a,b,tp_b,c,tp_c,catch_same_resp.keys,catch_same_resp.rt,image_1_text_catch_same,image_2_text_catch_same,image_catch_same,catch_different_resp.keys,catch_different_resp.rt,image_1_text_catch_different,image_2_text_catch_different,image_catch_different
space,7.503925,space,13.859595,1,6.256375,0,0,0,80,1,an empty space on floating shelf between books,stack of vertical books sitting on shelf,wolfe2,065_R_cd,6,26,A1K8QNLYYYX21W,2021-01-26_06h18.39.342,MetaAwareness,2020.1.2,Win32,60,3E22YV8GG296BRL0MDL95YQE7XQNPX,A1K8QNLYYYX21W,3TEM0PF1Q60XNIOX60XIIB80B2BD0Z,10ET8,10ET8,3TEM0PF1Q60XNIOX60XIIB80B2BD0Z,3TEM0PF1Q60XNIOX60XIIB80B2BD0Z,271388,271388,,,,,,,,,,
,,,,2,8.981265,0,1,1,16,1,"a large, open bathroom overlooking a beautiful yard. the bathroom includes a soaking tub that has no drain","a large, open bathroom overlooking a beautiful yard. the bathroom includes a soaking tub with a drain at the top",wolfe2,012_R_tubaccesory,4,26,A1K8QNLYYYX21W,2021-01-26_06h18.39.342,MetaAwareness,2020.1.2,Win32,60,3E22YV8GG296BRL0MDL95YQE7XQNPX,A1K8QNLYYYX21W,3TEM0PF1Q60XNIOX60XIIB80B2BD0Z,10ET8,10ET8,3TEM0PF1Q60XNIOX60XIIB80B2BD0Z,3TEM0PF1Q60XNIOX60XIIB80B2BD0Z,271388,271388,,,,,,,,,,
,,,,5,5.62329,0,2,2,150,1,a living room with glass windows and a plant,a living room with glass windows,wolfe2,117_L_plant_sized,1,26,A1K8QNLYYYX21W,2021-01-26_06h18.39.342,MetaAwareness,2020.1.2,Win32,60,3E22YV8GG296BRL0MDL95YQE7XQNPX,A1K8QNLYYYX21W,3TEM0PF1Q60XNIOX60XIIB80B2BD0Z,10ET8,10ET8,3TEM0PF1Q60XNIOX60XIIB80B2BD0Z,3TEM0PF1Q60XNIOX60XIIB80B2BD0Z,271388,271388,,,,,,,,,,
,,,,3,24.150565,0,3,3,92,1,living room with a large mirror on the middle of the wall with only one lamp mount on the wall on the right hand side,living room with a large mirror o the middle of the wall with two lamps mount on the wall on the both sides,wolfe2,070_L_lamp,4,26,A1K8QNLYYYX21W,2021-01-26_06h18.39.342,MetaAwareness,2020.1.2,Win32,60,3E22YV8GG296BRL0MDL95YQE7XQNPX,A1K8QNLYYYX21W,3TEM0PF1Q60XNIOX60XIIB80B2BD0Z,10ET8,10ET8,3TEM0PF1Q60XNIOX60XIIB80B2BD0Z,3TEM0PF1Q60XNIOX60XIIB80B2BD0Z,271388,271388,,,,,,,,,,
,,,,4,10.48119,0,4,4,29,1,a landscaped outdoor porch with a blurred door to the right side,a landscaped outdoor porch with a plant in front of a blurred door to the right side,wolfe2,018_R_plant,1,26,A1K8QNLYYYX21W,2021-01-26_06h18.39.342,MetaAwareness,2020.1.2,Win32,60,3E22YV8GG296BRL0MDL95YQE7XQNPX,A1K8QNLYYYX21W,3TEM0PF1Q60XNIOX60XIIB80B2BD0Z,10ET8,10ET8,3TEM0PF1Q60XNIOX60XIIB80B2BD0Z,3TEM0PF1Q60XNIOX60XIIB80B2BD0Z,271388,271388,,,,,,,,,,
,,,,4,10.15955,0,5,5,24,1,a living room with a large walk out sliding glass door.,"a living room with a large glass sliding door, and an architectural piece.",wolfe2,016_L_art,2,26,A1K8QNLYYYX21W,2021-01-26_06h18.39.342,MetaAwareness,2020.1.2,Win32,60,3E22YV8GG296BRL0MDL95YQE7XQNPX,A1K8QNLYYYX21W,3TEM0PF1Q60XNIOX60XIIB80B2BD0Z,10ET8,10ET8,3TEM0PF1Q60XNIOX60XIIB80B2BD0Z,3TEM0PF1Q60XNIOX60XIIB80B2BD0Z,271388,271388,,,,,,,,,,
,,,,5,7.218075,0,6,6,36,1,an outdoor bathroom area that has seating and a private patio,"an outdoor bathroom area that has seating and a private patio, complete with extra towels",wolfe2,024_L_towels,1,26,A1K8QNLYYYX21W,2021-01-26_06h18.39.342,MetaAwareness,2020.1.2,Win32,60,3E22YV8GG296BRL0MDL95YQE7XQNPX,A1K8QNLYYYX21W,3TEM0PF1Q60XNIOX60XIIB80B2BD0Z,10ET8,10ET8,3TEM0PF1Q60XNIOX60XIIB80B2BD0Z,3TEM0PF1Q60XNIOX60XIIB80B2BD0Z,271388,271388,,,,,,,,,,
,,,,2,5.011855,0,7,7,39,1,a shower stall without a soap dish,a shower stall with a soap dish,wolfe2,027_R_soapdish,3,26,A1K8QNLYYYX21W,2021-01-26_06h18.39.342,MetaAwareness,2020.1.2,Win32,60,3E22YV8GG296BRL0MDL95YQE7XQNPX,A1K8QNLYYYX21W,3TEM0PF1Q60XNIOX60XIIB80B2BD0Z,10ET8,10ET8,3TEM0PF1Q60XNIOX60XIIB80B2BD0Z,3TEM0PF1Q60XNIOX60XIIB80B2BD0Z,271388,271388,,,,,,,,,,
,,,,5,6.2811,0,8,8,19,1,room with two tables and 3 lights on the wall,room with two tables and 4 lights on the wall,wolfe2,014_L_lamp,4,26,A1K8QNLYYYX21W,2021-01-26_06h18.39.342,MetaAwareness,2020.1.2,Win32,60,3E22YV8GG296BRL0MDL95YQE7XQNPX,A1K8QNLYYYX21W,3TEM0PF1Q60XNIOX60XIIB80B2BD0Z,10ET8,10ET8,3TEM0PF1Q60XNIOX60XIIB80B2BD0Z,3TEM0PF1Q60XNIOX60XIIB80B2BD0Z,271388,271388,,,,,,,,,,
,,,,5,7.583365,0,9,9,4,1,it is a picture of a dinning table with 8 seats and 7 sets of cups and napkins.,it is a picture of a dinning table with 8 seats and 8 sets of cups and napkins.,wolfe2,002_R_napkin,4,26,A1K8QNLYYYX21W,2021-01-26_06h18.39.342,MetaAwareness,2020.1.2,Win32,60,3E22YV8GG296BRL0MDL95YQE7XQNPX,A1K8QNLYYYX21W,3TEM0PF1Q60XNIOX60XIIB80B2BD0Z,10ET8,10ET8,3TEM0PF1Q60XNIOX60XIIB80B2BD0Z,3TEM0PF1Q60XNIOX60XIIB80B2BD0Z,271388,271388,,,,,,,,,,
,,,,4,20.24226,0,10,10,70,1,a library room with three trash cans.,a library room with four trash cans.,wolfe2,057_L_bin,4,26,A1K8QNLYYYX21W,2021-01-26_06h18.39.342,MetaAwareness,2020.1.2,Win32,60,3E22YV8GG296BRL0MDL95YQE7XQNPX,A1K8QNLYYYX21W,3TEM0PF1Q60XNIOX60XIIB80B2BD0Z,10ET8,10ET8,3TEM0PF1Q60XNIOX60XIIB80B2BD0Z,3TEM0PF1Q60XNIOX60XIIB80B2BD0Z,271388,271388,,,,,,,,,,
,,,,5,8.172865,0,11,11,122,1,"a darky, fancy restroom with deep red walls and gold trim mirrors","a dark, fancy restroom with deep red walls, gold trim mirrors and a white frame",wolfe2,091_R_airfreshener,2,26,A1K8QNLYYYX21W,2021-01-26_06h18.39.342,MetaAwareness,2020.1.2,Win32,60,3E22YV8GG296BRL0MDL95YQE7XQNPX,A1K8QNLYYYX21W,3TEM0PF1Q60XNIOX60XIIB80B2BD0Z,10ET8,10ET8,3TEM0PF1Q60XNIOX60XIIB80B2BD0Z,3TEM0PF1Q60XNIOX60XIIB80B2BD0Z,271388,271388,,,,,,,,,,
,,,,1,4.240895,0,12,12,97,1,darke bedroom funiture missing a drawer pull,dark bedroom furniture,wolfe2,072_R_handle,1,26,A1K8QNLYYYX21W,2021-01-26_06h18.39.342,MetaAwareness,2020.1.2,Win32,60,3E22YV8GG296BRL0MDL95YQE7XQNPX,A1K8QNLYYYX21W,3TEM0PF1Q60XNIOX60XIIB80B2BD0Z,10ET8,10ET8,3TEM0PF1Q60XNIOX60XIIB80B2BD0Z,3TEM0PF1Q60XNIOX60XIIB80B2BD0Z,271388,271388,,,,,,,,,,
,,,,1,3.736195,0,13,13,57,1,a luxurious bathroom with two sinks; only one has a faucet,"a luxurious bathroom with two sinks and two faucets,",wolfe2,042_R_tap,4,26,A1K8QNLYYYX21W,2021-01-26_06h18.39.342,MetaAwareness,2020.1.2,Win32,60,3E22YV8GG296BRL0MDL95YQE7XQNPX,A1K8QNLYYYX21W,3TEM0PF1Q60XNIOX60XIIB80B2BD0Z,10ET8,10ET8,3TEM0PF1Q60XNIOX60XIIB80B2BD0Z,3TEM0PF1Q60XNIOX60XIIB80B2BD0Z,271388,271388,,,,,,,,,,
,,,,2,7.12558,0,14,14,66,1,"a room that looks like a study with lots of books on shelves, brown coloring, and an empty fireplace","a room that looks like a study with lots of books on shelves, brown coloring, and a fireplace with wood in it",wolfe2,054_R_firewood,5,26,A1K8QNLYYYX21W,2021-01-26_06h18.39.342,MetaAwareness,2020.1.2,Win32,60,3E22YV8GG296BRL0MDL95YQE7XQNPX,A1K8QNLYYYX21W,3TEM0PF1Q60XNIOX60XIIB80B2BD0Z,10ET8,10ET8,3TEM0PF1Q60XNIOX60XIIB80B2BD0Z,3TEM0PF1Q60XNIOX60XIIB80B2BD0Z,271388,271388,,,,,,,,,,
,,,,3,5.21965,0,15,15,118,1,a barber shop with a picture of woman with red hair between station that has a picture of a woman with black hair on the other side of station,a barber shop with a picture of a woman with black hair between the stations,wolfe2,089_R_poster,3,26,A1K8QNLYYYX21W,2021-01-26_06h18.39.342,MetaAwareness,2020.1.2,Win32,60,3E22YV8GG296BRL0MDL95YQE7XQNPX,A1K8QNLYYYX21W,3TEM0PF1Q60XNIOX60XIIB80B2BD0Z,10ET8,10ET8,3TEM0PF1Q60XNIOX60XIIB80B2BD0Z,3TEM0PF1Q60XNIOX60XIIB80B2BD0Z,271388,271388,,,,,,,,,,
,,,,1,2.466795,0,16,16,138,1,two coat-suit are in the hanker,there is only one coat-suit in the hanker,wolfe2,107_R_shirts,1,26,A1K8QNLYYYX21W,2021-01-26_06h18.39.342,MetaAwareness,2020.1.2,Win32,60,3E22YV8GG296BRL0MDL95YQE7XQNPX,A1K8QNLYYYX21W,3TEM0PF1Q60XNIOX60XIIB80B2BD0Z,10ET8,10ET8,3TEM0PF1Q60XNIOX60XIIB80B2BD0Z,3TEM0PF1Q60XNIOX60XIIB80B2BD0Z,271388,271388,,,,,,,,,,
,,,,1,5.0965,0,17,17,127,1,"a feminine bedroom with a large mirror, and a picture frame sitting on top of the vanity table",a feminine bedroom with a large mirror and nothing sitting on top of the vanity table,wolfe2,096_R_painting,1,26,A1K8QNLYYYX21W,2021-01-26_06h18.39.342,MetaAwareness,2020.1.2,Win32,60,3E22YV8GG296BRL0MDL95YQE7XQNPX,A1K8QNLYYYX21W,3TEM0PF1Q60XNIOX60XIIB80B2BD0Z,10ET8,10ET8,3TEM0PF1Q60XNIOX60XIIB80B2BD0Z,3TEM0PF1Q60XNIOX60XIIB80B2BD0Z,271388,271388,,,,,,,,,,
,,,,6,4.68665,0,18,18,63,1,"a very large bathroom that has a double sinks, a shower, a tub, and a wooden closet with a bottom drawer.","a very large bathroom that has double sinks, a shower, a tub, and a wooden closet with two bottom drawers.",wolfe2,053_R_handle,2,26,A1K8QNLYYYX21W,2021-01-26_06h18.39.342,MetaAwareness,2020.1.2,Win32,60,3E22YV8GG296BRL0MDL95YQE7XQNPX,A1K8QNLYYYX21W,3TEM0PF1Q60XNIOX60XIIB80B2BD0Z,10ET8,10ET8,3TEM0PF1Q60XNIOX60XIIB80B2BD0Z,3TEM0PF1Q60XNIOX60XIIB80B2BD0Z,271388,271388,,,,,,,,,,
,,,,2,118.279935,0,19,19,50,1,a bedroom with one wall covered in blue-flowered brown wallpaper with a narrow wood table topped with two vases over a radiator,a bedroom with one wall covered in blue-flowered brown wallpaper with a narrow wood table topped with two vases and a fruit bowl over a radiator,wolfe2,035_L_fruit,4,26,A1K8QNLYYYX21W,2021-01-26_06h18.39.342,MetaAwareness,2020.1.2,Win32,60,3E22YV8GG296BRL0MDL95YQE7XQNPX,A1K8QNLYYYX21W,3TEM0PF1Q60XNIOX60XIIB80B2BD0Z,10ET8,10ET8,3TEM0PF1Q60XNIOX60XIIB80B2BD0Z,3TEM0PF1Q60XNIOX60XIIB80B2BD0Z,271388,271388,,,,,,,,,,
,,,,4,7.588745,0,20,20,79,1,an elegant dining room with cherry wood table and matching chairs with a buffet on the wall with glass dishes.,an elegant dining room with cherry wood table and matching chairs with a buffet on the wall with a black lantern,wolfe2,064_R_bottles,6,26,A1K8QNLYYYX21W,2021-01-26_06h18.39.342,MetaAwareness,2020.1.2,Win32,60,3E22YV8GG296BRL0MDL95YQE7XQNPX,A1K8QNLYYYX21W,3TEM0PF1Q60XNIOX60XIIB80B2BD0Z,10ET8,10ET8,3TEM0PF1Q60XNIOX60XIIB80B2BD0Z,3TEM0PF1Q60XNIOX60XIIB80B2BD0Z,271388,271388,,,,,,,,,,
,,,,1,9.388925,0,21,21,168,1,the studying room is good  thereis a flower to simle and good enegry to the room,there is no flower in my room are a planted,wolfe2,128_L_pot,1,26,A1K8QNLYYYX21W,2021-01-26_06h18.39.342,MetaAwareness,2020.1.2,Win32,60,3E22YV8GG296BRL0MDL95YQE7XQNPX,A1K8QNLYYYX21W,3TEM0PF1Q60XNIOX60XIIB80B2BD0Z,10ET8,10ET8,3TEM0PF1Q60XNIOX60XIIB80B2BD0Z,3TEM0PF1Q60XNIOX60XIIB80B2BD0Z,271388,271388,,,,,,,,,,
,,,,2,9.302385,0,22,22,74,1,a messy kids bedroom with nothing over top of the mirror,a messy kids bedroom with a large toy car sitting over top of the mirror,wolfe2,059_L_car,4,26,A1K8QNLYYYX21W,2021-01-26_06h18.39.342,MetaAwareness,2020.1.2,Win32,60,3E22YV8GG296BRL0MDL95YQE7XQNPX,A1K8QNLYYYX21W,3TEM0PF1Q60XNIOX60XIIB80B2BD0Z,10ET8,10ET8,3TEM0PF1Q60XNIOX60XIIB80B2BD0Z,3TEM0PF1Q60XNIOX60XIIB80B2BD0Z,271388,271388,,,,,,,,,,
,,,,4,5.91294,0,23,23,167,1,"a large sitting room in a house with two sofas, a dog, and two lights on the wall","a large sitting room in a  house with two sofas, a dog in a dog bed, and one light on the wall",wolfe2,127_R_light,3,26,A1K8QNLYYYX21W,2021-01-26_06h18.39.342,MetaAwareness,2020.1.2,Win32,60,3E22YV8GG296BRL0MDL95YQE7XQNPX,A1K8QNLYYYX21W,3TEM0PF1Q60XNIOX60XIIB80B2BD0Z,10ET8,10ET8,3TEM0PF1Q60XNIOX60XIIB80B2BD0Z,3TEM0PF1Q60XNIOX60XIIB80B2BD0Z,271388,271388,,,,,,,,,,
,,,,5,4.546805,0,24,24,22,1,a living room that has two lights in the ceiling.,a living room that has three lights in the ceiling.,wolfe2,015_R_ceilinglight,3,26,A1K8QNLYYYX21W,2021-01-26_06h18.39.342,MetaAwareness,2020.1.2,Win32,60,3E22YV8GG296BRL0MDL95YQE7XQNPX,A1K8QNLYYYX21W,3TEM0PF1Q60XNIOX60XIIB80B2BD0Z,10ET8,10ET8,3TEM0PF1Q60XNIOX60XIIB80B2BD0Z,3TEM0PF1Q60XNIOX60XIIB80B2BD0Z,271388,271388,,,,,,,,,,
,,,,2,4.328495,0,25,25,107,1,a modern looking kitchen with a black shelf in its background,a modern looking kitchen with a plant on the counter,wolfe2,080_R_plant,3,26,A1K8QNLYYYX21W,2021-01-26_06h18.39.342,MetaAwareness,2020.1.2,Win32,60,3E22YV8GG296BRL0MDL95YQE7XQNPX,A1K8QNLYYYX21W,3TEM0PF1Q60XNIOX60XIIB80B2BD0Z,10ET8,10ET8,3TEM0PF1Q60XNIOX60XIIB80B2BD0Z,3TEM0PF1Q60XNIOX60XIIB80B2BD0Z,271388,271388,,,,,,,,,,
,,,,5,5.55543,0,26,26,9,1,a living room area with a painting and tv on a wall,a living room area with a painting and tv on one wall and a mirror art on the other wall,wolfe2,005_R_mirror,1,26,A1K8QNLYYYX21W,2021-01-26_06h18.39.342,MetaAwareness,2020.1.2,Win32,60,3E22YV8GG296BRL0MDL95YQE7XQNPX,A1K8QNLYYYX21W,3TEM0PF1Q60XNIOX60XIIB80B2BD0Z,10ET8,10ET8,3TEM0PF1Q60XNIOX60XIIB80B2BD0Z,3TEM0PF1Q60XNIOX60XIIB80B2BD0Z,271388,271388,,,,,,,,,,
,,,,2,8.05234,0,27,27,111,1,a grand style master bedroom with a white nightstand to the right,a granddstyle master bedroom with a object on the nightstand to the right,wolfe2,082_R_bowl,3,26,A1K8QNLYYYX21W,2021-01-26_06h18.39.342,MetaAwareness,2020.1.2,Win32,60,3E22YV8GG296BRL0MDL95YQE7XQNPX,A1K8QNLYYYX21W,3TEM0PF1Q60XNIOX60XIIB80B2BD0Z,10ET8,10ET8,3TEM0PF1Q60XNIOX60XIIB80B2BD0Z,3TEM0PF1Q60XNIOX60XIIB80B2BD0Z,271388,271388,,,,,,,,,,
,,,,1,2.46245,0,28,28,81,1,thebox shows the black wall and white sofa,the box contains white jar in it,wolfe2,066_L_vase,2,26,A1K8QNLYYYX21W,2021-01-26_06h18.39.342,MetaAwareness,2020.1.2,Win32,60,3E22YV8GG296BRL0MDL95YQE7XQNPX,A1K8QNLYYYX21W,3TEM0PF1Q60XNIOX60XIIB80B2BD0Z,10ET8,10ET8,3TEM0PF1Q60XNIOX60XIIB80B2BD0Z,3TEM0PF1Q60XNIOX60XIIB80B2BD0Z,271388,271388,,,,,,,,,,
,,,,1,2.5948,0,29,29,102,1,wholesome loving family kitchen,well to do family kitchen,wolfe2,075_R_light,7,26,A1K8QNLYYYX21W,2021-01-26_06h18.39.342,MetaAwareness,2020.1.2,Win32,60,3E22YV8GG296BRL0MDL95YQE7XQNPX,A1K8QNLYYYX21W,3TEM0PF1Q60XNIOX60XIIB80B2BD0Z,10ET8,10ET8,3TEM0PF1Q60XNIOX60XIIB80B2BD0Z,3TEM0PF1Q60XNIOX60XIIB80B2BD0Z,271388,271388,,,,,,,,,,
,,,,,,,,,,,,,,,,26,A1K8QNLYYYX21W,2021-01-26_06h18.39.342,MetaAwareness,2020.1.2,Win32,60,3E22YV8GG296BRL0MDL95YQE7XQNPX,A1K8QNLYYYX21W,3TEM0PF1Q60XNIOX60XIIB80B2BD0Z,10ET8,10ET8,3TEM0PF1Q60XNIOX60XIIB80B2BD0Z,3TEM0PF1Q60XNIOX60XIIB80B2BD0Z,271388,271388,6,6.161445,someone laying underneath a blue beach umbrella on a crowded beach,someone laying underneath a blue beach umbrella on a crowded beach,same,1,2.598405,members of a marching band crossing a track that all have feather plumes at the front of their hats,a cluttered and rustic looking cafe with 10 hanging lights,different
