consent_response.keys,consent_response.rt,key_resp_2.keys,key_resp_2.rt,user_resp.keys,user_resp.rt,trials.thisRepN,trials.thisTrialN,trials.thisN,trials.thisIndex,trials.ran,image_1_text,image_2_text,database,image,number,age,worker_ID,date,expName,psychopyVersion,OS,frameRate,hitId,workerId,assignmentId,a,tp_a,b,tp_b,c,tp_c,catch_same_resp.keys,catch_same_resp.rt,image_1_text_catch_same,image_2_text_catch_same,image_catch_same,catch_different_resp.keys,catch_different_resp.rt,image_1_text_catch_different,image_2_text_catch_different,image_catch_different
space,6.149525,space,1.447855,5,5.12552,0,0,0,111,1,a grand style master bedroom with a white nightstand to the right,a granddstyle master bedroom with a object on the nightstand to the right,wolfe2,082_R_bowl,3,30,A2XFO0X6RCS98M,2021-01-26_09h33.40.644,MetaAwareness,2020.1.2,Win32,60,3E22YV8GG296BRL0MDL95YQE7XQNPX,A2XFO0X6RCS98M,32RIADZIST7KOVPGMRF9PDKDTH1S4O,IAR28,IAR28,32RIADZIST7KOVPGMRF9PDKDTH1S4O,32RIADZIST7KOVPGMRF9PDKDTH1S4O,271388,271388,,,,,,,,,,
,,,,3,5.75035,0,1,1,92,1,living room with a large mirror on the middle of the wall with only one lamp mount on the wall on the right hand side,living room with a large mirror o the middle of the wall with two lamps mount on the wall on the both sides,wolfe2,070_L_lamp,4,30,A2XFO0X6RCS98M,2021-01-26_09h33.40.644,MetaAwareness,2020.1.2,Win32,60,3E22YV8GG296BRL0MDL95YQE7XQNPX,A2XFO0X6RCS98M,32RIADZIST7KOVPGMRF9PDKDTH1S4O,IAR28,IAR28,32RIADZIST7KOVPGMRF9PDKDTH1S4O,32RIADZIST7KOVPGMRF9PDKDTH1S4O,271388,271388,,,,,,,,,,
,,,,1,4.000525,0,2,2,45,1,there is an empty spot of the shelf between two items in this modern living room,there is a vase between two objects in this modern living room,wolfe2,033_R_vase,2,30,A2XFO0X6RCS98M,2021-01-26_09h33.40.644,MetaAwareness,2020.1.2,Win32,60,3E22YV8GG296BRL0MDL95YQE7XQNPX,A2XFO0X6RCS98M,32RIADZIST7KOVPGMRF9PDKDTH1S4O,IAR28,IAR28,32RIADZIST7KOVPGMRF9PDKDTH1S4O,32RIADZIST7KOVPGMRF9PDKDTH1S4O,271388,271388,,,,,,,,,,
,,,,4,5.138635,0,3,3,17,1,a modern office with glass walls and a hanging light,a modern office with glass walls and two hanging lights,wolfe2,013_R_lamp,4,30,A2XFO0X6RCS98M,2021-01-26_09h33.40.644,MetaAwareness,2020.1.2,Win32,60,3E22YV8GG296BRL0MDL95YQE7XQNPX,A2XFO0X6RCS98M,32RIADZIST7KOVPGMRF9PDKDTH1S4O,IAR28,IAR28,32RIADZIST7KOVPGMRF9PDKDTH1S4O,32RIADZIST7KOVPGMRF9PDKDTH1S4O,271388,271388,,,,,,,,,,
,,,,4,5.47794,0,4,4,117,1,an empty salon containing two portraits of women,an empty salon containing one portrait of a woman,wolfe2,089_R_poster,1,30,A2XFO0X6RCS98M,2021-01-26_09h33.40.644,MetaAwareness,2020.1.2,Win32,60,3E22YV8GG296BRL0MDL95YQE7XQNPX,A2XFO0X6RCS98M,32RIADZIST7KOVPGMRF9PDKDTH1S4O,IAR28,IAR28,32RIADZIST7KOVPGMRF9PDKDTH1S4O,32RIADZIST7KOVPGMRF9PDKDTH1S4O,271388,271388,,,,,,,,,,
,,,,3,3.70026,0,5,5,150,1,a living room with glass windows and a plant,a living room with glass windows,wolfe2,117_L_plant_sized,1,30,A2XFO0X6RCS98M,2021-01-26_09h33.40.644,MetaAwareness,2020.1.2,Win32,60,3E22YV8GG296BRL0MDL95YQE7XQNPX,A2XFO0X6RCS98M,32RIADZIST7KOVPGMRF9PDKDTH1S4O,IAR28,IAR28,32RIADZIST7KOVPGMRF9PDKDTH1S4O,32RIADZIST7KOVPGMRF9PDKDTH1S4O,271388,271388,,,,,,,,,,
,,,,2,5.237515,0,6,6,107,1,a modern looking kitchen with a black shelf in its background,a modern looking kitchen with a plant on the counter,wolfe2,080_R_plant,3,30,A2XFO0X6RCS98M,2021-01-26_09h33.40.644,MetaAwareness,2020.1.2,Win32,60,3E22YV8GG296BRL0MDL95YQE7XQNPX,A2XFO0X6RCS98M,32RIADZIST7KOVPGMRF9PDKDTH1S4O,IAR28,IAR28,32RIADZIST7KOVPGMRF9PDKDTH1S4O,32RIADZIST7KOVPGMRF9PDKDTH1S4O,271388,271388,,,,,,,,,,
,,,,1,7.451555,0,7,7,126,1,a modern looking girls office with something on the counter   num_enter,a modern looking girls room with nothing on the counter,wolfe2,096_L_painting,3,30,A2XFO0X6RCS98M,2021-01-26_09h33.40.644,MetaAwareness,2020.1.2,Win32,60,3E22YV8GG296BRL0MDL95YQE7XQNPX,A2XFO0X6RCS98M,32RIADZIST7KOVPGMRF9PDKDTH1S4O,IAR28,IAR28,32RIADZIST7KOVPGMRF9PDKDTH1S4O,32RIADZIST7KOVPGMRF9PDKDTH1S4O,271388,271388,,,,,,,,,,
,,,,3,8.32028,0,8,8,79,1,an elegant dining room with cherry wood table and matching chairs with a buffet on the wall with glass dishes.,an elegant dining room with cherry wood table and matching chairs with a buffet on the wall with a black lantern,wolfe2,064_R_bottles,6,30,A2XFO0X6RCS98M,2021-01-26_09h33.40.644,MetaAwareness,2020.1.2,Win32,60,3E22YV8GG296BRL0MDL95YQE7XQNPX,A2XFO0X6RCS98M,32RIADZIST7KOVPGMRF9PDKDTH1S4O,IAR28,IAR28,32RIADZIST7KOVPGMRF9PDKDTH1S4O,32RIADZIST7KOVPGMRF9PDKDTH1S4O,271388,271388,,,,,,,,,,
,,,,3,7.505885,0,9,9,151,1,"a spacious living room with hardwood floors, a leather coach and a plant on a table that is next to glass doors and windows looking out to the patio.","a spacious living room with hardwood floors, a leather couch and a table that is next to glass doors and windows looking out to the patio.",wolfe2,117_R_plant_sized,3,30,A2XFO0X6RCS98M,2021-01-26_09h33.40.644,MetaAwareness,2020.1.2,Win32,60,3E22YV8GG296BRL0MDL95YQE7XQNPX,A2XFO0X6RCS98M,32RIADZIST7KOVPGMRF9PDKDTH1S4O,IAR28,IAR28,32RIADZIST7KOVPGMRF9PDKDTH1S4O,32RIADZIST7KOVPGMRF9PDKDTH1S4O,271388,271388,,,,,,,,,,
,,,,4,4.102565,0,10,10,102,1,wholesome loving family kitchen,well to do family kitchen,wolfe2,075_R_light,7,30,A2XFO0X6RCS98M,2021-01-26_09h33.40.644,MetaAwareness,2020.1.2,Win32,60,3E22YV8GG296BRL0MDL95YQE7XQNPX,A2XFO0X6RCS98M,32RIADZIST7KOVPGMRF9PDKDTH1S4O,IAR28,IAR28,32RIADZIST7KOVPGMRF9PDKDTH1S4O,32RIADZIST7KOVPGMRF9PDKDTH1S4O,271388,271388,,,,,,,,,,
,,,,2,5.783895,0,11,11,8,1,a white and red living area with a blank wall above the futon,a white and red living area with a mirror above the futon,wolfe2,005_L_mirror,6,30,A2XFO0X6RCS98M,2021-01-26_09h33.40.644,MetaAwareness,2020.1.2,Win32,60,3E22YV8GG296BRL0MDL95YQE7XQNPX,A2XFO0X6RCS98M,32RIADZIST7KOVPGMRF9PDKDTH1S4O,IAR28,IAR28,32RIADZIST7KOVPGMRF9PDKDTH1S4O,32RIADZIST7KOVPGMRF9PDKDTH1S4O,271388,271388,,,,,,,,,,
,,,,3,3.366895,0,12,12,33,1,a white and chrome kitchen with two hanging lights,a white and chrome kitchen with three hanging lights,wolfe2,022_L_lamp,3,30,A2XFO0X6RCS98M,2021-01-26_09h33.40.644,MetaAwareness,2020.1.2,Win32,60,3E22YV8GG296BRL0MDL95YQE7XQNPX,A2XFO0X6RCS98M,32RIADZIST7KOVPGMRF9PDKDTH1S4O,IAR28,IAR28,32RIADZIST7KOVPGMRF9PDKDTH1S4O,32RIADZIST7KOVPGMRF9PDKDTH1S4O,271388,271388,,,,,,,,,,
,,,,2,4.61699,0,13,13,74,1,a messy kids bedroom with nothing over top of the mirror,a messy kids bedroom with a large toy car sitting over top of the mirror,wolfe2,059_L_car,4,30,A2XFO0X6RCS98M,2021-01-26_09h33.40.644,MetaAwareness,2020.1.2,Win32,60,3E22YV8GG296BRL0MDL95YQE7XQNPX,A2XFO0X6RCS98M,32RIADZIST7KOVPGMRF9PDKDTH1S4O,IAR28,IAR28,32RIADZIST7KOVPGMRF9PDKDTH1S4O,32RIADZIST7KOVPGMRF9PDKDTH1S4O,271388,271388,,,,,,,,,,
,,,,5,8.07597,0,14,14,89,1,a classic style living room with fireplace and a shelf to the righta,a classic style living room with fireplace and a object on the shelf to the right,wolfe2,069_R_things,2,30,A2XFO0X6RCS98M,2021-01-26_09h33.40.644,MetaAwareness,2020.1.2,Win32,60,3E22YV8GG296BRL0MDL95YQE7XQNPX,A2XFO0X6RCS98M,32RIADZIST7KOVPGMRF9PDKDTH1S4O,IAR28,IAR28,32RIADZIST7KOVPGMRF9PDKDTH1S4O,32RIADZIST7KOVPGMRF9PDKDTH1S4O,271388,271388,,,,,,,,,,
,,,,2,3.50513,0,15,15,113,1,the room is so beatiful and there is no lamp,the room is so beatiful and there is very beatiful lamp is there,wolfe2,084_L_light,1,30,A2XFO0X6RCS98M,2021-01-26_09h33.40.644,MetaAwareness,2020.1.2,Win32,60,3E22YV8GG296BRL0MDL95YQE7XQNPX,A2XFO0X6RCS98M,32RIADZIST7KOVPGMRF9PDKDTH1S4O,IAR28,IAR28,32RIADZIST7KOVPGMRF9PDKDTH1S4O,32RIADZIST7KOVPGMRF9PDKDTH1S4O,271388,271388,,,,,,,,,,
,,,,2,3.16262,0,16,16,59,1,a living room with a nothing inside a case on the wall,a living room with an object inside a cabinet,wolfe2,043_R_clock,6,30,A2XFO0X6RCS98M,2021-01-26_09h33.40.644,MetaAwareness,2020.1.2,Win32,60,3E22YV8GG296BRL0MDL95YQE7XQNPX,A2XFO0X6RCS98M,32RIADZIST7KOVPGMRF9PDKDTH1S4O,IAR28,IAR28,32RIADZIST7KOVPGMRF9PDKDTH1S4O,32RIADZIST7KOVPGMRF9PDKDTH1S4O,271388,271388,,,,,,,,,,
,,,,3,4.076605,0,17,17,153,1,large living room with high ceilings and two picture frames along the back wall.,large living room with high ceilings and one picture frame along the back wall.,wolfe2,119_L_painting,1,30,A2XFO0X6RCS98M,2021-01-26_09h33.40.644,MetaAwareness,2020.1.2,Win32,60,3E22YV8GG296BRL0MDL95YQE7XQNPX,A2XFO0X6RCS98M,32RIADZIST7KOVPGMRF9PDKDTH1S4O,IAR28,IAR28,32RIADZIST7KOVPGMRF9PDKDTH1S4O,32RIADZIST7KOVPGMRF9PDKDTH1S4O,271388,271388,,,,,,,,,,
,,,,3,2.84922,0,18,18,70,1,a library room with three trash cans.,a library room with four trash cans.,wolfe2,057_L_bin,4,30,A2XFO0X6RCS98M,2021-01-26_09h33.40.644,MetaAwareness,2020.1.2,Win32,60,3E22YV8GG296BRL0MDL95YQE7XQNPX,A2XFO0X6RCS98M,32RIADZIST7KOVPGMRF9PDKDTH1S4O,IAR28,IAR28,32RIADZIST7KOVPGMRF9PDKDTH1S4O,32RIADZIST7KOVPGMRF9PDKDTH1S4O,271388,271388,,,,,,,,,,
,,,,3,5.804575,0,19,19,164,1,a large black and white living room with a small stool next to the windows,a large black and white living room without a small stool next to the windows,wolfe2,125_L_sofa,5,30,A2XFO0X6RCS98M,2021-01-26_09h33.40.644,MetaAwareness,2020.1.2,Win32,60,3E22YV8GG296BRL0MDL95YQE7XQNPX,A2XFO0X6RCS98M,32RIADZIST7KOVPGMRF9PDKDTH1S4O,IAR28,IAR28,32RIADZIST7KOVPGMRF9PDKDTH1S4O,32RIADZIST7KOVPGMRF9PDKDTH1S4O,271388,271388,,,,,,,,,,
,,,,4,8.70846,0,20,20,100,1,bright and inviting living area. has a coffe table with plants on it.,bright and inviting living area. has a coffee table with plants and a book on it,wolfe2,074_R_book,3,30,A2XFO0X6RCS98M,2021-01-26_09h33.40.644,MetaAwareness,2020.1.2,Win32,60,3E22YV8GG296BRL0MDL95YQE7XQNPX,A2XFO0X6RCS98M,32RIADZIST7KOVPGMRF9PDKDTH1S4O,IAR28,IAR28,32RIADZIST7KOVPGMRF9PDKDTH1S4O,32RIADZIST7KOVPGMRF9PDKDTH1S4O,271388,271388,,,,,,,,,,
,,,,3,2.22254,0,21,21,38,1,a bathroom with one shelf on the wall,a bathroom with two shelves on the wall,wolfe2,026_R_rack,3,30,A2XFO0X6RCS98M,2021-01-26_09h33.40.644,MetaAwareness,2020.1.2,Win32,60,3E22YV8GG296BRL0MDL95YQE7XQNPX,A2XFO0X6RCS98M,32RIADZIST7KOVPGMRF9PDKDTH1S4O,IAR28,IAR28,32RIADZIST7KOVPGMRF9PDKDTH1S4O,32RIADZIST7KOVPGMRF9PDKDTH1S4O,271388,271388,,,,,,,,,,
,,,,3,4.26832,0,22,22,49,1,a bedroom  with a bed and a table without fruits on top of the table,a bedroom with a bed and a table with fruits placed on top of the table,wolfe2,035_L_fruit,2,30,A2XFO0X6RCS98M,2021-01-26_09h33.40.644,MetaAwareness,2020.1.2,Win32,60,3E22YV8GG296BRL0MDL95YQE7XQNPX,A2XFO0X6RCS98M,32RIADZIST7KOVPGMRF9PDKDTH1S4O,IAR28,IAR28,32RIADZIST7KOVPGMRF9PDKDTH1S4O,32RIADZIST7KOVPGMRF9PDKDTH1S4O,271388,271388,,,,,,,,,,
,,,,2,2.450345,0,23,23,145,1,a lounge area with a plant,a lounge area that doesn't have a plant,wolfe2,112_R_basket,1,30,A2XFO0X6RCS98M,2021-01-26_09h33.40.644,MetaAwareness,2020.1.2,Win32,60,3E22YV8GG296BRL0MDL95YQE7XQNPX,A2XFO0X6RCS98M,32RIADZIST7KOVPGMRF9PDKDTH1S4O,IAR28,IAR28,32RIADZIST7KOVPGMRF9PDKDTH1S4O,32RIADZIST7KOVPGMRF9PDKDTH1S4O,271388,271388,,,,,,,,,,
,,,,3,2.74153,0,24,24,163,1,a spacious conversation room with large windows and a white vase sitting on the floor,a spacious conversation room with large windows and no vase sitting on the floor,wolfe2,124_R_vase,4,30,A2XFO0X6RCS98M,2021-01-26_09h33.40.644,MetaAwareness,2020.1.2,Win32,60,3E22YV8GG296BRL0MDL95YQE7XQNPX,A2XFO0X6RCS98M,32RIADZIST7KOVPGMRF9PDKDTH1S4O,IAR28,IAR28,32RIADZIST7KOVPGMRF9PDKDTH1S4O,32RIADZIST7KOVPGMRF9PDKDTH1S4O,271388,271388,,,,,,,,,,
,,,,3,6.60681,0,25,25,147,1,"a large seating area in a wood paneled room, with a tree behind a plant in the far corner.","a large seating area in a wood paneled room, with a plant in the far corner.",wolfe2,113_L_plant,1,30,A2XFO0X6RCS98M,2021-01-26_09h33.40.644,MetaAwareness,2020.1.2,Win32,60,3E22YV8GG296BRL0MDL95YQE7XQNPX,A2XFO0X6RCS98M,32RIADZIST7KOVPGMRF9PDKDTH1S4O,IAR28,IAR28,32RIADZIST7KOVPGMRF9PDKDTH1S4O,32RIADZIST7KOVPGMRF9PDKDTH1S4O,271388,271388,,,,,,,,,,
,,,,3,3.32511,0,26,26,121,1,a maroon bedroom with hardwood floors and a tiny lamp on the floor,a maroon bedroom with hardwood floors,wolfe2,090_R_lamp,3,30,A2XFO0X6RCS98M,2021-01-26_09h33.40.644,MetaAwareness,2020.1.2,Win32,60,3E22YV8GG296BRL0MDL95YQE7XQNPX,A2XFO0X6RCS98M,32RIADZIST7KOVPGMRF9PDKDTH1S4O,IAR28,IAR28,32RIADZIST7KOVPGMRF9PDKDTH1S4O,32RIADZIST7KOVPGMRF9PDKDTH1S4O,271388,271388,,,,,,,,,,
,,,,3,5.48814,0,27,27,68,1,"an upscale, modern living room with a gray couch","an upscale, modern living room with a gray couch, a blanket a magazine lays on the couch",wolfe2,056_R_comforter,6,30,A2XFO0X6RCS98M,2021-01-26_09h33.40.644,MetaAwareness,2020.1.2,Win32,60,3E22YV8GG296BRL0MDL95YQE7XQNPX,A2XFO0X6RCS98M,32RIADZIST7KOVPGMRF9PDKDTH1S4O,IAR28,IAR28,32RIADZIST7KOVPGMRF9PDKDTH1S4O,32RIADZIST7KOVPGMRF9PDKDTH1S4O,271388,271388,,,,,,,,,,
,,,,3,3.35517,0,28,28,139,1,a fitting room with four items on the right side of the clothes rack.,a fitting room with  three items on the right side of the clothes rack.,wolfe2,107_R_shirts,4,30,A2XFO0X6RCS98M,2021-01-26_09h33.40.644,MetaAwareness,2020.1.2,Win32,60,3E22YV8GG296BRL0MDL95YQE7XQNPX,A2XFO0X6RCS98M,32RIADZIST7KOVPGMRF9PDKDTH1S4O,IAR28,IAR28,32RIADZIST7KOVPGMRF9PDKDTH1S4O,32RIADZIST7KOVPGMRF9PDKDTH1S4O,271388,271388,,,,,,,,,,
,,,,2,4.635775,0,29,29,71,1,a colorful bedroom with pink and purple fluffy objects around,a colorful bedroom with a purple diary on the fluffy tablet,wolfe2,058_L_clutch,2,30,A2XFO0X6RCS98M,2021-01-26_09h33.40.644,MetaAwareness,2020.1.2,Win32,60,3E22YV8GG296BRL0MDL95YQE7XQNPX,A2XFO0X6RCS98M,32RIADZIST7KOVPGMRF9PDKDTH1S4O,IAR28,IAR28,32RIADZIST7KOVPGMRF9PDKDTH1S4O,32RIADZIST7KOVPGMRF9PDKDTH1S4O,271388,271388,,,,,,,,,,
,,,,,,,,,,,,,,,,30,A2XFO0X6RCS98M,2021-01-26_09h33.40.644,MetaAwareness,2020.1.2,Win32,60,3E22YV8GG296BRL0MDL95YQE7XQNPX,A2XFO0X6RCS98M,32RIADZIST7KOVPGMRF9PDKDTH1S4O,IAR28,IAR28,32RIADZIST7KOVPGMRF9PDKDTH1S4O,32RIADZIST7KOVPGMRF9PDKDTH1S4O,271388,271388,6,9.033715,someone laying underneath a blue beach umbrella on a crowded beach,someone laying underneath a blue beach umbrella on a crowded beach,same,1,5.99008,members of a marching band crossing a track that all have feather plumes at the front of their hats,a cluttered and rustic looking cafe with 10 hanging lights,different
