consent_response.keys,consent_response.rt,key_resp_2.keys,key_resp_2.rt,user_resp.keys,user_resp.rt,trials.thisRepN,trials.thisTrialN,trials.thisN,trials.thisIndex,trials.ran,image_1_text,image_2_text,database,image,number,age,worker_ID,date,expName,psychopyVersion,OS,frameRate,hitId,workerId,assignmentId,a,tp_a,b,tp_b,c,tp_c,catch_same_resp.keys,catch_same_resp.rt,image_1_text_catch_same,image_2_text_catch_same,image_catch_same,catch_different_resp.keys,catch_different_resp.rt,image_1_text_catch_different,image_2_text_catch_different,image_catch_different
space,23.018125,space,501.959635,5,18.41303,0,0,0,87,1,a modern marble bathroom with two levers between the tub and the mirror.,a modern marble bathroom with three levers between the tub and the mirror.,wolfe2,068_L_faucet,1,43,A3O0ZQMDKOKAMR,2021-01-26_08h31.25.266,MetaAwareness,2020.1.2,Win32,60,33TGB4G0LQK9FDSB50H28AI9YEKTXR,A3O0ZQMDKOKAMR,382M9COHEIIIVAED02MMD0ESR3BEUR,H9288,H9288,382M9COHEIIIVAED02MMD0ESR3BEUR,382M9COHEIIIVAED02MMD0ESR3BEUR,271388,271388,,,,,,,,,,
,,,,5,5.14158,0,1,1,17,1,a modern office with glass walls and a hanging light,a modern office with glass walls and two hanging lights,wolfe2,013_R_lamp,4,43,A3O0ZQMDKOKAMR,2021-01-26_08h31.25.266,MetaAwareness,2020.1.2,Win32,60,33TGB4G0LQK9FDSB50H28AI9YEKTXR,A3O0ZQMDKOKAMR,382M9COHEIIIVAED02MMD0ESR3BEUR,H9288,H9288,382M9COHEIIIVAED02MMD0ESR3BEUR,382M9COHEIIIVAED02MMD0ESR3BEUR,271388,271388,,,,,,,,,,
,,,,3,8.606475,0,2,2,166,1,a huge living room with an ocean viw,a huge livingroom without nothing near the window,wolfe2,125_R_sofa,4,43,A3O0ZQMDKOKAMR,2021-01-26_08h31.25.266,MetaAwareness,2020.1.2,Win32,60,33TGB4G0LQK9FDSB50H28AI9YEKTXR,A3O0ZQMDKOKAMR,382M9COHEIIIVAED02MMD0ESR3BEUR,H9288,H9288,382M9COHEIIIVAED02MMD0ESR3BEUR,382M9COHEIIIVAED02MMD0ESR3BEUR,271388,271388,,,,,,,,,,
,,,,4,18.65492,0,3,3,109,1,home office with nothing on floor next to shelves.,home office with white object on floor next to shelves.,wolfe2,081_L_football,4,43,A3O0ZQMDKOKAMR,2021-01-26_08h31.25.266,MetaAwareness,2020.1.2,Win32,60,33TGB4G0LQK9FDSB50H28AI9YEKTXR,A3O0ZQMDKOKAMR,382M9COHEIIIVAED02MMD0ESR3BEUR,H9288,H9288,382M9COHEIIIVAED02MMD0ESR3BEUR,382M9COHEIIIVAED02MMD0ESR3BEUR,271388,271388,,,,,,,,,,
,,,,3,4.918885,0,4,4,101,1,a kitchen with three ceiling lights,a kitchen with,wolfe2,075_R_light,3,43,A3O0ZQMDKOKAMR,2021-01-26_08h31.25.266,MetaAwareness,2020.1.2,Win32,60,33TGB4G0LQK9FDSB50H28AI9YEKTXR,A3O0ZQMDKOKAMR,382M9COHEIIIVAED02MMD0ESR3BEUR,H9288,H9288,382M9COHEIIIVAED02MMD0ESR3BEUR,382M9COHEIIIVAED02MMD0ESR3BEUR,271388,271388,,,,,,,,,,
,,,,4,7.4624,0,5,5,18,1,a clear wall,a lamp on a wall,wolfe2,014_L_lamp,3,43,A3O0ZQMDKOKAMR,2021-01-26_08h31.25.266,MetaAwareness,2020.1.2,Win32,60,33TGB4G0LQK9FDSB50H28AI9YEKTXR,A3O0ZQMDKOKAMR,382M9COHEIIIVAED02MMD0ESR3BEUR,H9288,H9288,382M9COHEIIIVAED02MMD0ESR3BEUR,382M9COHEIIIVAED02MMD0ESR3BEUR,271388,271388,,,,,,,,,,
,,,,2,25.539785,0,6,6,165,1,a little stool appears in the right corner,no one has appear in the right corner yellow space,wolfe2,125_R_sofa,1,43,A3O0ZQMDKOKAMR,2021-01-26_08h31.25.266,MetaAwareness,2020.1.2,Win32,60,33TGB4G0LQK9FDSB50H28AI9YEKTXR,A3O0ZQMDKOKAMR,382M9COHEIIIVAED02MMD0ESR3BEUR,H9288,H9288,382M9COHEIIIVAED02MMD0ESR3BEUR,382M9COHEIIIVAED02MMD0ESR3BEUR,271388,271388,,,,,,,,,,
,,,,5,9.43792,0,7,7,153,1,large living room with high ceilings and two picture frames along the back wall.,large living room with high ceilings and one picture frame along the back wall.,wolfe2,119_L_painting,1,43,A3O0ZQMDKOKAMR,2021-01-26_08h31.25.266,MetaAwareness,2020.1.2,Win32,60,33TGB4G0LQK9FDSB50H28AI9YEKTXR,A3O0ZQMDKOKAMR,382M9COHEIIIVAED02MMD0ESR3BEUR,H9288,H9288,382M9COHEIIIVAED02MMD0ESR3BEUR,382M9COHEIIIVAED02MMD0ESR3BEUR,271388,271388,,,,,,,,,,
,,,,5,5.120425,0,8,8,124,1,a living room with a white couch and a large mirror,"a living room with a white couch, a large mirror and candles on the floor",wolfe2,092_R_candles,5,43,A3O0ZQMDKOKAMR,2021-01-26_08h31.25.266,MetaAwareness,2020.1.2,Win32,60,33TGB4G0LQK9FDSB50H28AI9YEKTXR,A3O0ZQMDKOKAMR,382M9COHEIIIVAED02MMD0ESR3BEUR,H9288,H9288,382M9COHEIIIVAED02MMD0ESR3BEUR,382M9COHEIIIVAED02MMD0ESR3BEUR,271388,271388,,,,,,,,,,
,,,,5,8.965005,0,9,9,13,1,a bedroom with 2 candlesticks on a nightstand where only one has a candle,a bedroom with 2 candlesticks on a nightstand where both have a candle,wolfe2,010_L_candle,3,43,A3O0ZQMDKOKAMR,2021-01-26_08h31.25.266,MetaAwareness,2020.1.2,Win32,60,33TGB4G0LQK9FDSB50H28AI9YEKTXR,A3O0ZQMDKOKAMR,382M9COHEIIIVAED02MMD0ESR3BEUR,H9288,H9288,382M9COHEIIIVAED02MMD0ESR3BEUR,382M9COHEIIIVAED02MMD0ESR3BEUR,271388,271388,,,,,,,,,,
,,,,4,19.758605,0,10,10,92,1,living room with a large mirror on the middle of the wall with only one lamp mount on the wall on the right hand side,living room with a large mirror o the middle of the wall with two lamps mount on the wall on the both sides,wolfe2,070_L_lamp,4,43,A3O0ZQMDKOKAMR,2021-01-26_08h31.25.266,MetaAwareness,2020.1.2,Win32,60,33TGB4G0LQK9FDSB50H28AI9YEKTXR,A3O0ZQMDKOKAMR,382M9COHEIIIVAED02MMD0ESR3BEUR,H9288,H9288,382M9COHEIIIVAED02MMD0ESR3BEUR,382M9COHEIIIVAED02MMD0ESR3BEUR,271388,271388,,,,,,,,,,
,,,,4,30.25793,0,11,11,98,1,spacious and bright kitchen with several windows and a flower vase on the countertop.,spacious and bright kitchen with several windows and a multiple flower vases on the countertop.,wolfe2,073_R_coffeemug,3,43,A3O0ZQMDKOKAMR,2021-01-26_08h31.25.266,MetaAwareness,2020.1.2,Win32,60,33TGB4G0LQK9FDSB50H28AI9YEKTXR,A3O0ZQMDKOKAMR,382M9COHEIIIVAED02MMD0ESR3BEUR,H9288,H9288,382M9COHEIIIVAED02MMD0ESR3BEUR,382M9COHEIIIVAED02MMD0ESR3BEUR,271388,271388,,,,,,,,,,
,,,,5,10.71063,0,12,12,75,1,"a bright living room with white walls, a beige sofa and chairs, and tan decorative pillows on the sofa","a bright living room with white walls, a biege sofa and chairs, with tan and dark decorative pillows on the sofa.",wolfe2,060_R_pillow,1,43,A3O0ZQMDKOKAMR,2021-01-26_08h31.25.266,MetaAwareness,2020.1.2,Win32,60,33TGB4G0LQK9FDSB50H28AI9YEKTXR,A3O0ZQMDKOKAMR,382M9COHEIIIVAED02MMD0ESR3BEUR,H9288,H9288,382M9COHEIIIVAED02MMD0ESR3BEUR,382M9COHEIIIVAED02MMD0ESR3BEUR,271388,271388,,,,,,,,,,
,,,,5,5.80633,0,13,13,50,1,a bedroom with one wall covered in blue-flowered brown wallpaper with a narrow wood table topped with two vases over a radiator,a bedroom with one wall covered in blue-flowered brown wallpaper with a narrow wood table topped with two vases and a fruit bowl over a radiator,wolfe2,035_L_fruit,4,43,A3O0ZQMDKOKAMR,2021-01-26_08h31.25.266,MetaAwareness,2020.1.2,Win32,60,33TGB4G0LQK9FDSB50H28AI9YEKTXR,A3O0ZQMDKOKAMR,382M9COHEIIIVAED02MMD0ESR3BEUR,H9288,H9288,382M9COHEIIIVAED02MMD0ESR3BEUR,382M9COHEIIIVAED02MMD0ESR3BEUR,271388,271388,,,,,,,,,,
,,,,5,8.07153,0,14,14,55,1,"a nice, clean dining room with two paintings hanging above a china cabinet.","a nice, clean dining room with three paintings hanging above a china cabinet.",wolfe2,040_R_painting,4,43,A3O0ZQMDKOKAMR,2021-01-26_08h31.25.266,MetaAwareness,2020.1.2,Win32,60,33TGB4G0LQK9FDSB50H28AI9YEKTXR,A3O0ZQMDKOKAMR,382M9COHEIIIVAED02MMD0ESR3BEUR,H9288,H9288,382M9COHEIIIVAED02MMD0ESR3BEUR,382M9COHEIIIVAED02MMD0ESR3BEUR,271388,271388,,,,,,,,,,
,,,,4,6.03325,0,15,15,7,1,"a hotel room with a large window and a dark red lounge chair, with no tower in the distant background outside","a hotel room with a large window and a dark red lounge chair, with a tower in the  distant background outside",wolfe2,004_R_electricalgrid,3,43,A3O0ZQMDKOKAMR,2021-01-26_08h31.25.266,MetaAwareness,2020.1.2,Win32,60,33TGB4G0LQK9FDSB50H28AI9YEKTXR,A3O0ZQMDKOKAMR,382M9COHEIIIVAED02MMD0ESR3BEUR,H9288,H9288,382M9COHEIIIVAED02MMD0ESR3BEUR,382M9COHEIIIVAED02MMD0ESR3BEUR,271388,271388,,,,,,,,,,
,,,,5,6.40685,0,16,16,28,1,a modern looking house with no logs in their fireplace,a modern looking house with a log in their fireplace,wolfe2,017_R_wood,1,43,A3O0ZQMDKOKAMR,2021-01-26_08h31.25.266,MetaAwareness,2020.1.2,Win32,60,33TGB4G0LQK9FDSB50H28AI9YEKTXR,A3O0ZQMDKOKAMR,382M9COHEIIIVAED02MMD0ESR3BEUR,H9288,H9288,382M9COHEIIIVAED02MMD0ESR3BEUR,382M9COHEIIIVAED02MMD0ESR3BEUR,271388,271388,,,,,,,,,,
,,,,5,5.421335,0,17,17,54,1,in a dinning room there is a wall with two prints on the wall,in a dinning room there is a wall with three prints on the wall,wolfe2,040_L_painting,2,43,A3O0ZQMDKOKAMR,2021-01-26_08h31.25.266,MetaAwareness,2020.1.2,Win32,60,33TGB4G0LQK9FDSB50H28AI9YEKTXR,A3O0ZQMDKOKAMR,382M9COHEIIIVAED02MMD0ESR3BEUR,H9288,H9288,382M9COHEIIIVAED02MMD0ESR3BEUR,382M9COHEIIIVAED02MMD0ESR3BEUR,271388,271388,,,,,,,,,,
,,,,4,10.242495,0,18,18,168,1,the studying room is good  thereis a flower to simle and good enegry to the room,there is no flower in my room are a planted,wolfe2,128_L_pot,1,43,A3O0ZQMDKOKAMR,2021-01-26_08h31.25.266,MetaAwareness,2020.1.2,Win32,60,33TGB4G0LQK9FDSB50H28AI9YEKTXR,A3O0ZQMDKOKAMR,382M9COHEIIIVAED02MMD0ESR3BEUR,H9288,H9288,382M9COHEIIIVAED02MMD0ESR3BEUR,382M9COHEIIIVAED02MMD0ESR3BEUR,271388,271388,,,,,,,,,,
,,,,4,5.554245,0,19,19,145,1,a lounge area with a plant,a lounge area that doesn't have a plant,wolfe2,112_R_basket,1,43,A3O0ZQMDKOKAMR,2021-01-26_08h31.25.266,MetaAwareness,2020.1.2,Win32,60,33TGB4G0LQK9FDSB50H28AI9YEKTXR,A3O0ZQMDKOKAMR,382M9COHEIIIVAED02MMD0ESR3BEUR,H9288,H9288,382M9COHEIIIVAED02MMD0ESR3BEUR,382M9COHEIIIVAED02MMD0ESR3BEUR,271388,271388,,,,,,,,,,
,,,,4,4.966735,0,20,20,84,1,an office room with little to no decor in it with an empty dresser on the side,an office room with little decor in it with a dresser on the side with a picture on it,wolfe2,067_L_painting,5,43,A3O0ZQMDKOKAMR,2021-01-26_08h31.25.266,MetaAwareness,2020.1.2,Win32,60,33TGB4G0LQK9FDSB50H28AI9YEKTXR,A3O0ZQMDKOKAMR,382M9COHEIIIVAED02MMD0ESR3BEUR,H9288,H9288,382M9COHEIIIVAED02MMD0ESR3BEUR,382M9COHEIIIVAED02MMD0ESR3BEUR,271388,271388,,,,,,,,,,
,,,,5,5.61543,0,21,21,45,1,there is an empty spot of the shelf between two items in this modern living room,there is a vase between two objects in this modern living room,wolfe2,033_R_vase,2,43,A3O0ZQMDKOKAMR,2021-01-26_08h31.25.266,MetaAwareness,2020.1.2,Win32,60,33TGB4G0LQK9FDSB50H28AI9YEKTXR,A3O0ZQMDKOKAMR,382M9COHEIIIVAED02MMD0ESR3BEUR,H9288,H9288,382M9COHEIIIVAED02MMD0ESR3BEUR,382M9COHEIIIVAED02MMD0ESR3BEUR,271388,271388,,,,,,,,,,
,,,,5,3.264135,0,22,22,22,1,a living room that has two lights in the ceiling.,a living room that has three lights in the ceiling.,wolfe2,015_R_ceilinglight,3,43,A3O0ZQMDKOKAMR,2021-01-26_08h31.25.266,MetaAwareness,2020.1.2,Win32,60,33TGB4G0LQK9FDSB50H28AI9YEKTXR,A3O0ZQMDKOKAMR,382M9COHEIIIVAED02MMD0ESR3BEUR,H9288,H9288,382M9COHEIIIVAED02MMD0ESR3BEUR,382M9COHEIIIVAED02MMD0ESR3BEUR,271388,271388,,,,,,,,,,
,,,,5,5.8548,0,23,23,144,1,a florida room with a small vase on the floor,a florida room with some plantsnum_enter,wolfe2,111_L_pot,3,43,A3O0ZQMDKOKAMR,2021-01-26_08h31.25.266,MetaAwareness,2020.1.2,Win32,60,33TGB4G0LQK9FDSB50H28AI9YEKTXR,A3O0ZQMDKOKAMR,382M9COHEIIIVAED02MMD0ESR3BEUR,H9288,H9288,382M9COHEIIIVAED02MMD0ESR3BEUR,382M9COHEIIIVAED02MMD0ESR3BEUR,271388,271388,,,,,,,,,,
,,,,4,7.49248,0,24,24,140,1,a walk in closet with a white dresser that has a blue figurine and other various objects on top of it.,a walk in closet with a white dresser that has various objects on it,wolfe2,108_L_boa,3,43,A3O0ZQMDKOKAMR,2021-01-26_08h31.25.266,MetaAwareness,2020.1.2,Win32,60,33TGB4G0LQK9FDSB50H28AI9YEKTXR,A3O0ZQMDKOKAMR,382M9COHEIIIVAED02MMD0ESR3BEUR,H9288,H9288,382M9COHEIIIVAED02MMD0ESR3BEUR,382M9COHEIIIVAED02MMD0ESR3BEUR,271388,271388,,,,,,,,,,
,,,,4,11.292865,0,25,25,107,1,a modern looking kitchen with a black shelf in its background,a modern looking kitchen with a plant on the counter,wolfe2,080_R_plant,3,43,A3O0ZQMDKOKAMR,2021-01-26_08h31.25.266,MetaAwareness,2020.1.2,Win32,60,33TGB4G0LQK9FDSB50H28AI9YEKTXR,A3O0ZQMDKOKAMR,382M9COHEIIIVAED02MMD0ESR3BEUR,H9288,H9288,382M9COHEIIIVAED02MMD0ESR3BEUR,382M9COHEIIIVAED02MMD0ESR3BEUR,271388,271388,,,,,,,,,,
,,,,5,20.306545,0,26,26,152,1,a room with furniture looking out at table on patio and shoes next to plant,a room with furniture looking out at table on patio with a plant,wolfe2,118_L_shoes,1,43,A3O0ZQMDKOKAMR,2021-01-26_08h31.25.266,MetaAwareness,2020.1.2,Win32,60,33TGB4G0LQK9FDSB50H28AI9YEKTXR,A3O0ZQMDKOKAMR,382M9COHEIIIVAED02MMD0ESR3BEUR,H9288,H9288,382M9COHEIIIVAED02MMD0ESR3BEUR,382M9COHEIIIVAED02MMD0ESR3BEUR,271388,271388,,,,,,,,,,
,,,,3,9.36689,0,27,27,58,1,large living or entretainment room with multiple screens and sofas,living room with a decoration on the left shelf close to the television,wolfe2,043_L_clock,2,43,A3O0ZQMDKOKAMR,2021-01-26_08h31.25.266,MetaAwareness,2020.1.2,Win32,60,33TGB4G0LQK9FDSB50H28AI9YEKTXR,A3O0ZQMDKOKAMR,382M9COHEIIIVAED02MMD0ESR3BEUR,H9288,H9288,382M9COHEIIIVAED02MMD0ESR3BEUR,382M9COHEIIIVAED02MMD0ESR3BEUR,271388,271388,,,,,,,,,,
,,,,4,4.066775,0,28,28,65,1,"a living room containing a sofa, book shelves, and an empty fireplace","a living room containing a sofa, book shelves, and logs in a fireplace",wolfe2,054_R_firewood,3,43,A3O0ZQMDKOKAMR,2021-01-26_08h31.25.266,MetaAwareness,2020.1.2,Win32,60,33TGB4G0LQK9FDSB50H28AI9YEKTXR,A3O0ZQMDKOKAMR,382M9COHEIIIVAED02MMD0ESR3BEUR,H9288,H9288,382M9COHEIIIVAED02MMD0ESR3BEUR,382M9COHEIIIVAED02MMD0ESR3BEUR,271388,271388,,,,,,,,,,
,,,,4,5.422665,0,29,29,121,1,a maroon bedroom with hardwood floors and a tiny lamp on the floor,a maroon bedroom with hardwood floors,wolfe2,090_R_lamp,3,43,A3O0ZQMDKOKAMR,2021-01-26_08h31.25.266,MetaAwareness,2020.1.2,Win32,60,33TGB4G0LQK9FDSB50H28AI9YEKTXR,A3O0ZQMDKOKAMR,382M9COHEIIIVAED02MMD0ESR3BEUR,H9288,H9288,382M9COHEIIIVAED02MMD0ESR3BEUR,382M9COHEIIIVAED02MMD0ESR3BEUR,271388,271388,,,,,,,,,,
,,,,,,,,,,,,,,,,43,A3O0ZQMDKOKAMR,2021-01-26_08h31.25.266,MetaAwareness,2020.1.2,Win32,60,33TGB4G0LQK9FDSB50H28AI9YEKTXR,A3O0ZQMDKOKAMR,382M9COHEIIIVAED02MMD0ESR3BEUR,H9288,H9288,382M9COHEIIIVAED02MMD0ESR3BEUR,382M9COHEIIIVAED02MMD0ESR3BEUR,271388,271388,6,9.571205,someone laying underneath a blue beach umbrella on a crowded beach,someone laying underneath a blue beach umbrella on a crowded beach,same,1,5.442495,members of a marching band crossing a track that all have feather plumes at the front of their hats,a cluttered and rustic looking cafe with 10 hanging lights,different
