consent_response.keys,consent_response.rt,key_resp_2.keys,key_resp_2.rt,user_resp.keys,user_resp.rt,trials.thisRepN,trials.thisTrialN,trials.thisN,trials.thisIndex,trials.ran,image_1_text,image_2_text,database,image,number,age,worker_ID,date,expName,psychopyVersion,OS,frameRate,hitId,workerId,assignmentId,a,tp_a,b,tp_b,c,tp_c,catch_same_resp.keys,catch_same_resp.rt,image_1_text_catch_same,image_2_text_catch_same,image_catch_same,catch_different_resp.keys,catch_different_resp.rt,image_1_text_catch_different,image_2_text_catch_different,image_catch_different
space,2.832785,space,18.226915,4,13.188075,0,0,0,20,1,a modern living room with a futon and large window overlooking a city,"a modern living room with a futon, a large window overlooking a city, and a mirror on the wall",wolfe2,005_R_mirror,4,36,A3POD149IG0DIW,2021-01-26_00h14.17.618,MetaAwareness,2020.1.2,Win32,60,3TZ0XG8CBVN0GXIPZM0T1B04DYC892,A3POD149IG0DIW,37WLF8U1WQT0FZGM06ZMVPDH8CEK60,1FW75,1FW75,37WLF8U1WQT0FZGM06ZMVPDH8CEK60,37WLF8U1WQT0FZGM06ZMVPDH8CEK60,271255,271255,,,,,,,,,,
,,,,5,10.132815,0,1,1,298,1,"a bright, cheery living room with four candles in front of a large mirror","a bright, cheery living room with three candles in front of a large mirror",wolfe2,095_R_candle,4,36,A3POD149IG0DIW,2021-01-26_00h14.17.618,MetaAwareness,2020.1.2,Win32,60,3TZ0XG8CBVN0GXIPZM0T1B04DYC892,A3POD149IG0DIW,37WLF8U1WQT0FZGM06ZMVPDH8CEK60,1FW75,1FW75,37WLF8U1WQT0FZGM06ZMVPDH8CEK60,37WLF8U1WQT0FZGM06ZMVPDH8CEK60,271255,271255,,,,,,,,,,
,,,,3,10.44434,0,2,2,260,1,there is nothing appear in the under the stool set chamber,a small piece appear under the chamber,wolfe2,081_R_football,1,36,A3POD149IG0DIW,2021-01-26_00h14.17.618,MetaAwareness,2020.1.2,Win32,60,3TZ0XG8CBVN0GXIPZM0T1B04DYC892,A3POD149IG0DIW,37WLF8U1WQT0FZGM06ZMVPDH8CEK60,1FW75,1FW75,37WLF8U1WQT0FZGM06ZMVPDH8CEK60,37WLF8U1WQT0FZGM06ZMVPDH8CEK60,271255,271255,,,,,,,,,,
,,,,5,11.478565,0,3,3,45,1,a meeting area with a wooden table with a hanging light above it,a meeting area with a wooden table with two hanging lights above it,wolfe2,013_R_lamp,6,36,A3POD149IG0DIW,2021-01-26_00h14.17.618,MetaAwareness,2020.1.2,Win32,60,3TZ0XG8CBVN0GXIPZM0T1B04DYC892,A3POD149IG0DIW,37WLF8U1WQT0FZGM06ZMVPDH8CEK60,1FW75,1FW75,37WLF8U1WQT0FZGM06ZMVPDH8CEK60,37WLF8U1WQT0FZGM06ZMVPDH8CEK60,271255,271255,,,,,,,,,,
,,,,4,11.180925,0,4,4,220,1,a room with two sofas. everything looks very white. there is a single light fixture on the wall beside the mirror over the fireplace.,a room with two sofas. everything is very white. there are two light fixtures beside the mirror over the fireplace.,wolfe2,070_L_lamp,1,36,A3POD149IG0DIW,2021-01-26_00h14.17.618,MetaAwareness,2020.1.2,Win32,60,3TZ0XG8CBVN0GXIPZM0T1B04DYC892,A3POD149IG0DIW,37WLF8U1WQT0FZGM06ZMVPDH8CEK60,1FW75,1FW75,37WLF8U1WQT0FZGM06ZMVPDH8CEK60,37WLF8U1WQT0FZGM06ZMVPDH8CEK60,271255,271255,,,,,,,,,,
,,,,4,12.52489,0,5,5,266,1,the room is so beatiful and there is no lamp,the room is so beatiful and there is very beatiful lamp is there,wolfe2,084_L_light,1,36,A3POD149IG0DIW,2021-01-26_00h14.17.618,MetaAwareness,2020.1.2,Win32,60,3TZ0XG8CBVN0GXIPZM0T1B04DYC892,A3POD149IG0DIW,37WLF8U1WQT0FZGM06ZMVPDH8CEK60,1FW75,1FW75,37WLF8U1WQT0FZGM06ZMVPDH8CEK60,37WLF8U1WQT0FZGM06ZMVPDH8CEK60,271255,271255,,,,,,,,,,
,,,,3,13.215665,0,6,6,120,1,a cream colored couch being lit up by several can lights in a living room,"a cream colored couch being lit up by several can lights in a living room, there is a ceiling fan installed to help with air movement.",wolfe2,039_L_ventilator,1,36,A3POD149IG0DIW,2021-01-26_00h14.17.618,MetaAwareness,2020.1.2,Win32,60,3TZ0XG8CBVN0GXIPZM0T1B04DYC892,A3POD149IG0DIW,37WLF8U1WQT0FZGM06ZMVPDH8CEK60,1FW75,1FW75,37WLF8U1WQT0FZGM06ZMVPDH8CEK60,37WLF8U1WQT0FZGM06ZMVPDH8CEK60,271255,271255,,,,,,,,,,
,,,,3,16.47733,0,7,7,19,1,"a living room with a computer desk, couch, a window with a city view, and a set of three mirrors on the wall","a living room with a computer desk, couch, and a window with a city view",wolfe2,005_R_mirror,2,36,A3POD149IG0DIW,2021-01-26_00h14.17.618,MetaAwareness,2020.1.2,Win32,60,3TZ0XG8CBVN0GXIPZM0T1B04DYC892,A3POD149IG0DIW,37WLF8U1WQT0FZGM06ZMVPDH8CEK60,1FW75,1FW75,37WLF8U1WQT0FZGM06ZMVPDH8CEK60,37WLF8U1WQT0FZGM06ZMVPDH8CEK60,271255,271255,,,,,,,,,,
,,,,3,15.283155,0,8,8,328,1,a bedroom that is cluttered with clothes and a hat on top of the bed,a bedroom that is cluttered with a cheetah print bedspread and clothes on the bed,wolfe2,105_R_hat,2,36,A3POD149IG0DIW,2021-01-26_00h14.17.618,MetaAwareness,2020.1.2,Win32,60,3TZ0XG8CBVN0GXIPZM0T1B04DYC892,A3POD149IG0DIW,37WLF8U1WQT0FZGM06ZMVPDH8CEK60,1FW75,1FW75,37WLF8U1WQT0FZGM06ZMVPDH8CEK60,37WLF8U1WQT0FZGM06ZMVPDH8CEK60,271255,271255,,,,,,,,,,
,,,,1,10.380655,0,9,9,76,1,a family lounge area of middle class flavor,the remote control for the family tv room,wolfe2,023_L_remote,7,36,A3POD149IG0DIW,2021-01-26_00h14.17.618,MetaAwareness,2020.1.2,Win32,60,3TZ0XG8CBVN0GXIPZM0T1B04DYC892,A3POD149IG0DIW,37WLF8U1WQT0FZGM06ZMVPDH8CEK60,1FW75,1FW75,37WLF8U1WQT0FZGM06ZMVPDH8CEK60,37WLF8U1WQT0FZGM06ZMVPDH8CEK60,271255,271255,,,,,,,,,,
,,,,2,7.32252,0,10,10,118,1,an empty wallon the yellow space,boards are attached in the wall,wolfe2,038_R_art,1,36,A3POD149IG0DIW,2021-01-26_00h14.17.618,MetaAwareness,2020.1.2,Win32,60,3TZ0XG8CBVN0GXIPZM0T1B04DYC892,A3POD149IG0DIW,37WLF8U1WQT0FZGM06ZMVPDH8CEK60,1FW75,1FW75,37WLF8U1WQT0FZGM06ZMVPDH8CEK60,37WLF8U1WQT0FZGM06ZMVPDH8CEK60,271255,271255,,,,,,,,,,
,,,,3,9.077035,0,11,11,348,1,a lounge area with a plant,a lounge area that doesn't have a plant,wolfe2,112_R_basket,1,36,A3POD149IG0DIW,2021-01-26_00h14.17.618,MetaAwareness,2020.1.2,Win32,60,3TZ0XG8CBVN0GXIPZM0T1B04DYC892,A3POD149IG0DIW,37WLF8U1WQT0FZGM06ZMVPDH8CEK60,1FW75,1FW75,37WLF8U1WQT0FZGM06ZMVPDH8CEK60,37WLF8U1WQT0FZGM06ZMVPDH8CEK60,271255,271255,,,,,,,,,,
,,,,4,11.99869,0,12,12,195,1,"a common living space type room that blends natural and man-made elements, one of which is a wooden desk","a common living space type room that blends natural and man-made elements, one of which is a wooden desk with a book on top of it.",wolfe2,063_L_laptop,3,36,A3POD149IG0DIW,2021-01-26_00h14.17.618,MetaAwareness,2020.1.2,Win32,60,3TZ0XG8CBVN0GXIPZM0T1B04DYC892,A3POD149IG0DIW,37WLF8U1WQT0FZGM06ZMVPDH8CEK60,1FW75,1FW75,37WLF8U1WQT0FZGM06ZMVPDH8CEK60,37WLF8U1WQT0FZGM06ZMVPDH8CEK60,271255,271255,,,,,,,,,,
,,,,4,27.703075,0,13,13,13,1,a hotel room with a view of the city.,a hotel room with a view of the city that has a tower in the background.,wolfe2,004_R_electricalgrid,2,36,A3POD149IG0DIW,2021-01-26_00h14.17.618,MetaAwareness,2020.1.2,Win32,60,3TZ0XG8CBVN0GXIPZM0T1B04DYC892,A3POD149IG0DIW,37WLF8U1WQT0FZGM06ZMVPDH8CEK60,1FW75,1FW75,37WLF8U1WQT0FZGM06ZMVPDH8CEK60,37WLF8U1WQT0FZGM06ZMVPDH8CEK60,271255,271255,,,,,,,,,,
,,,,3,21.66939,0,14,14,22,1,bedroom with full set,bedroom with full set and vase on nightstand,wolfe2,006_L_vase,5,36,A3POD149IG0DIW,2021-01-26_00h14.17.618,MetaAwareness,2020.1.2,Win32,60,3TZ0XG8CBVN0GXIPZM0T1B04DYC892,A3POD149IG0DIW,37WLF8U1WQT0FZGM06ZMVPDH8CEK60,1FW75,1FW75,37WLF8U1WQT0FZGM06ZMVPDH8CEK60,37WLF8U1WQT0FZGM06ZMVPDH8CEK60,271255,271255,,,,,,,,,,
,,,,4,45.64261,0,15,15,70,1,a modern looking office with a nice desktop mat,a modern looking office with a keyboard on a nice desktop mat.,wolfe2,021_L_keyboard,7,36,A3POD149IG0DIW,2021-01-26_00h14.17.618,MetaAwareness,2020.1.2,Win32,60,3TZ0XG8CBVN0GXIPZM0T1B04DYC892,A3POD149IG0DIW,37WLF8U1WQT0FZGM06ZMVPDH8CEK60,1FW75,1FW75,37WLF8U1WQT0FZGM06ZMVPDH8CEK60,37WLF8U1WQT0FZGM06ZMVPDH8CEK60,271255,271255,,,,,,,,,,
,,,,4,119.042395,0,16,16,383,1,a modern bedroom with a nightstand that has a red lamp and a black toy car,a modern bedroom with a nightstand that has a red lamp,wolfe2,121_R_car,4,36,A3POD149IG0DIW,2021-01-26_00h14.17.618,MetaAwareness,2020.1.2,Win32,60,3TZ0XG8CBVN0GXIPZM0T1B04DYC892,A3POD149IG0DIW,37WLF8U1WQT0FZGM06ZMVPDH8CEK60,1FW75,1FW75,37WLF8U1WQT0FZGM06ZMVPDH8CEK60,37WLF8U1WQT0FZGM06ZMVPDH8CEK60,271255,271255,,,,,,,,,,
,,,,2,41.111315,0,17,17,161,1,bunk bedroom with a red concept in th room with a shinny grey floor,red concept room with bunkbed and table with a blue rug close to the bed,wolfe2,055_R_carpet,5,36,A3POD149IG0DIW,2021-01-26_00h14.17.618,MetaAwareness,2020.1.2,Win32,60,3TZ0XG8CBVN0GXIPZM0T1B04DYC892,A3POD149IG0DIW,37WLF8U1WQT0FZGM06ZMVPDH8CEK60,1FW75,1FW75,37WLF8U1WQT0FZGM06ZMVPDH8CEK60,37WLF8U1WQT0FZGM06ZMVPDH8CEK60,271255,271255,,,,,,,,,,
,,,,4,10.135415,0,18,18,287,1,a relaxing bedroom that is colored mostly red with a lamp in the corner.,a relaxing bedroom that is colored mostly red.,wolfe2,090_R_lamp,4,36,A3POD149IG0DIW,2021-01-26_00h14.17.618,MetaAwareness,2020.1.2,Win32,60,3TZ0XG8CBVN0GXIPZM0T1B04DYC892,A3POD149IG0DIW,37WLF8U1WQT0FZGM06ZMVPDH8CEK60,1FW75,1FW75,37WLF8U1WQT0FZGM06ZMVPDH8CEK60,37WLF8U1WQT0FZGM06ZMVPDH8CEK60,271255,271255,,,,,,,,,,
,,,,6,12.83431,0,19,19,35,1,a bedroom with an accent wall of mirrors and a nightstand with two candle holders - only one containing a candle.,a bedroom with an accent wall of mirrors and a nightstand with two candle holders which both contain candles.,wolfe2,010_R_candle,2,36,A3POD149IG0DIW,2021-01-26_00h14.17.618,MetaAwareness,2020.1.2,Win32,60,3TZ0XG8CBVN0GXIPZM0T1B04DYC892,A3POD149IG0DIW,37WLF8U1WQT0FZGM06ZMVPDH8CEK60,1FW75,1FW75,37WLF8U1WQT0FZGM06ZMVPDH8CEK60,37WLF8U1WQT0FZGM06ZMVPDH8CEK60,271255,271255,,,,,,,,,,
,,,,5,23.02662,0,20,20,91,1,an upscale bathroom with a space between cabinets.,an upscale bathroom with a counter top between cabinets.,wolfe2,030_L_drawer,5,36,A3POD149IG0DIW,2021-01-26_00h14.17.618,MetaAwareness,2020.1.2,Win32,60,3TZ0XG8CBVN0GXIPZM0T1B04DYC892,A3POD149IG0DIW,37WLF8U1WQT0FZGM06ZMVPDH8CEK60,1FW75,1FW75,37WLF8U1WQT0FZGM06ZMVPDH8CEK60,37WLF8U1WQT0FZGM06ZMVPDH8CEK60,271255,271255,,,,,,,,,,
,,,,3,17.23564,0,21,21,163,1,a living room with two windows and a sofa that has pilllows on it,a living room with two windows and a sofa that has pillows on it and a blanket  and a book on the corner of it,wolfe2,056_L_comforter,2,36,A3POD149IG0DIW,2021-01-26_00h14.17.618,MetaAwareness,2020.1.2,Win32,60,3TZ0XG8CBVN0GXIPZM0T1B04DYC892,A3POD149IG0DIW,37WLF8U1WQT0FZGM06ZMVPDH8CEK60,1FW75,1FW75,37WLF8U1WQT0FZGM06ZMVPDH8CEK60,37WLF8U1WQT0FZGM06ZMVPDH8CEK60,271255,271255,,,,,,,,,,
,,,,4,17.975825,0,22,22,293,1,a living room with a white couch and a large mirror,"a living room with a white couch, a large mirror and candles on the floor",wolfe2,092_R_candles,5,36,A3POD149IG0DIW,2021-01-26_00h14.17.618,MetaAwareness,2020.1.2,Win32,60,3TZ0XG8CBVN0GXIPZM0T1B04DYC892,A3POD149IG0DIW,37WLF8U1WQT0FZGM06ZMVPDH8CEK60,1FW75,1FW75,37WLF8U1WQT0FZGM06ZMVPDH8CEK60,37WLF8U1WQT0FZGM06ZMVPDH8CEK60,271255,271255,,,,,,,,,,
,,,,5,8.26298,0,23,23,389,1,an enclosed patio with a hottub that has potted plants at three corners of the tub.,an enclosed patio with a hottub that has potted plants at two corners of the tub.,wolfe2,123_L_pot,3,36,A3POD149IG0DIW,2021-01-26_00h14.17.618,MetaAwareness,2020.1.2,Win32,60,3TZ0XG8CBVN0GXIPZM0T1B04DYC892,A3POD149IG0DIW,37WLF8U1WQT0FZGM06ZMVPDH8CEK60,1FW75,1FW75,37WLF8U1WQT0FZGM06ZMVPDH8CEK60,37WLF8U1WQT0FZGM06ZMVPDH8CEK60,271255,271255,,,,,,,,,,
,,,,4,12.10057,0,24,24,60,1,a porch with two chairs and plants in the yard that are mostly low in height,"a porch with two chairs and plants in the yard that are mostly low in height, except one on the left side of the porch that is very tall.",wolfe2,018_L_plant,3,36,A3POD149IG0DIW,2021-01-26_00h14.17.618,MetaAwareness,2020.1.2,Win32,60,3TZ0XG8CBVN0GXIPZM0T1B04DYC892,A3POD149IG0DIW,37WLF8U1WQT0FZGM06ZMVPDH8CEK60,1FW75,1FW75,37WLF8U1WQT0FZGM06ZMVPDH8CEK60,37WLF8U1WQT0FZGM06ZMVPDH8CEK60,271255,271255,,,,,,,,,,
,,,,3,17.27262,0,25,25,4,1,a wedding reception with a napkin at every place setting.,a wedding reception with a napkin missing from one of the place settings.,wolfe2,002_L_napkin,4,36,A3POD149IG0DIW,2021-01-26_00h14.17.618,MetaAwareness,2020.1.2,Win32,60,3TZ0XG8CBVN0GXIPZM0T1B04DYC892,A3POD149IG0DIW,37WLF8U1WQT0FZGM06ZMVPDH8CEK60,1FW75,1FW75,37WLF8U1WQT0FZGM06ZMVPDH8CEK60,37WLF8U1WQT0FZGM06ZMVPDH8CEK60,271255,271255,,,,,,,,,,
,,,,5,14.71692,0,26,26,223,1,a white modern looking living room with 1 hanging lamp on the wall,a white modern looking living room with 2 hanging lamps on the wall,wolfe2,070_R_lamp,1,36,A3POD149IG0DIW,2021-01-26_00h14.17.618,MetaAwareness,2020.1.2,Win32,60,3TZ0XG8CBVN0GXIPZM0T1B04DYC892,A3POD149IG0DIW,37WLF8U1WQT0FZGM06ZMVPDH8CEK60,1FW75,1FW75,37WLF8U1WQT0FZGM06ZMVPDH8CEK60,37WLF8U1WQT0FZGM06ZMVPDH8CEK60,271255,271255,,,,,,,,,,
,,,,4,172.04764,0,27,27,192,1,the fireplace is in front of the white ottoman in the rustic living room,there is firewood in the fireplace warming the cozy living room with furniture,wolfe2,062_R_flowers,7,36,A3POD149IG0DIW,2021-01-26_00h14.17.618,MetaAwareness,2020.1.2,Win32,60,3TZ0XG8CBVN0GXIPZM0T1B04DYC892,A3POD149IG0DIW,37WLF8U1WQT0FZGM06ZMVPDH8CEK60,1FW75,1FW75,37WLF8U1WQT0FZGM06ZMVPDH8CEK60,37WLF8U1WQT0FZGM06ZMVPDH8CEK60,271255,271255,,,,,,,,,,
,,,,5,14.057695,0,28,28,64,1,an outside patio of a modern designed home with one outdoor light.,an outside patio of a modern designed home with two outdoor lights.,wolfe2,019_L_lamp_sized,3,36,A3POD149IG0DIW,2021-01-26_00h14.17.618,MetaAwareness,2020.1.2,Win32,60,3TZ0XG8CBVN0GXIPZM0T1B04DYC892,A3POD149IG0DIW,37WLF8U1WQT0FZGM06ZMVPDH8CEK60,1FW75,1FW75,37WLF8U1WQT0FZGM06ZMVPDH8CEK60,37WLF8U1WQT0FZGM06ZMVPDH8CEK60,271255,271255,,,,,,,,,,
,,,,4,13.279095,0,29,29,388,1,theres a hot tub with a bowl to the left of it,theres a hot tub with nothing around it,wolfe2,123_L_pot,1,36,A3POD149IG0DIW,2021-01-26_00h14.17.618,MetaAwareness,2020.1.2,Win32,60,3TZ0XG8CBVN0GXIPZM0T1B04DYC892,A3POD149IG0DIW,37WLF8U1WQT0FZGM06ZMVPDH8CEK60,1FW75,1FW75,37WLF8U1WQT0FZGM06ZMVPDH8CEK60,37WLF8U1WQT0FZGM06ZMVPDH8CEK60,271255,271255,,,,,,,,,,
,,,,,,,,,,,,,,,,36,A3POD149IG0DIW,2021-01-26_00h14.17.618,MetaAwareness,2020.1.2,Win32,60,3TZ0XG8CBVN0GXIPZM0T1B04DYC892,A3POD149IG0DIW,37WLF8U1WQT0FZGM06ZMVPDH8CEK60,1FW75,1FW75,37WLF8U1WQT0FZGM06ZMVPDH8CEK60,37WLF8U1WQT0FZGM06ZMVPDH8CEK60,271255,271255,6,11.835115,someone laying underneath a blue beach umbrella on a crowded beach,someone laying underneath a blue beach umbrella on a crowded beach,same,1,8.300375,members of a marching band crossing a track that all have feather plumes at the front of their hats,a cluttered and rustic looking cafe with 10 hanging lights,different
