consent_response.keys,consent_response.rt,key_resp_2.keys,key_resp_2.rt,user_resp.keys,user_resp.rt,trials.thisRepN,trials.thisTrialN,trials.thisN,trials.thisIndex,trials.ran,image_1_text,image_2_text,database,image,number,age,worker_ID,date,expName,psychopyVersion,OS,frameRate,hitId,workerId,assignmentId,a,tp_a,b,tp_b,c,tp_c,catch_same_resp.keys,catch_same_resp.rt,image_1_text_catch_same,image_2_text_catch_same,image_catch_same,catch_different_resp.keys,catch_different_resp.rt,image_1_text_catch_different,image_2_text_catch_different,image_catch_different
space,17.757495,space,12.6449,4,38.286635,0,0,0,130,1,a bathroom with two towels displayed which also has a smaller mirror on the wall.,a bathroom with two towels displayed and no extra mirrors on the side wall.,wolfe2,100_R_mirror,5,40,A3VLTC2Z0NPV7J,2021-01-26_08h19.42.315,MetaAwareness,2020.1.2,Win32,60,3E22YV8GG296BRL0MDL95YQE7XQNPX,A3VLTC2Z0NPV7J,3YMTUJH0DTJL3V2VBRKZZIGZV0FT4E,0UMY8,0UMY8,3YMTUJH0DTJL3V2VBRKZZIGZV0FT4E,3YMTUJH0DTJL3V2VBRKZZIGZV0FT4E,271388,271388,,,,,,,,,,
,,,,2,6.329255001,0,1,1,112,1,this is a bedroom. a night stand on the right has empty shelves.,this is a bedroom. a night stand on the right has shelves with a bowl on it.,wolfe2,082_R_bowl,9,40,A3VLTC2Z0NPV7J,2021-01-26_08h19.42.315,MetaAwareness,2020.1.2,Win32,60,3E22YV8GG296BRL0MDL95YQE7XQNPX,A3VLTC2Z0NPV7J,3YMTUJH0DTJL3V2VBRKZZIGZV0FT4E,0UMY8,0UMY8,3YMTUJH0DTJL3V2VBRKZZIGZV0FT4E,3YMTUJH0DTJL3V2VBRKZZIGZV0FT4E,271388,271388,,,,,,,,,,
,,,,1,12.85676,0,2,2,118,1,a barber shop with a picture of woman with red hair between station that has a picture of a woman with black hair on the other side of station,a barber shop with a picture of a woman with black hair between the stations,wolfe2,089_R_poster,3,40,A3VLTC2Z0NPV7J,2021-01-26_08h19.42.315,MetaAwareness,2020.1.2,Win32,60,3E22YV8GG296BRL0MDL95YQE7XQNPX,A3VLTC2Z0NPV7J,3YMTUJH0DTJL3V2VBRKZZIGZV0FT4E,0UMY8,0UMY8,3YMTUJH0DTJL3V2VBRKZZIGZV0FT4E,3YMTUJH0DTJL3V2VBRKZZIGZV0FT4E,271388,271388,,,,,,,,,,
,,,,4,12.873615,0,3,3,58,1,large living or entretainment room with multiple screens and sofas,living room with a decoration on the left shelf close to the television,wolfe2,043_L_clock,2,40,A3VLTC2Z0NPV7J,2021-01-26_08h19.42.315,MetaAwareness,2020.1.2,Win32,60,3E22YV8GG296BRL0MDL95YQE7XQNPX,A3VLTC2Z0NPV7J,3YMTUJH0DTJL3V2VBRKZZIGZV0FT4E,0UMY8,0UMY8,3YMTUJH0DTJL3V2VBRKZZIGZV0FT4E,3YMTUJH0DTJL3V2VBRKZZIGZV0FT4E,271388,271388,,,,,,,,,,
,,,,6,6.97158,0,4,4,43,1,"a modern-looking bathroom with two shelves, one of which is empty and the other of which has one white bottle","a modern-looking bathroom with two shelves, one of which is empty and the other of which has two white bottles",wolfe2,032_R_bottle,1,40,A3VLTC2Z0NPV7J,2021-01-26_08h19.42.315,MetaAwareness,2020.1.2,Win32,60,3E22YV8GG296BRL0MDL95YQE7XQNPX,A3VLTC2Z0NPV7J,3YMTUJH0DTJL3V2VBRKZZIGZV0FT4E,0UMY8,0UMY8,3YMTUJH0DTJL3V2VBRKZZIGZV0FT4E,3YMTUJH0DTJL3V2VBRKZZIGZV0FT4E,271388,271388,,,,,,,,,,
,,,,6,4.72469,0,5,5,63,1,"a very large bathroom that has a double sinks, a shower, a tub, and a wooden closet with a bottom drawer.","a very large bathroom that has double sinks, a shower, a tub, and a wooden closet with two bottom drawers.",wolfe2,053_R_handle,2,40,A3VLTC2Z0NPV7J,2021-01-26_08h19.42.315,MetaAwareness,2020.1.2,Win32,60,3E22YV8GG296BRL0MDL95YQE7XQNPX,A3VLTC2Z0NPV7J,3YMTUJH0DTJL3V2VBRKZZIGZV0FT4E,0UMY8,0UMY8,3YMTUJH0DTJL3V2VBRKZZIGZV0FT4E,3YMTUJH0DTJL3V2VBRKZZIGZV0FT4E,271388,271388,,,,,,,,,,
,,,,5,2.923685,0,6,6,142,1,a very modern and stylish looking room with a large number of windows and an orange pillow on the couch,a very modern and stylish looking room with a large number of windows,wolfe2,109_R_pillow,4,40,A3VLTC2Z0NPV7J,2021-01-26_08h19.42.315,MetaAwareness,2020.1.2,Win32,60,3E22YV8GG296BRL0MDL95YQE7XQNPX,A3VLTC2Z0NPV7J,3YMTUJH0DTJL3V2VBRKZZIGZV0FT4E,0UMY8,0UMY8,3YMTUJH0DTJL3V2VBRKZZIGZV0FT4E,3YMTUJH0DTJL3V2VBRKZZIGZV0FT4E,271388,271388,,,,,,,,,,
,,,,5,6.751885,0,7,7,11,1,nice family blue bathroom,modern blue clean bathroom,wolfe2,008_R_bottle,6,40,A3VLTC2Z0NPV7J,2021-01-26_08h19.42.315,MetaAwareness,2020.1.2,Win32,60,3E22YV8GG296BRL0MDL95YQE7XQNPX,A3VLTC2Z0NPV7J,3YMTUJH0DTJL3V2VBRKZZIGZV0FT4E,0UMY8,0UMY8,3YMTUJH0DTJL3V2VBRKZZIGZV0FT4E,3YMTUJH0DTJL3V2VBRKZZIGZV0FT4E,271388,271388,,,,,,,,,,
,,,,6,3.80371,0,8,8,45,1,there is an empty spot of the shelf between two items in this modern living room,there is a vase between two objects in this modern living room,wolfe2,033_R_vase,2,40,A3VLTC2Z0NPV7J,2021-01-26_08h19.42.315,MetaAwareness,2020.1.2,Win32,60,3E22YV8GG296BRL0MDL95YQE7XQNPX,A3VLTC2Z0NPV7J,3YMTUJH0DTJL3V2VBRKZZIGZV0FT4E,0UMY8,0UMY8,3YMTUJH0DTJL3V2VBRKZZIGZV0FT4E,3YMTUJH0DTJL3V2VBRKZZIGZV0FT4E,271388,271388,,,,,,,,,,
,,,,4,13.702705,0,9,9,133,1,a brown bathroom with a small tear in the wall next to the mirror,a brown bathroom without a small tear in the wall next to the mirror,wolfe2,103_L_hook,5,40,A3VLTC2Z0NPV7J,2021-01-26_08h19.42.315,MetaAwareness,2020.1.2,Win32,60,3E22YV8GG296BRL0MDL95YQE7XQNPX,A3VLTC2Z0NPV7J,3YMTUJH0DTJL3V2VBRKZZIGZV0FT4E,0UMY8,0UMY8,3YMTUJH0DTJL3V2VBRKZZIGZV0FT4E,3YMTUJH0DTJL3V2VBRKZZIGZV0FT4E,271388,271388,,,,,,,,,,
,,,,5,1.39708,0,10,10,137,1,"a mundane, plain, and empty bathroom with a hand dryer attached to the wall","a mundane, plain, and empty bathroom without a hand dryer attached to the wall to dry hands",wolfe2,106_L_toweldispenser,8,40,A3VLTC2Z0NPV7J,2021-01-26_08h19.42.315,MetaAwareness,2020.1.2,Win32,60,3E22YV8GG296BRL0MDL95YQE7XQNPX,A3VLTC2Z0NPV7J,3YMTUJH0DTJL3V2VBRKZZIGZV0FT4E,0UMY8,0UMY8,3YMTUJH0DTJL3V2VBRKZZIGZV0FT4E,3YMTUJH0DTJL3V2VBRKZZIGZV0FT4E,271388,271388,,,,,,,,,,
,,,,3,5.0366,0,11,11,156,1,"modern living room with big glass doors, patio and 3 items on the mantle","modern living room with big glass doors, patio and 2 items on the mantle",wolfe2,120_L_art,2,40,A3VLTC2Z0NPV7J,2021-01-26_08h19.42.315,MetaAwareness,2020.1.2,Win32,60,3E22YV8GG296BRL0MDL95YQE7XQNPX,A3VLTC2Z0NPV7J,3YMTUJH0DTJL3V2VBRKZZIGZV0FT4E,0UMY8,0UMY8,3YMTUJH0DTJL3V2VBRKZZIGZV0FT4E,3YMTUJH0DTJL3V2VBRKZZIGZV0FT4E,271388,271388,,,,,,,,,,
,,,,4,3.19981,0,12,12,166,1,a huge living room with an ocean viw,a huge livingroom without nothing near the window,wolfe2,125_R_sofa,4,40,A3VLTC2Z0NPV7J,2021-01-26_08h19.42.315,MetaAwareness,2020.1.2,Win32,60,3E22YV8GG296BRL0MDL95YQE7XQNPX,A3VLTC2Z0NPV7J,3YMTUJH0DTJL3V2VBRKZZIGZV0FT4E,0UMY8,0UMY8,3YMTUJH0DTJL3V2VBRKZZIGZV0FT4E,3YMTUJH0DTJL3V2VBRKZZIGZV0FT4E,271388,271388,,,,,,,,,,
,,,,5,1.08307,0,13,13,164,1,a large black and white living room with a small stool next to the windows,a large black and white living room without a small stool next to the windows,wolfe2,125_L_sofa,5,40,A3VLTC2Z0NPV7J,2021-01-26_08h19.42.315,MetaAwareness,2020.1.2,Win32,60,3E22YV8GG296BRL0MDL95YQE7XQNPX,A3VLTC2Z0NPV7J,3YMTUJH0DTJL3V2VBRKZZIGZV0FT4E,0UMY8,0UMY8,3YMTUJH0DTJL3V2VBRKZZIGZV0FT4E,3YMTUJH0DTJL3V2VBRKZZIGZV0FT4E,271388,271388,,,,,,,,,,
,,,,4,2.536520001,0,14,14,84,1,an office room with little to no decor in it with an empty dresser on the side,an office room with little decor in it with a dresser on the side with a picture on it,wolfe2,067_L_painting,5,40,A3VLTC2Z0NPV7J,2021-01-26_08h19.42.315,MetaAwareness,2020.1.2,Win32,60,3E22YV8GG296BRL0MDL95YQE7XQNPX,A3VLTC2Z0NPV7J,3YMTUJH0DTJL3V2VBRKZZIGZV0FT4E,0UMY8,0UMY8,3YMTUJH0DTJL3V2VBRKZZIGZV0FT4E,3YMTUJH0DTJL3V2VBRKZZIGZV0FT4E,271388,271388,,,,,,,,,,
,,,,5,5.124535001,0,15,15,104,1,a black bathroom vanity with one faucet handle under a white-framed mirror,a black bathroom vanity with two faucet handles under a white-framed mirror,wolfe2,078_L_faucet,2,40,A3VLTC2Z0NPV7J,2021-01-26_08h19.42.315,MetaAwareness,2020.1.2,Win32,60,3E22YV8GG296BRL0MDL95YQE7XQNPX,A3VLTC2Z0NPV7J,3YMTUJH0DTJL3V2VBRKZZIGZV0FT4E,0UMY8,0UMY8,3YMTUJH0DTJL3V2VBRKZZIGZV0FT4E,3YMTUJH0DTJL3V2VBRKZZIGZV0FT4E,271388,271388,,,,,,,,,,
,,,,5,6.690479999,0,16,16,161,1,"a public dining area with multiple tables and chairs, with a chair sitting next to a table near the back window","a public dining area with multiple tables and chairs, with no chair sitting next to a table near the back window",wolfe2,122_R_chair,3,40,A3VLTC2Z0NPV7J,2021-01-26_08h19.42.315,MetaAwareness,2020.1.2,Win32,60,3E22YV8GG296BRL0MDL95YQE7XQNPX,A3VLTC2Z0NPV7J,3YMTUJH0DTJL3V2VBRKZZIGZV0FT4E,0UMY8,0UMY8,3YMTUJH0DTJL3V2VBRKZZIGZV0FT4E,3YMTUJH0DTJL3V2VBRKZZIGZV0FT4E,271388,271388,,,,,,,,,,
,,,,5,3.72016,0,17,17,22,1,a living room that has two lights in the ceiling.,a living room that has three lights in the ceiling.,wolfe2,015_R_ceilinglight,3,40,A3VLTC2Z0NPV7J,2021-01-26_08h19.42.315,MetaAwareness,2020.1.2,Win32,60,3E22YV8GG296BRL0MDL95YQE7XQNPX,A3VLTC2Z0NPV7J,3YMTUJH0DTJL3V2VBRKZZIGZV0FT4E,0UMY8,0UMY8,3YMTUJH0DTJL3V2VBRKZZIGZV0FT4E,3YMTUJH0DTJL3V2VBRKZZIGZV0FT4E,271388,271388,,,,,,,,,,
,,,,4,3.00375,0,18,18,86,1,an office meeting room with a large tv,an office meeting room with a large tv and a small picture,wolfe2,067_R_painting,3,40,A3VLTC2Z0NPV7J,2021-01-26_08h19.42.315,MetaAwareness,2020.1.2,Win32,60,3E22YV8GG296BRL0MDL95YQE7XQNPX,A3VLTC2Z0NPV7J,3YMTUJH0DTJL3V2VBRKZZIGZV0FT4E,0UMY8,0UMY8,3YMTUJH0DTJL3V2VBRKZZIGZV0FT4E,3YMTUJH0DTJL3V2VBRKZZIGZV0FT4E,271388,271388,,,,,,,,,,
,,,,3,2.9849,0,19,19,51,1,a bedroom with 2 decorations on the side table,a bedroom with 3 decorations on the side table,wolfe2,035_L_fruit,6,40,A3VLTC2Z0NPV7J,2021-01-26_08h19.42.315,MetaAwareness,2020.1.2,Win32,60,3E22YV8GG296BRL0MDL95YQE7XQNPX,A3VLTC2Z0NPV7J,3YMTUJH0DTJL3V2VBRKZZIGZV0FT4E,0UMY8,0UMY8,3YMTUJH0DTJL3V2VBRKZZIGZV0FT4E,3YMTUJH0DTJL3V2VBRKZZIGZV0FT4E,271388,271388,,,,,,,,,,
,,,,2,6.554295,0,20,20,4,1,it is a picture of a dinning table with 8 seats and 7 sets of cups and napkins.,it is a picture of a dinning table with 8 seats and 8 sets of cups and napkins.,wolfe2,002_R_napkin,4,40,A3VLTC2Z0NPV7J,2021-01-26_08h19.42.315,MetaAwareness,2020.1.2,Win32,60,3E22YV8GG296BRL0MDL95YQE7XQNPX,A3VLTC2Z0NPV7J,3YMTUJH0DTJL3V2VBRKZZIGZV0FT4E,0UMY8,0UMY8,3YMTUJH0DTJL3V2VBRKZZIGZV0FT4E,3YMTUJH0DTJL3V2VBRKZZIGZV0FT4E,271388,271388,,,,,,,,,,
,,,,4,5.21511,0,21,21,48,1,a modern bedroom that is well-decorated with lots of accent pieces and good lighting.,"a modern bedroom that is well-decorated with lots of accent pieces, including a table that has vases and a bowl of fruit.",wolfe2,035_L_fruit,1,40,A3VLTC2Z0NPV7J,2021-01-26_08h19.42.315,MetaAwareness,2020.1.2,Win32,60,3E22YV8GG296BRL0MDL95YQE7XQNPX,A3VLTC2Z0NPV7J,3YMTUJH0DTJL3V2VBRKZZIGZV0FT4E,0UMY8,0UMY8,3YMTUJH0DTJL3V2VBRKZZIGZV0FT4E,3YMTUJH0DTJL3V2VBRKZZIGZV0FT4E,271388,271388,,,,,,,,,,
,,,,3,3.873945001,0,22,22,122,1,"a darky, fancy restroom with deep red walls and gold trim mirrors","a dark, fancy restroom with deep red walls, gold trim mirrors and a white frame",wolfe2,091_R_airfreshener,2,40,A3VLTC2Z0NPV7J,2021-01-26_08h19.42.315,MetaAwareness,2020.1.2,Win32,60,3E22YV8GG296BRL0MDL95YQE7XQNPX,A3VLTC2Z0NPV7J,3YMTUJH0DTJL3V2VBRKZZIGZV0FT4E,0UMY8,0UMY8,3YMTUJH0DTJL3V2VBRKZZIGZV0FT4E,3YMTUJH0DTJL3V2VBRKZZIGZV0FT4E,271388,271388,,,,,,,,,,
,,,,5,4.09245,0,23,23,143,1,a mud room with a pool outside with a small plant in the corner,a mud room with a pool outside,wolfe2,110_L_plant,2,40,A3VLTC2Z0NPV7J,2021-01-26_08h19.42.315,MetaAwareness,2020.1.2,Win32,60,3E22YV8GG296BRL0MDL95YQE7XQNPX,A3VLTC2Z0NPV7J,3YMTUJH0DTJL3V2VBRKZZIGZV0FT4E,0UMY8,0UMY8,3YMTUJH0DTJL3V2VBRKZZIGZV0FT4E,3YMTUJH0DTJL3V2VBRKZZIGZV0FT4E,271388,271388,,,,,,,,,,
,,,,4,4.029895,0,24,24,65,1,"a living room containing a sofa, book shelves, and an empty fireplace","a living room containing a sofa, book shelves, and logs in a fireplace",wolfe2,054_R_firewood,3,40,A3VLTC2Z0NPV7J,2021-01-26_08h19.42.315,MetaAwareness,2020.1.2,Win32,60,3E22YV8GG296BRL0MDL95YQE7XQNPX,A3VLTC2Z0NPV7J,3YMTUJH0DTJL3V2VBRKZZIGZV0FT4E,0UMY8,0UMY8,3YMTUJH0DTJL3V2VBRKZZIGZV0FT4E,3YMTUJH0DTJL3V2VBRKZZIGZV0FT4E,271388,271388,,,,,,,,,,
,,,,5,8.93782,0,25,25,61,1,a very nice bedroom with a glass vase off to one end.,a very nice bedroom with a glass vase off to one end that has another glass vase on top of it.,wolfe2,048_L_art,1,40,A3VLTC2Z0NPV7J,2021-01-26_08h19.42.315,MetaAwareness,2020.1.2,Win32,60,3E22YV8GG296BRL0MDL95YQE7XQNPX,A3VLTC2Z0NPV7J,3YMTUJH0DTJL3V2VBRKZZIGZV0FT4E,0UMY8,0UMY8,3YMTUJH0DTJL3V2VBRKZZIGZV0FT4E,3YMTUJH0DTJL3V2VBRKZZIGZV0FT4E,271388,271388,,,,,,,,,,
,,,,6,1.64943,0,26,26,163,1,a spacious conversation room with large windows and a white vase sitting on the floor,a spacious conversation room with large windows and no vase sitting on the floor,wolfe2,124_R_vase,4,40,A3VLTC2Z0NPV7J,2021-01-26_08h19.42.315,MetaAwareness,2020.1.2,Win32,60,3E22YV8GG296BRL0MDL95YQE7XQNPX,A3VLTC2Z0NPV7J,3YMTUJH0DTJL3V2VBRKZZIGZV0FT4E,0UMY8,0UMY8,3YMTUJH0DTJL3V2VBRKZZIGZV0FT4E,3YMTUJH0DTJL3V2VBRKZZIGZV0FT4E,271388,271388,,,,,,,,,,
,,,,4,1.216235,0,27,27,69,1,a living room with a large white couch and brown carpet.,a living room with a large white couch and brown carpet. a small blanket laying on the couch.,wolfe2,056_R_comforter,7,40,A3VLTC2Z0NPV7J,2021-01-26_08h19.42.315,MetaAwareness,2020.1.2,Win32,60,3E22YV8GG296BRL0MDL95YQE7XQNPX,A3VLTC2Z0NPV7J,3YMTUJH0DTJL3V2VBRKZZIGZV0FT4E,0UMY8,0UMY8,3YMTUJH0DTJL3V2VBRKZZIGZV0FT4E,3YMTUJH0DTJL3V2VBRKZZIGZV0FT4E,271388,271388,,,,,,,,,,
,,,,3,1.63911,0,28,28,149,1,a sun room area with a plant displayed in the corner,a sun room area with a plant not displayed in the corner,wolfe2,113_L_plant,4,40,A3VLTC2Z0NPV7J,2021-01-26_08h19.42.315,MetaAwareness,2020.1.2,Win32,60,3E22YV8GG296BRL0MDL95YQE7XQNPX,A3VLTC2Z0NPV7J,3YMTUJH0DTJL3V2VBRKZZIGZV0FT4E,0UMY8,0UMY8,3YMTUJH0DTJL3V2VBRKZZIGZV0FT4E,3YMTUJH0DTJL3V2VBRKZZIGZV0FT4E,271388,271388,,,,,,,,,,
,,,,2,2.290095,0,29,29,73,1,a glamorous pink and white bedroom,a glamorous pink and white bedroom with a purple cloth laying on a seat,wolfe2,058_R_clutch,4,40,A3VLTC2Z0NPV7J,2021-01-26_08h19.42.315,MetaAwareness,2020.1.2,Win32,60,3E22YV8GG296BRL0MDL95YQE7XQNPX,A3VLTC2Z0NPV7J,3YMTUJH0DTJL3V2VBRKZZIGZV0FT4E,0UMY8,0UMY8,3YMTUJH0DTJL3V2VBRKZZIGZV0FT4E,3YMTUJH0DTJL3V2VBRKZZIGZV0FT4E,271388,271388,,,,,,,,,,
,,,,,,,,,,,,,,,,40,A3VLTC2Z0NPV7J,2021-01-26_08h19.42.315,MetaAwareness,2020.1.2,Win32,60,3E22YV8GG296BRL0MDL95YQE7XQNPX,A3VLTC2Z0NPV7J,3YMTUJH0DTJL3V2VBRKZZIGZV0FT4E,0UMY8,0UMY8,3YMTUJH0DTJL3V2VBRKZZIGZV0FT4E,3YMTUJH0DTJL3V2VBRKZZIGZV0FT4E,271388,271388,4,2.11219,someone laying underneath a blue beach umbrella on a crowded beach,someone laying underneath a blue beach umbrella on a crowded beach,same,2,280.07489,members of a marching band crossing a track that all have feather plumes at the front of their hats,a cluttered and rustic looking cafe with 10 hanging lights,different
