workerId,assignmentId,hitId,unmod_image,unmod_image_splash,mod_image,mod_image_splash,expTimer,response,trial_number,rt,x,y
A24FN5BK5L9I2S,NA,NA,catchAirplane-a,catchAirplane-as,catchAirplane-b,catchAirplane-bs,391.437,-1,1,7757,333,242
A24FN5BK5L9I2S,NA,NA,catchBoat-a,catchBoat-as,catchBoat-b,catchBoat-bs,399.937,-1,2,7247,377,242
A24FN5BK5L9I2S,NA,NA,wolfe_041_R_fruit-a,wolfe_041_R_fruit-as,wolfe_041_R_fruit-b,wolfe_041_R_fruit-bs,411.203,-1,3,9459,596,369
A24FN5BK5L9I2S,NA,NA,wolfe_022_R_lamp-a,wolfe_022_R_lamp-as,wolfe_022_R_lamp-b,wolfe_022_R_lamp-bs,420.887,-1,4,8189,421,68
A24FN5BK5L9I2S,NA,NA,wolfe_109_R_pillow-a,wolfe_109_R_pillow-as,wolfe_109_R_pillow-b,wolfe_109_R_pillow-bs,433.137,-1,5,10372,398,290
A24FN5BK5L9I2S,NA,NA,wolfe_029_R_glass-a,wolfe_029_R_glass-as,wolfe_029_R_glass-b,wolfe_029_R_glass-bs,441.12,-1,6,7214,485,273
A24FN5BK5L9I2S,NA,NA,wolfe_032_R_bottle-a,wolfe_032_R_bottle-as,wolfe_032_R_bottle-b,wolfe_032_R_bottle-bs,449.693,-1,7,7461,422,145
A24FN5BK5L9I2S,NA,NA,wolfe_125_R_sofa-a,wolfe_125_R_sofa-as,wolfe_125_R_sofa-b,wolfe_125_R_sofa-bs,460.375,-1,8,9813,578,344
A24FN5BK5L9I2S,NA,NA,wolfe_048_R_art-a,wolfe_048_R_art-as,wolfe_048_R_art-b,wolfe_048_R_art-bs,488.053,-1,9,25720,12,236
A24FN5BK5L9I2S,NA,NA,wolfe_023_R_remote-a,wolfe_023_R_remote-as,wolfe_023_R_remote-b,wolfe_023_R_remote-bs,496.804,-1,10,7787,448,467
A24FN5BK5L9I2S,NA,NA,wolfe_096_R_painting-a,wolfe_096_R_painting-as,wolfe_096_R_painting-b,wolfe_096_R_painting-bs,507.736,-1,11,10148,605,226
A24FN5BK5L9I2S,NA,NA,wolfe_030_R_drawer-a,wolfe_030_R_drawer-as,wolfe_030_R_drawer-b,wolfe_030_R_drawer-bs,517.79,-1,12,9289,417,320
A24FN5BK5L9I2S,NA,NA,wolfe_049_R_painting-a,wolfe_049_R_painting-as,wolfe_049_R_painting-b,wolfe_049_R_painting-bs,526.584,-1,13,7978,527,128
A24FN5BK5L9I2S,NA,NA,wolfe_103_R_hook-a,wolfe_103_R_hook-as,wolfe_103_R_hook-b,wolfe_103_R_hook-bs,546.453,-1,14,19556,519,390
A24FN5BK5L9I2S,NA,NA,wolfe_068_R_faucet-a,wolfe_068_R_faucet-as,wolfe_068_R_faucet-b,wolfe_068_R_faucet-bs,555.168,-1,15,7842,379,308
A24FN5BK5L9I2S,NA,NA,wolfe_113_R_plant-a,wolfe_113_R_plant-as,wolfe_113_R_plant-b,wolfe_113_R_plant-bs,563.27,-1,16,7638,387,301
A24FN5BK5L9I2S,NA,NA,wolfe_051_R_owl-a,wolfe_051_R_owl-as,wolfe_051_R_owl-b,wolfe_051_R_owl-bs,576.801,-1,17,12549,395,304
A24FN5BK5L9I2S,NA,NA,wolfe_006_R_vase-a,wolfe_006_R_vase-as,wolfe_006_R_vase-b,wolfe_006_R_vase-bs,584.503,-1,18,7003,471,253
A24FN5BK5L9I2S,NA,NA,wolfe_003_R_ducks-a,wolfe_003_R_ducks-as,wolfe_003_R_ducks-b,wolfe_003_R_ducks-bs,594.547,-1,19,9434,423,339
A24FN5BK5L9I2S,NA,NA,wolfe_083_R_knob-a,wolfe_083_R_knob-as,wolfe_083_R_knob-b,wolfe_083_R_knob-bs,604.583,-1,20,9189,582,377
A24FN5BK5L9I2S,NA,NA,wolfe_077_R_footrest-a,wolfe_077_R_footrest-as,wolfe_077_R_footrest-b,wolfe_077_R_footrest-bs,616.052,-1,21,10687,346,362
A24FN5BK5L9I2S,NA,NA,wolfe_122_R_chair-a,wolfe_122_R_chair-as,wolfe_122_R_chair-b,wolfe_122_R_chair-bs,626.886,-1,22,9807,409,147
A24FN5BK5L9I2S,NA,NA,wolfe_037_R_towel-a,wolfe_037_R_towel-as,wolfe_037_R_towel-b,wolfe_037_R_towel-bs,635.418,-1,23,7582,341,223
A24FN5BK5L9I2S,NA,NA,wolfe_043_R_clock-a,wolfe_043_R_clock-as,wolfe_043_R_clock-b,wolfe_043_R_clock-bs,646.003,-1,24,9671,454,209
A24FN5BK5L9I2S,NA,NA,wolfe_015_R_ceilinglight-a,wolfe_015_R_ceilinglight-as,wolfe_015_R_ceilinglight-b,wolfe_015_R_ceilinglight-bs,659.286,-1,25,11867,571,87
A24FN5BK5L9I2S,NA,NA,wolfe_085_R_switchboard-a,wolfe_085_R_switchboard-as,wolfe_085_R_switchboard-b,wolfe_085_R_switchboard-bs,669.669,-1,26,9404,475,307
A24FN5BK5L9I2S,NA,NA,wolfe_090_R_lamp-a,wolfe_090_R_lamp-as,wolfe_090_R_lamp-b,wolfe_090_R_lamp-bs,669.673,-1,27,9481,475,307
A24FN5BK5L9I2S,NA,NA,wolfe_034_R_handle-a,wolfe_034_R_handle-as,wolfe_034_R_handle-b,wolfe_034_R_handle-bs,677.969,-1,28,7503,570,327
A24FN5BK5L9I2S,NA,NA,wolfe_112_R_basket-a,wolfe_112_R_basket-as,wolfe_112_R_basket-b,wolfe_112_R_basket-bs,685.986,-1,29,7435,608,406
A24FN5BK5L9I2S,NA,NA,wolfe_124_R_vase-a,wolfe_124_R_vase-as,wolfe_124_R_vase-b,wolfe_124_R_vase-bs,696.266,-1,30,9465,489,366
A24FN5BK5L9I2S,NA,NA,wolfe_128_R_pot-a,wolfe_128_R_pot-as,wolfe_128_R_pot-b,wolfe_128_R_pot-bs,704.316,-1,31,7521,509,270
A24FN5BK5L9I2S,NA,NA,wolfe_079_R_bowl-a,wolfe_079_R_bowl-as,wolfe_079_R_bowl-b,wolfe_079_R_bowl-bs,712.902,-1,32,7587,401,104
A24FN5BK5L9I2S,NA,NA,catchCow-a,catchCow-as,catchCow-b,catchCow-bs,720.368,-1,33,6932,418,177
