workerId,assignmentId,hitId,unmod_image,unmod_image_splash,mod_image,mod_image_splash,expTimer,response,trial_number,rt,x,y
A36FBIDN58N139,NA,NA,catchAirplane-a,catchAirplane-as,catchAirplane-b,catchAirplane-bs,19.001,-1,1,5278,653,454
A36FBIDN58N139,NA,NA,catchBoat-a,catchBoat-as,catchBoat-b,catchBoat-bs,27.103,-1,2,7116,410,266
A36FBIDN58N139,NA,NA,wolfe_079_L_bowl-a,wolfe_079_L_bowl-as,wolfe_079_L_bowl-b,wolfe_079_L_bowl-bs,37.704,-1,3,9306,268,71
A36FBIDN58N139,NA,NA,wolfe_099_L_sconce-a,wolfe_099_L_sconce-as,wolfe_099_L_sconce-b,wolfe_099_L_sconce-bs,46.494,-1,4,7560,450,259
A36FBIDN58N139,NA,NA,wolfe_108_L_boa-a,wolfe_108_L_boa-as,wolfe_108_L_boa-b,wolfe_108_L_boa-bs,54.506,-1,5,6787,322,210
A36FBIDN58N139,NA,NA,wolfe_015_L_ceilinglight-a,wolfe_015_L_ceilinglight-as,wolfe_015_L_ceilinglight-b,wolfe_015_L_ceilinglight-bs,63.19,-1,6,7661,480,458
A36FBIDN58N139,NA,NA,wolfe_027_L_soapdish-a,wolfe_027_L_soapdish-as,wolfe_027_L_soapdish-b,wolfe_027_L_soapdish-bs,71.391,-1,7,7060,40,278
A36FBIDN58N139,NA,NA,wolfe_125_L_sofa-a,wolfe_125_L_sofa-as,wolfe_125_L_sofa-b,wolfe_125_L_sofa-bs,79.444,-1,8,6915,96,346
A36FBIDN58N139,NA,NA,wolfe_063_L_laptop-a,wolfe_063_L_laptop-as,wolfe_063_L_laptop-b,wolfe_063_L_laptop-bs,87.701,-1,9,7223,265,149
A36FBIDN58N139,NA,NA,wolfe_046_L_remote-a,wolfe_046_L_remote-as,wolfe_046_L_remote-b,wolfe_046_L_remote-bs,95.794,-1,10,7285,287,314
A36FBIDN58N139,NA,NA,wolfe_101_L_cup-a,wolfe_101_L_cup-as,wolfe_101_L_cup-b,wolfe_101_L_cup-bs,103.844,-1,11,6881,319,144
A36FBIDN58N139,NA,NA,wolfe_013_L_lamp-a,wolfe_013_L_lamp-as,wolfe_013_L_lamp-b,wolfe_013_L_lamp-bs,112.145,-1,12,6952,149,178
A36FBIDN58N139,NA,NA,wolfe_035_L_fruit-a,wolfe_035_L_fruit-as,wolfe_035_L_fruit-b,wolfe_035_L_fruit-bs,120.4,-1,13,7137,529,193
A36FBIDN58N139,NA,NA,wolfe_047_L_handle-a,wolfe_047_L_handle-as,wolfe_047_L_handle-b,wolfe_047_L_handle-bs,129.221,-1,14,7412,119,396
A36FBIDN58N139,NA,NA,wolfe_045_L_musicdock-a,wolfe_045_L_musicdock-as,wolfe_045_L_musicdock-b,wolfe_045_L_musicdock-bs,137.7,-1,15,7135,55,270
A36FBIDN58N139,NA,NA,wolfe_032_L_bottle-a,wolfe_032_L_bottle-as,wolfe_032_L_bottle-b,wolfe_032_L_bottle-bs,146.324,-1,16,7248,249,148
A36FBIDN58N139,NA,NA,wolfe_048_L_art-a,wolfe_048_L_art-as,wolfe_048_L_art-b,wolfe_048_L_art-bs,155.445,-1,17,7682,27,231
A36FBIDN58N139,NA,NA,wolfe_084_L_light-a,wolfe_084_L_light-as,wolfe_084_L_light-b,wolfe_084_L_light-bs,163.501,-1,18,7118,141,161
A36FBIDN58N139,NA,NA,wolfe_026_L_rack-a,wolfe_026_L_rack-as,wolfe_026_L_rack-b,wolfe_026_L_rack-bs,171.452,-1,19,6974,49,287
A36FBIDN58N139,NA,NA,wolfe_062_L_flowers-a,wolfe_062_L_flowers-as,wolfe_062_L_flowers-b,wolfe_062_L_flowers-bs,181.366,-1,20,8529,229,160
A36FBIDN58N139,NA,NA,wolfe_036_L_bowl-a,wolfe_036_L_bowl-as,wolfe_036_L_bowl-b,wolfe_036_L_bowl-bs,189.317,-1,21,6910,307,202
A36FBIDN58N139,NA,NA,wolfe_100_L_mirror-a,wolfe_100_L_mirror-as,wolfe_100_L_mirror-b,wolfe_100_L_mirror-bs,197.173,-1,22,6967,327,288
A36FBIDN58N139,NA,NA,wolfe_031_L_log-a,wolfe_031_L_log-as,wolfe_031_L_log-b,wolfe_031_L_log-bs,207.029,-1,23,8016,283,371
A36FBIDN58N139,NA,NA,wolfe_097_L_light-a,wolfe_097_L_light-as,wolfe_097_L_light-b,wolfe_097_L_light-bs,215.326,-1,24,7081,336,185
A36FBIDN58N139,NA,NA,wolfe_089_L_poster-a,wolfe_089_L_poster-as,wolfe_089_L_poster-b,wolfe_089_L_poster-bs,223.904,-1,25,7808,305,145
A36FBIDN58N139,NA,NA,wolfe_011_L_parfum-a,wolfe_011_L_parfum-as,wolfe_011_L_parfum-b,wolfe_011_L_parfum-bs,232.476,-1,26,7389,303,157
A36FBIDN58N139,NA,NA,wolfe_075_L_light-a,wolfe_075_L_light-as,wolfe_075_L_light-b,wolfe_075_L_light-bs,240.572,-1,27,7042,143,44
A36FBIDN58N139,NA,NA,wolfe_007_L_soap-a,wolfe_007_L_soap-as,wolfe_007_L_soap-b,wolfe_007_L_soap-bs,249.933,-1,28,8249,570,261
A36FBIDN58N139,NA,NA,wolfe_043_L_clock-a,wolfe_043_L_clock-as,wolfe_043_L_clock-b,wolfe_043_L_clock-bs,258.085,-1,29,7113,214,214
A36FBIDN58N139,NA,NA,wolfe_069_L_things-a,wolfe_069_L_things-as,wolfe_069_L_things-b,wolfe_069_L_things-bs,265.94,-1,30,7004,61,129
A36FBIDN58N139,NA,NA,wolfe_056_L_comforter-a,wolfe_056_L_comforter-as,wolfe_056_L_comforter-b,wolfe_056_L_comforter-bs,273.52,-1,31,6838,177,344
A36FBIDN58N139,NA,NA,wolfe_052_L_speaker-a,wolfe_052_L_speaker-as,wolfe_052_L_speaker-b,wolfe_052_L_speaker-bs,284.59,-1,32,8170,55,371
A36FBIDN58N139,NA,NA,catchCow-a,catchCow-as,catchCow-b,catchCow-bs,292.552,-1,33,6963,395,260
