workerId,assignmentId,hitId,unmod_image,unmod_image_splash,mod_image,mod_image_splash,expTimer,response,trial_number,rt,x,y
A3MYPYBVHX7FQ2,NA,NA,catchAirplane-a,catchAirplane-as,catchAirplane-b,catchAirplane-bs,116.513,-1,1,51174,400,298
A3MYPYBVHX7FQ2,NA,NA,catchBoat-a,catchBoat-as,catchBoat-b,catchBoat-bs,188.938,-1,2,60000,485,238
A3MYPYBVHX7FQ2,NA,NA,wolfe_018_L_plant-a,wolfe_018_L_plant-as,wolfe_018_L_plant-b,wolfe_018_L_plant-bs,214.362,-1,3,23244,88,243
A3MYPYBVHX7FQ2,NA,NA,wolfe_049_L_painting-a,wolfe_049_L_painting-as,wolfe_049_L_painting-b,wolfe_049_L_painting-bs,227.111,-1,4,11078,140,131
A3MYPYBVHX7FQ2,NA,NA,wolfe_012_L_tubaccesory-a,wolfe_012_L_tubaccesory-as,wolfe_012_L_tubaccesory-b,wolfe_012_L_tubaccesory-bs,246.445,-1,5,15256,225,352
A3MYPYBVHX7FQ2,NA,NA,wolfe_064_L_bottles-a,wolfe_064_L_bottles-as,wolfe_064_L_bottles-b,wolfe_064_L_bottles-bs,257.579,-1,6,8943,117,223
A3MYPYBVHX7FQ2,NA,NA,wolfe_026_L_rack-a,wolfe_026_L_rack-as,wolfe_026_L_rack-b,wolfe_026_L_rack-bs,271.833,-1,7,12925,63,254
A3MYPYBVHX7FQ2,NA,NA,wolfe_097_L_light-a,wolfe_097_L_light-as,wolfe_097_L_light-b,wolfe_097_L_light-bs,280.291,-1,8,7175,321,188
A3MYPYBVHX7FQ2,NA,NA,wolfe_114_L_bird-a,wolfe_114_L_bird-as,wolfe_114_L_bird-b,wolfe_114_L_bird-bs,290.208,-1,9,8599,294,356
A3MYPYBVHX7FQ2,NA,NA,wolfe_108_L_boa-a,wolfe_108_L_boa-as,wolfe_108_L_boa-b,wolfe_108_L_boa-bs,298.842,-1,10,6816,308,220
A3MYPYBVHX7FQ2,NA,NA,wolfe_021_L_keyboard-a,wolfe_021_L_keyboard-as,wolfe_021_L_keyboard-b,wolfe_021_L_keyboard-bs,319.26,-1,11,19497,129,345
A3MYPYBVHX7FQ2,NA,NA,wolfe_020_L_walldeco-a,wolfe_020_L_walldeco-as,wolfe_020_L_walldeco-b,wolfe_020_L_walldeco-bs,334.16,-1,12,12958,8,145
A3MYPYBVHX7FQ2,NA,NA,wolfe_058_L_clutch-a,wolfe_058_L_clutch-as,wolfe_058_L_clutch-b,wolfe_058_L_clutch-bs,351.434,-1,13,14989,199,375
A3MYPYBVHX7FQ2,NA,NA,wolfe_083_L_knob-a,wolfe_083_L_knob-as,wolfe_083_L_knob-b,wolfe_083_L_knob-bs,395.413,-1,14,42559,77,376
A3MYPYBVHX7FQ2,NA,NA,wolfe_113_L_plant-a,wolfe_113_L_plant-as,wolfe_113_L_plant-b,wolfe_113_L_plant-bs,406.941,-1,15,9027,308,264
A3MYPYBVHX7FQ2,NA,NA,wolfe_119_L_painting-a,wolfe_119_L_painting-as,wolfe_119_L_painting-b,wolfe_119_L_painting-bs,417.635,-1,16,8751,250,244
A3MYPYBVHX7FQ2,NA,NA,wolfe_005_L_mirror-a,wolfe_005_L_mirror-as,wolfe_005_L_mirror-b,wolfe_005_L_mirror-bs,425.317,-1,17,6874,157,241
A3MYPYBVHX7FQ2,NA,NA,wolfe_118_L_shoes-a,wolfe_118_L_shoes-as,wolfe_118_L_shoes-b,wolfe_118_L_shoes-bs,443.946,-1,18,17560,272,354
A3MYPYBVHX7FQ2,NA,NA,wolfe_038_L_art-a,wolfe_038_L_art-as,wolfe_038_L_art-b,wolfe_038_L_art-bs,451.876,-1,19,7050,304,175
A3MYPYBVHX7FQ2,NA,NA,wolfe_002_L_napkin-a,wolfe_002_L_napkin-as,wolfe_002_L_napkin-b,wolfe_002_L_napkin-bs,460.108,-1,20,6881,267,408
A3MYPYBVHX7FQ2,NA,NA,wolfe_041_L_fruit-a,wolfe_041_L_fruit-as,wolfe_041_L_fruit-b,wolfe_041_L_fruit-bs,480.68,-1,21,19287,43,341
A3MYPYBVHX7FQ2,NA,NA,wolfe_111_L_pot-a,wolfe_111_L_pot-as,wolfe_111_L_pot-b,wolfe_111_L_pot-bs,489.508,-1,22,6855,219,362
A3MYPYBVHX7FQ2,NA,NA,wolfe_032_L_bottle-a,wolfe_032_L_bottle-as,wolfe_032_L_bottle-b,wolfe_032_L_bottle-bs,497.53,-1,23,6837,253,148
A3MYPYBVHX7FQ2,NA,NA,wolfe_105_L_hat-a,wolfe_105_L_hat-as,wolfe_105_L_hat-b,wolfe_105_L_hat-bs,513.554,-1,24,14986,103,434
A3MYPYBVHX7FQ2,NA,NA,wolfe_127_L_light-a,wolfe_127_L_light-as,wolfe_127_L_light-b,wolfe_127_L_light-bs,535.981,-1,25,21010,208,206
A3MYPYBVHX7FQ2,NA,NA,wolfe_017_L_wood-a,wolfe_017_L_wood-as,wolfe_017_L_wood-b,wolfe_017_L_wood-bs,559.021,-1,26,21462,36,324
A3MYPYBVHX7FQ2,NA,NA,wolfe_059_L_car-a,wolfe_059_L_car-as,wolfe_059_L_car-b,wolfe_059_L_car-bs,579.638,-1,27,19461,222,161
A3MYPYBVHX7FQ2,NA,NA,wolfe_028_L_vase-a,wolfe_028_L_vase-as,wolfe_028_L_vase-b,wolfe_028_L_vase-bs,591.63,-1,28,10928,181,294
A3MYPYBVHX7FQ2,NA,NA,wolfe_016_L_art-a,wolfe_016_L_art-as,wolfe_016_L_art-b,wolfe_016_L_art-bs,599.584,-1,29,6896,47,197
A3MYPYBVHX7FQ2,NA,NA,wolfe_112_L_basket-a,wolfe_112_L_basket-as,wolfe_112_L_basket-b,wolfe_112_L_basket-bs,610.888,-1,30,10714,63,403
A3MYPYBVHX7FQ2,NA,NA,wolfe_009_L_carpet-a,wolfe_009_L_carpet-as,wolfe_009_L_carpet-b,wolfe_009_L_carpet-bs,626.888,-1,31,15194,228,441
A3MYPYBVHX7FQ2,NA,NA,wolfe_060_L_pillow-a,wolfe_060_L_pillow-as,wolfe_060_L_pillow-b,wolfe_060_L_pillow-bs,637.218,-1,32,8906,271,288
A3MYPYBVHX7FQ2,NA,NA,catchCow-a,catchCow-as,catchCow-b,catchCow-bs,645.226,-1,33,7004,396,233
