workerId,assignmentId,hitId,unmod_image,unmod_image_splash,mod_image,mod_image_splash,expTimer,response,trial_number,rt,x,y
AFCMHQWCV6N02,NA,NA,catchAirplane-a,catchAirplane-as,catchAirplane-b,catchAirplane-bs,103.021,-1,1,16955,305,239
AFCMHQWCV6N02,NA,NA,catchBoat-a,catchBoat-as,catchBoat-b,catchBoat-bs,112.239,-1,2,7181,443,264
AFCMHQWCV6N02,NA,NA,wolfe_127_L_light-a,wolfe_127_L_light-as,wolfe_127_L_light-b,wolfe_127_L_light-bs,120.768,-1,3,5558,400,209
AFCMHQWCV6N02,NA,NA,wolfe_037_L_towel-a,wolfe_037_L_towel-as,wolfe_037_L_towel-b,wolfe_037_L_towel-bs,154.949,-1,4,31707,324,226
AFCMHQWCV6N02,NA,NA,wolfe_045_L_musicdock-a,wolfe_045_L_musicdock-as,wolfe_045_L_musicdock-b,wolfe_045_L_musicdock-bs,174.082,-1,5,17464,84,274
AFCMHQWCV6N02,NA,NA,wolfe_046_L_remote-a,wolfe_046_L_remote-as,wolfe_046_L_remote-b,wolfe_046_L_remote-bs,189.422,-1,6,12851,301,323
AFCMHQWCV6N02,NA,NA,wolfe_111_L_pot-a,wolfe_111_L_pot-as,wolfe_111_L_pot-b,wolfe_111_L_pot-bs,200.143,-1,7,9144,201,375
AFCMHQWCV6N02,NA,NA,wolfe_073_L_coffeemug-a,wolfe_073_L_coffeemug-as,wolfe_073_L_coffeemug-b,wolfe_073_L_coffeemug-bs,213.496,-1,8,10541,44,225
AFCMHQWCV6N02,NA,NA,wolfe_015_L_ceilinglight-a,wolfe_015_L_ceilinglight-as,wolfe_015_L_ceilinglight-b,wolfe_015_L_ceilinglight-bs,247.127,-1,9,31663,94,80
AFCMHQWCV6N02,NA,NA,wolfe_098_L_slippers-a,wolfe_098_L_slippers-as,wolfe_098_L_slippers-b,wolfe_098_L_slippers-bs,257.852,-1,10,10125,264,373
AFCMHQWCV6N02,NA,NA,wolfe_042_L_tap-a,wolfe_042_L_tap-as,wolfe_042_L_tap-b,wolfe_042_L_tap-bs,298.227,-1,11,38277,321,228
AFCMHQWCV6N02,NA,NA,wolfe_022_L_lamp-a,wolfe_022_L_lamp-as,wolfe_022_L_lamp-b,wolfe_022_L_lamp-bs,308.682,-1,12,8765,247,63
AFCMHQWCV6N02,NA,NA,wolfe_072_L_handle-a,wolfe_072_L_handle-as,wolfe_072_L_handle-b,wolfe_072_L_handle-bs,319.471,-1,13,9167,102,436
AFCMHQWCV6N02,NA,NA,wolfe_066_L_vase-a,wolfe_066_L_vase-as,wolfe_066_L_vase-b,wolfe_066_L_vase-bs,328.311,-1,14,6883,74,173
AFCMHQWCV6N02,NA,NA,wolfe_124_L_vase-a,wolfe_124_L_vase-as,wolfe_124_L_vase-b,wolfe_124_L_vase-bs,336.314,-1,15,6790,169,386
AFCMHQWCV6N02,NA,NA,wolfe_053_L_handle-a,wolfe_053_L_handle-as,wolfe_053_L_handle-b,wolfe_053_L_handle-bs,350.779,-1,16,12904,160,333
AFCMHQWCV6N02,NA,NA,wolfe_007_L_soap-a,wolfe_007_L_soap-as,wolfe_007_L_soap-b,wolfe_007_L_soap-bs,361.339,-1,17,8721,167,493
AFCMHQWCV6N02,NA,NA,wolfe_024_L_towels-a,wolfe_024_L_towels-as,wolfe_024_L_towels-b,wolfe_024_L_towels-bs,374.243,-1,18,11102,281,418
AFCMHQWCV6N02,NA,NA,wolfe_125_L_sofa-a,wolfe_125_L_sofa-as,wolfe_125_L_sofa-b,wolfe_125_L_sofa-bs,384.112,-1,19,8553,98,347
AFCMHQWCV6N02,NA,NA,wolfe_062_L_flowers-a,wolfe_062_L_flowers-as,wolfe_062_L_flowers-b,wolfe_062_L_flowers-bs,396.813,-1,20,10504,113,280
AFCMHQWCV6N02,NA,NA,wolfe_041_L_fruit-a,wolfe_041_L_fruit-as,wolfe_041_L_fruit-b,wolfe_041_L_fruit-bs,409.233,-1,21,10201,62,326
AFCMHQWCV6N02,NA,NA,wolfe_109_L_pillow-a,wolfe_109_L_pillow-as,wolfe_109_L_pillow-b,wolfe_109_L_pillow-bs,420.096,-1,22,9231,266,290
AFCMHQWCV6N02,NA,NA,wolfe_044_L_light-a,wolfe_044_L_light-as,wolfe_044_L_light-b,wolfe_044_L_light-bs,432.955,-1,23,10633,290,378
AFCMHQWCV6N02,NA,NA,wolfe_086_L_book-a,wolfe_086_L_book-as,wolfe_086_L_book-b,wolfe_086_L_book-bs,447.381,-1,24,12848,251,307
AFCMHQWCV6N02,NA,NA,wolfe_118_L_shoes-a,wolfe_118_L_shoes-as,wolfe_118_L_shoes-b,wolfe_118_L_shoes-bs,460.208,-1,25,9662,272,355
AFCMHQWCV6N02,NA,NA,wolfe_106_L_toweldispenser-a,wolfe_106_L_toweldispenser-as,wolfe_106_L_toweldispenser-b,wolfe_106_L_toweldispenser-bs,470.719,-1,26,8901,254,136
AFCMHQWCV6N02,NA,NA,wolfe_095_L_candle-a,wolfe_095_L_candle-as,wolfe_095_L_candle-b,wolfe_095_L_candle-bs,481.335,-1,27,8463,203,285
AFCMHQWCV6N02,NA,NA,wolfe_110_L_plant-a,wolfe_110_L_plant-as,wolfe_110_L_plant-b,wolfe_110_L_plant-bs,491.835,-1,28,8857,198,348
AFCMHQWCV6N02,NA,NA,wolfe_071_L_art-a,wolfe_071_L_art-as,wolfe_071_L_art-b,wolfe_071_L_art-bs,502.904,-1,29,8741,160,271
AFCMHQWCV6N02,NA,NA,wolfe_122_L_chair-a,wolfe_122_L_chair-as,wolfe_122_L_chair-b,wolfe_122_L_chair-bs,513.191,-1,30,8636,260,154
AFCMHQWCV6N02,NA,NA,wolfe_078_L_faucet-a,wolfe_078_L_faucet-as,wolfe_078_L_faucet-b,wolfe_078_L_faucet-bs,525.55,-1,31,10617,268,370
AFCMHQWCV6N02,NA,NA,wolfe_034_L_handle-a,wolfe_034_L_handle-as,wolfe_034_L_handle-b,wolfe_034_L_handle-bs,534.912,-1,32,7432,97,329
AFCMHQWCV6N02,NA,NA,catchCow-a,catchCow-as,catchCow-b,catchCow-bs,544.552,-1,33,8475,453,198
