consent_response.keys,consent_response.rt,key_resp_2.keys,key_resp_2.rt,user_resp.keys,user_resp.rt,trials.thisRepN,trials.thisTrialN,trials.thisN,trials.thisIndex,trials.ran,image_1_text,image_2_text,database,image,number,age,worker_ID,date,expName,psychopyVersion,OS,frameRate,hitId,workerId,assignmentId,a,tp_a,b,tp_b,c,tp_c,catch_same_resp.keys,catch_same_resp.rt,image_1_text_catch_same,image_2_text_catch_same,image_catch_same,catch_different_resp.keys,catch_different_resp.rt,image_1_text_catch_different,image_2_text_catch_different,image_catch_different
space,6.425,space,22.584,1,10.194,0,0,0,2,1,no cell towers are appears,there is a cell tower are appear,wolfe2,004_R_electricalgrid,1,46,A12XVSIL669PVI,2021-01-26_10h34.12.802,MetaAwareness,2020.1.2,Linux x86_64,60,33CLA8O0MJEFZCOY1H6L2OHK6PWFRG,A12XVSIL669PVI,3QXNC7EIPJYLKSBGUKSGWFPAKIB90V,ICXQ5,ICXQ5,3QXNC7EIPJYLKSBGUKSGWFPAKIB90V,3QXNC7EIPJYLKSBGUKSGWFPAKIB90V,271465,271465,,,,,,,,,,
,,,,5,9.318,0,1,1,20,1,a beautiful white sofa,a beautiful white sofa with a towel at the end of sofa.,wolfe2,056_L_comforter,4,46,A12XVSIL669PVI,2021-01-26_10h34.12.802,MetaAwareness,2020.1.2,Linux x86_64,60,33CLA8O0MJEFZCOY1H6L2OHK6PWFRG,A12XVSIL669PVI,3QXNC7EIPJYLKSBGUKSGWFPAKIB90V,ICXQ5,ICXQ5,3QXNC7EIPJYLKSBGUKSGWFPAKIB90V,3QXNC7EIPJYLKSBGUKSGWFPAKIB90V,271465,271465,,,,,,,,,,
,,,,4,7.937,0,2,2,16,1,this dining room is cozy and has a nice little table as well as plenty of natural light.,"this dining room has a lovely view of the outside, as well as a small but comfortable looking table set. on the wall there is a quaint looking piece of art that almost looks like a puzzle piece.",wolfe2,038_L_art,2,46,A12XVSIL669PVI,2021-01-26_10h34.12.802,MetaAwareness,2020.1.2,Linux x86_64,60,33CLA8O0MJEFZCOY1H6L2OHK6PWFRG,A12XVSIL669PVI,3QXNC7EIPJYLKSBGUKSGWFPAKIB90V,ICXQ5,ICXQ5,3QXNC7EIPJYLKSBGUKSGWFPAKIB90V,3QXNC7EIPJYLKSBGUKSGWFPAKIB90V,271465,271465,,,,,,,,,,
,,,,4,21.418,0,3,3,37,1,this comfy cafe has large plush chairs and small tables. on top of each table is a nice candle.,"each table in this lovely and small cafe has a small candle on top of it. there is also a small vase on the second table from center, it appears to be brown or black.",wolfe2,104_L_bottle,3,46,A12XVSIL669PVI,2021-01-26_10h34.12.802,MetaAwareness,2020.1.2,Linux x86_64,60,33CLA8O0MJEFZCOY1H6L2OHK6PWFRG,A12XVSIL669PVI,3QXNC7EIPJYLKSBGUKSGWFPAKIB90V,ICXQ5,ICXQ5,3QXNC7EIPJYLKSBGUKSGWFPAKIB90V,3QXNC7EIPJYLKSBGUKSGWFPAKIB90V,271465,271465,,,,,,,,,,
,,,,5,9.413,0,4,4,4,1,nice family blue bathroom,modern blue clean bathroom,wolfe2,008_R_bottle,6,46,A12XVSIL669PVI,2021-01-26_10h34.12.802,MetaAwareness,2020.1.2,Linux x86_64,60,33CLA8O0MJEFZCOY1H6L2OHK6PWFRG,A12XVSIL669PVI,3QXNC7EIPJYLKSBGUKSGWFPAKIB90V,ICXQ5,ICXQ5,3QXNC7EIPJYLKSBGUKSGWFPAKIB90V,3QXNC7EIPJYLKSBGUKSGWFPAKIB90V,271465,271465,,,,,,,,,,
,,,,3,10.167,0,5,5,5,1,a fully furnished bedroom with two candles,a fully furnised bedroom with three candles,wolfe2,010_R_candle,5,46,A12XVSIL669PVI,2021-01-26_10h34.12.802,MetaAwareness,2020.1.2,Linux x86_64,60,33CLA8O0MJEFZCOY1H6L2OHK6PWFRG,A12XVSIL669PVI,3QXNC7EIPJYLKSBGUKSGWFPAKIB90V,ICXQ5,ICXQ5,3QXNC7EIPJYLKSBGUKSGWFPAKIB90V,3QXNC7EIPJYLKSBGUKSGWFPAKIB90V,271465,271465,,,,,,,,,,
,,,,5,9.205,0,6,6,42,1,"a living room with cream-color furnature, a white fireplace, large windows, and a decorative item on the fireplace mantle","a living room with cream color furnature, a white fireplace with a white mantle, large windows, and tan walls",wolfe2,120_R_art,1,46,A12XVSIL669PVI,2021-01-26_10h34.12.802,MetaAwareness,2020.1.2,Linux x86_64,60,33CLA8O0MJEFZCOY1H6L2OHK6PWFRG,A12XVSIL669PVI,3QXNC7EIPJYLKSBGUKSGWFPAKIB90V,ICXQ5,ICXQ5,3QXNC7EIPJYLKSBGUKSGWFPAKIB90V,3QXNC7EIPJYLKSBGUKSGWFPAKIB90V,271465,271465,,,,,,,,,,
,,,,5,12.686,0,7,7,9,1,an outside porch with two chairs and one plant against the windows of the house,an outside porch with two chairs and two plants against the wall of the house,wolfe2,018_R_plant,2,46,A12XVSIL669PVI,2021-01-26_10h34.12.802,MetaAwareness,2020.1.2,Linux x86_64,60,33CLA8O0MJEFZCOY1H6L2OHK6PWFRG,A12XVSIL669PVI,3QXNC7EIPJYLKSBGUKSGWFPAKIB90V,ICXQ5,ICXQ5,3QXNC7EIPJYLKSBGUKSGWFPAKIB90V,3QXNC7EIPJYLKSBGUKSGWFPAKIB90V,271465,271465,,,,,,,,,,
,,,,3,11.816,0,8,8,1,1,a set table that is missing one orange napkin in a dining hall,a set table with orange napkins on all settings in a dining hall,wolfe2,002_R_napkin,1,46,A12XVSIL669PVI,2021-01-26_10h34.12.802,MetaAwareness,2020.1.2,Linux x86_64,60,33CLA8O0MJEFZCOY1H6L2OHK6PWFRG,A12XVSIL669PVI,3QXNC7EIPJYLKSBGUKSGWFPAKIB90V,ICXQ5,ICXQ5,3QXNC7EIPJYLKSBGUKSGWFPAKIB90V,3QXNC7EIPJYLKSBGUKSGWFPAKIB90V,271465,271465,,,,,,,,,,
,,,,3,9.568,0,9,9,12,1,the glass was very nice to see and i like that colour there are 2 glass,the glass are very nice to see and ther are num_3 glass,wolfe2,029_L_glass,2,46,A12XVSIL669PVI,2021-01-26_10h34.12.802,MetaAwareness,2020.1.2,Linux x86_64,60,33CLA8O0MJEFZCOY1H6L2OHK6PWFRG,A12XVSIL669PVI,3QXNC7EIPJYLKSBGUKSGWFPAKIB90V,ICXQ5,ICXQ5,3QXNC7EIPJYLKSBGUKSGWFPAKIB90V,3QXNC7EIPJYLKSBGUKSGWFPAKIB90V,271465,271465,,,,,,,,,,
,,,,1,14.373,0,10,10,18,1,a bedroom with no pictures near the mirror.,a bedroom with a picture hanging near the mirror.,wolfe2,049_R_painting,2,46,A12XVSIL669PVI,2021-01-26_10h34.12.802,MetaAwareness,2020.1.2,Linux x86_64,60,33CLA8O0MJEFZCOY1H6L2OHK6PWFRG,A12XVSIL669PVI,3QXNC7EIPJYLKSBGUKSGWFPAKIB90V,ICXQ5,ICXQ5,3QXNC7EIPJYLKSBGUKSGWFPAKIB90V,3QXNC7EIPJYLKSBGUKSGWFPAKIB90V,271465,271465,,,,,,,,,,
,,,,5,10.883,0,11,11,34,1,"a large bathroom with red walls, lots of sinks and mirrors and a white object high up on the back wall",a large bathroom with red walls and lots of sinks and mirrors,wolfe2,091_R_airfreshener,4,46,A12XVSIL669PVI,2021-01-26_10h34.12.802,MetaAwareness,2020.1.2,Linux x86_64,60,33CLA8O0MJEFZCOY1H6L2OHK6PWFRG,A12XVSIL669PVI,3QXNC7EIPJYLKSBGUKSGWFPAKIB90V,ICXQ5,ICXQ5,3QXNC7EIPJYLKSBGUKSGWFPAKIB90V,3QXNC7EIPJYLKSBGUKSGWFPAKIB90V,271465,271465,,,,,,,,,,
,,,,5,15.013,0,12,12,22,1,there is a white vase and tray next to the mirror on this desk.,"there is a white vase, tray and lantern next to the mirror on this desk.",wolfe2,064_R_bottles,1,46,A12XVSIL669PVI,2021-01-26_10h34.12.802,MetaAwareness,2020.1.2,Linux x86_64,60,33CLA8O0MJEFZCOY1H6L2OHK6PWFRG,A12XVSIL669PVI,3QXNC7EIPJYLKSBGUKSGWFPAKIB90V,ICXQ5,ICXQ5,3QXNC7EIPJYLKSBGUKSGWFPAKIB90V,3QXNC7EIPJYLKSBGUKSGWFPAKIB90V,271465,271465,,,,,,,,,,
,,,,5,10.721,0,13,13,26,1,"a white, bright, upscale living room with one light fixture next to the mirror","a white, bright, upscale living room with a light fixture on either side of the mirror",wolfe2,070_R_lamp,5,46,A12XVSIL669PVI,2021-01-26_10h34.12.802,MetaAwareness,2020.1.2,Linux x86_64,60,33CLA8O0MJEFZCOY1H6L2OHK6PWFRG,A12XVSIL669PVI,3QXNC7EIPJYLKSBGUKSGWFPAKIB90V,ICXQ5,ICXQ5,3QXNC7EIPJYLKSBGUKSGWFPAKIB90V,3QXNC7EIPJYLKSBGUKSGWFPAKIB90V,271465,271465,,,,,,,,,,
,,,,2,11.682,0,14,14,7,1,a large living room in neutral tones with no light directly over the coffee table,a large living room in neutral tones with a light directly over the coffee table,wolfe2,015_L_ceilinglight,4,46,A12XVSIL669PVI,2021-01-26_10h34.12.802,MetaAwareness,2020.1.2,Linux x86_64,60,33CLA8O0MJEFZCOY1H6L2OHK6PWFRG,A12XVSIL669PVI,3QXNC7EIPJYLKSBGUKSGWFPAKIB90V,ICXQ5,ICXQ5,3QXNC7EIPJYLKSBGUKSGWFPAKIB90V,3QXNC7EIPJYLKSBGUKSGWFPAKIB90V,271465,271465,,,,,,,,,,
,,,,2,17.507,0,15,15,17,1,large living or entretainment room with multiple screens and sofas,living room with a decoration on the left shelf close to the television,wolfe2,043_L_clock,2,46,A12XVSIL669PVI,2021-01-26_10h34.12.802,MetaAwareness,2020.1.2,Linux x86_64,60,33CLA8O0MJEFZCOY1H6L2OHK6PWFRG,A12XVSIL669PVI,3QXNC7EIPJYLKSBGUKSGWFPAKIB90V,ICXQ5,ICXQ5,3QXNC7EIPJYLKSBGUKSGWFPAKIB90V,3QXNC7EIPJYLKSBGUKSGWFPAKIB90V,271465,271465,,,,,,,,,,
,,,,1,8.416,0,16,16,23,1,a nice appartment with simple colors,an object missing from the room but i am unsure of what the object is,wolfe2,066_R_vase,3,46,A12XVSIL669PVI,2021-01-26_10h34.12.802,MetaAwareness,2020.1.2,Linux x86_64,60,33CLA8O0MJEFZCOY1H6L2OHK6PWFRG,A12XVSIL669PVI,3QXNC7EIPJYLKSBGUKSGWFPAKIB90V,ICXQ5,ICXQ5,3QXNC7EIPJYLKSBGUKSGWFPAKIB90V,3QXNC7EIPJYLKSBGUKSGWFPAKIB90V,271465,271465,,,,,,,,,,
,,,,3,13.401,0,17,17,13,1,"a modern bathroom with twin rectangular sinks, a glass shower and shelving. the shelf above the left sink has two red glasses","a modern bathroom with twin rectangular sinks, a glass shower and shelving.  the shelf above the left sink has three glasses.",wolfe2,029_L_glass,3,46,A12XVSIL669PVI,2021-01-26_10h34.12.802,MetaAwareness,2020.1.2,Linux x86_64,60,33CLA8O0MJEFZCOY1H6L2OHK6PWFRG,A12XVSIL669PVI,3QXNC7EIPJYLKSBGUKSGWFPAKIB90V,ICXQ5,ICXQ5,3QXNC7EIPJYLKSBGUKSGWFPAKIB90V,3QXNC7EIPJYLKSBGUKSGWFPAKIB90V,271465,271465,,,,,,,,,,
,,,,5,11.279,0,18,18,36,1,this bathroom has a modern design and both wine glasses and a jar,you can find two wine glasses in this modern bathroom,wolfe2,101_R_cup,3,46,A12XVSIL669PVI,2021-01-26_10h34.12.802,MetaAwareness,2020.1.2,Linux x86_64,60,33CLA8O0MJEFZCOY1H6L2OHK6PWFRG,A12XVSIL669PVI,3QXNC7EIPJYLKSBGUKSGWFPAKIB90V,ICXQ5,ICXQ5,3QXNC7EIPJYLKSBGUKSGWFPAKIB90V,3QXNC7EIPJYLKSBGUKSGWFPAKIB90V,271465,271465,,,,,,,,,,
,,,,5,8.523,0,19,19,3,1,blue bathroom with window shelf,blue bathroom with window shelf with bottle on shelf,wolfe2,008_L_bottle,1,46,A12XVSIL669PVI,2021-01-26_10h34.12.802,MetaAwareness,2020.1.2,Linux x86_64,60,33CLA8O0MJEFZCOY1H6L2OHK6PWFRG,A12XVSIL669PVI,3QXNC7EIPJYLKSBGUKSGWFPAKIB90V,ICXQ5,ICXQ5,3QXNC7EIPJYLKSBGUKSGWFPAKIB90V,3QXNC7EIPJYLKSBGUKSGWFPAKIB90V,271465,271465,,,,,,,,,,
,,,,3,12.878,0,20,20,27,1,a sitting room crowded with furniture and an empty spot to the right of one of the lamps.,a sitting room crowded with furniture and a vase next to one of the lamps.,wolfe2,071_L_art,1,46,A12XVSIL669PVI,2021-01-26_10h34.12.802,MetaAwareness,2020.1.2,Linux x86_64,60,33CLA8O0MJEFZCOY1H6L2OHK6PWFRG,A12XVSIL669PVI,3QXNC7EIPJYLKSBGUKSGWFPAKIB90V,ICXQ5,ICXQ5,3QXNC7EIPJYLKSBGUKSGWFPAKIB90V,3QXNC7EIPJYLKSBGUKSGWFPAKIB90V,271465,271465,,,,,,,,,,
,,,,5,7.827,0,21,21,29,1,a pristine sitting room with a coffee table that holds multiple plants,a pristine sitting room with a coffee table that holds multiple plants and a book,wolfe2,074_R_book,1,46,A12XVSIL669PVI,2021-01-26_10h34.12.802,MetaAwareness,2020.1.2,Linux x86_64,60,33CLA8O0MJEFZCOY1H6L2OHK6PWFRG,A12XVSIL669PVI,3QXNC7EIPJYLKSBGUKSGWFPAKIB90V,ICXQ5,ICXQ5,3QXNC7EIPJYLKSBGUKSGWFPAKIB90V,3QXNC7EIPJYLKSBGUKSGWFPAKIB90V,271465,271465,,,,,,,,,,
,,,,3,7.461,0,22,22,14,1,a bottle sitting on a circular structure and shelf,two bottles sitting on a floating shelf,wolfe2,032_R_bottle,6,46,A12XVSIL669PVI,2021-01-26_10h34.12.802,MetaAwareness,2020.1.2,Linux x86_64,60,33CLA8O0MJEFZCOY1H6L2OHK6PWFRG,A12XVSIL669PVI,3QXNC7EIPJYLKSBGUKSGWFPAKIB90V,ICXQ5,ICXQ5,3QXNC7EIPJYLKSBGUKSGWFPAKIB90V,3QXNC7EIPJYLKSBGUKSGWFPAKIB90V,271465,271465,,,,,,,,,,
,,,,5,8.492,0,23,23,33,1,a hair salon with paintings on thewall,a hair salon with two paintings on the wall,wolfe2,089_R_poster,4,46,A12XVSIL669PVI,2021-01-26_10h34.12.802,MetaAwareness,2020.1.2,Linux x86_64,60,33CLA8O0MJEFZCOY1H6L2OHK6PWFRG,A12XVSIL669PVI,3QXNC7EIPJYLKSBGUKSGWFPAKIB90V,ICXQ5,ICXQ5,3QXNC7EIPJYLKSBGUKSGWFPAKIB90V,3QXNC7EIPJYLKSBGUKSGWFPAKIB90V,271465,271465,,,,,,,,,,
,,,,4,8.708,0,24,24,21,1,"a dining room with four chairs, a table and five wine glasses","a dining room with four chairs, a table, and six wine glasses.",wolfe2,061_R_glass,2,46,A12XVSIL669PVI,2021-01-26_10h34.12.802,MetaAwareness,2020.1.2,Linux x86_64,60,33CLA8O0MJEFZCOY1H6L2OHK6PWFRG,A12XVSIL669PVI,3QXNC7EIPJYLKSBGUKSGWFPAKIB90V,ICXQ5,ICXQ5,3QXNC7EIPJYLKSBGUKSGWFPAKIB90V,3QXNC7EIPJYLKSBGUKSGWFPAKIB90V,271465,271465,,,,,,,,,,
,,,,2,11.552,0,25,25,11,1,a family lounge area of middle class flavor,the remote control for the family tv room,wolfe2,023_L_remote,7,46,A12XVSIL669PVI,2021-01-26_10h34.12.802,MetaAwareness,2020.1.2,Linux x86_64,60,33CLA8O0MJEFZCOY1H6L2OHK6PWFRG,A12XVSIL669PVI,3QXNC7EIPJYLKSBGUKSGWFPAKIB90V,ICXQ5,ICXQ5,3QXNC7EIPJYLKSBGUKSGWFPAKIB90V,3QXNC7EIPJYLKSBGUKSGWFPAKIB90V,271465,271465,,,,,,,,,,
,,,,3,8.972,0,26,26,0,1,a wedding reception with a napkin at every place setting.,a wedding reception with a napkin missing from one of the place settings.,wolfe2,002_L_napkin,4,46,A12XVSIL669PVI,2021-01-26_10h34.12.802,MetaAwareness,2020.1.2,Linux x86_64,60,33CLA8O0MJEFZCOY1H6L2OHK6PWFRG,A12XVSIL669PVI,3QXNC7EIPJYLKSBGUKSGWFPAKIB90V,ICXQ5,ICXQ5,3QXNC7EIPJYLKSBGUKSGWFPAKIB90V,3QXNC7EIPJYLKSBGUKSGWFPAKIB90V,271465,271465,,,,,,,,,,
,,,,3,4.297,0,27,27,6,1,a dining area froma  restaurant with three lights on the wall,a dining area from a restaurant with four lights on the wall,wolfe2,014_R_lamp,3,46,A12XVSIL669PVI,2021-01-26_10h34.12.802,MetaAwareness,2020.1.2,Linux x86_64,60,33CLA8O0MJEFZCOY1H6L2OHK6PWFRG,A12XVSIL669PVI,3QXNC7EIPJYLKSBGUKSGWFPAKIB90V,ICXQ5,ICXQ5,3QXNC7EIPJYLKSBGUKSGWFPAKIB90V,3QXNC7EIPJYLKSBGUKSGWFPAKIB90V,271465,271465,,,,,,,,,,
,,,,3,7.565,0,28,28,32,1,a beach side living room with no decorations on the wall,a beach side living room with lights as decorations on the wall,wolfe2,084_L_light,5,46,A12XVSIL669PVI,2021-01-26_10h34.12.802,MetaAwareness,2020.1.2,Linux x86_64,60,33CLA8O0MJEFZCOY1H6L2OHK6PWFRG,A12XVSIL669PVI,3QXNC7EIPJYLKSBGUKSGWFPAKIB90V,ICXQ5,ICXQ5,3QXNC7EIPJYLKSBGUKSGWFPAKIB90V,3QXNC7EIPJYLKSBGUKSGWFPAKIB90V,271465,271465,,,,,,,,,,
,,,,1,11.141,0,29,29,28,1,a nice living room without a flower vessel on top of the cupboards,a nice living room with a flower vessel on top of the cupboard,wolfe2,071_L_art,4,46,A12XVSIL669PVI,2021-01-26_10h34.12.802,MetaAwareness,2020.1.2,Linux x86_64,60,33CLA8O0MJEFZCOY1H6L2OHK6PWFRG,A12XVSIL669PVI,3QXNC7EIPJYLKSBGUKSGWFPAKIB90V,ICXQ5,ICXQ5,3QXNC7EIPJYLKSBGUKSGWFPAKIB90V,3QXNC7EIPJYLKSBGUKSGWFPAKIB90V,271465,271465,,,,,,,,,,
,,,,,,,,,,,,,,,,46,A12XVSIL669PVI,2021-01-26_10h34.12.802,MetaAwareness,2020.1.2,Linux x86_64,60,33CLA8O0MJEFZCOY1H6L2OHK6PWFRG,A12XVSIL669PVI,3QXNC7EIPJYLKSBGUKSGWFPAKIB90V,ICXQ5,ICXQ5,3QXNC7EIPJYLKSBGUKSGWFPAKIB90V,3QXNC7EIPJYLKSBGUKSGWFPAKIB90V,271465,271465,6,17.655,someone laying underneath a blue beach umbrella on a crowded beach,someone laying underneath a blue beach umbrella on a crowded beach,same,1,8.103,members of a marching band crossing a track that all have feather plumes at the front of their hats,a cluttered and rustic looking cafe with 10 hanging lights,different
