consent_response.keys,consent_response.rt,key_resp_2.keys,key_resp_2.rt,user_resp.keys,user_resp.rt,trials.thisRepN,trials.thisTrialN,trials.thisN,trials.thisIndex,trials.ran,image_1_text,image_2_text,database,image,number,age,worker_ID,date,expName,psychopyVersion,OS,frameRate,hitId,workerId,assignmentId,a,tp_a,b,tp_b,c,tp_c,catch_same_resp.keys,catch_same_resp.rt,image_1_text_catch_same,image_2_text_catch_same,image_catch_same,catch_different_resp.keys,catch_different_resp.rt,image_1_text_catch_different,image_2_text_catch_different,image_catch_different
space,28.817,space,29.698,5,9.404,0,0,0,9,1,an outside porch with two chairs and one plant against the windows of the house,an outside porch with two chairs and two plants against the wall of the house,wolfe2,018_R_plant,2,57,A26RO8GGTQAXGG,2021-01-26_07h19.11.932,MetaAwareness,2020.1.2,Win32,60,3KLL7H3EGE4R6FWL5RZV66I07ALHV8,A26RO8GGTQAXGG,3UN61F00HXSQJZT3L7YE4VLV7CKR5D,01NU5,01NU5,3UN61F00HXSQJZT3L7YE4VLV7CKR5D,3UN61F00HXSQJZT3L7YE4VLV7CKR5D,271465,271465,,,,,,,,,,
,,,,5,4.573,0,1,1,33,1,a hair salon with paintings on thewall,a hair salon with two paintings on the wall,wolfe2,089_R_poster,4,57,A26RO8GGTQAXGG,2021-01-26_07h19.11.932,MetaAwareness,2020.1.2,Win32,60,3KLL7H3EGE4R6FWL5RZV66I07ALHV8,A26RO8GGTQAXGG,3UN61F00HXSQJZT3L7YE4VLV7CKR5D,01NU5,01NU5,3UN61F00HXSQJZT3L7YE4VLV7CKR5D,3UN61F00HXSQJZT3L7YE4VLV7CKR5D,271465,271465,,,,,,,,,,
,,,,3,9.088,0,2,2,27,1,a sitting room crowded with furniture and an empty spot to the right of one of the lamps.,a sitting room crowded with furniture and a vase next to one of the lamps.,wolfe2,071_L_art,1,57,A26RO8GGTQAXGG,2021-01-26_07h19.11.932,MetaAwareness,2020.1.2,Win32,60,3KLL7H3EGE4R6FWL5RZV66I07ALHV8,A26RO8GGTQAXGG,3UN61F00HXSQJZT3L7YE4VLV7CKR5D,01NU5,01NU5,3UN61F00HXSQJZT3L7YE4VLV7CKR5D,3UN61F00HXSQJZT3L7YE4VLV7CKR5D,271465,271465,,,,,,,,,,
,,,,1,5.752,0,3,3,23,1,a nice appartment with simple colors,an object missing from the room but i am unsure of what the object is,wolfe2,066_R_vase,3,57,A26RO8GGTQAXGG,2021-01-26_07h19.11.932,MetaAwareness,2020.1.2,Win32,60,3KLL7H3EGE4R6FWL5RZV66I07ALHV8,A26RO8GGTQAXGG,3UN61F00HXSQJZT3L7YE4VLV7CKR5D,01NU5,01NU5,3UN61F00HXSQJZT3L7YE4VLV7CKR5D,3UN61F00HXSQJZT3L7YE4VLV7CKR5D,271465,271465,,,,,,,,,,
,,,,5,10.845,0,4,4,41,1,"a very sparsley decorated room with some furniture, a piano, and two pictures hanging on the walls.","a very sparsley decorated room with some furntiture, a piano, and one picture hanging on the wall.",wolfe2,119_R_painting,5,57,A26RO8GGTQAXGG,2021-01-26_07h19.11.932,MetaAwareness,2020.1.2,Win32,60,3KLL7H3EGE4R6FWL5RZV66I07ALHV8,A26RO8GGTQAXGG,3UN61F00HXSQJZT3L7YE4VLV7CKR5D,01NU5,01NU5,3UN61F00HXSQJZT3L7YE4VLV7CKR5D,3UN61F00HXSQJZT3L7YE4VLV7CKR5D,271465,271465,,,,,,,,,,
,,,,4,7.072,0,5,5,1,1,a set table that is missing one orange napkin in a dining hall,a set table with orange napkins on all settings in a dining hall,wolfe2,002_R_napkin,1,57,A26RO8GGTQAXGG,2021-01-26_07h19.11.932,MetaAwareness,2020.1.2,Win32,60,3KLL7H3EGE4R6FWL5RZV66I07ALHV8,A26RO8GGTQAXGG,3UN61F00HXSQJZT3L7YE4VLV7CKR5D,01NU5,01NU5,3UN61F00HXSQJZT3L7YE4VLV7CKR5D,3UN61F00HXSQJZT3L7YE4VLV7CKR5D,271465,271465,,,,,,,,,,
,,,,5,5.13,0,6,6,38,1,a fitting room with four items on the right side of the clothes rack.,a fitting room with  three items on the right side of the clothes rack.,wolfe2,107_R_shirts,4,57,A26RO8GGTQAXGG,2021-01-26_07h19.11.932,MetaAwareness,2020.1.2,Win32,60,3KLL7H3EGE4R6FWL5RZV66I07ALHV8,A26RO8GGTQAXGG,3UN61F00HXSQJZT3L7YE4VLV7CKR5D,01NU5,01NU5,3UN61F00HXSQJZT3L7YE4VLV7CKR5D,3UN61F00HXSQJZT3L7YE4VLV7CKR5D,271465,271465,,,,,,,,,,
,,,,3,4.753,0,7,7,14,1,a bottle sitting on a circular structure and shelf,two bottles sitting on a floating shelf,wolfe2,032_R_bottle,6,57,A26RO8GGTQAXGG,2021-01-26_07h19.11.932,MetaAwareness,2020.1.2,Win32,60,3KLL7H3EGE4R6FWL5RZV66I07ALHV8,A26RO8GGTQAXGG,3UN61F00HXSQJZT3L7YE4VLV7CKR5D,01NU5,01NU5,3UN61F00HXSQJZT3L7YE4VLV7CKR5D,3UN61F00HXSQJZT3L7YE4VLV7CKR5D,271465,271465,,,,,,,,,,
,,,,4,7.297,0,8,8,26,1,"a white, bright, upscale living room with one light fixture next to the mirror","a white, bright, upscale living room with a light fixture on either side of the mirror",wolfe2,070_R_lamp,5,57,A26RO8GGTQAXGG,2021-01-26_07h19.11.932,MetaAwareness,2020.1.2,Win32,60,3KLL7H3EGE4R6FWL5RZV66I07ALHV8,A26RO8GGTQAXGG,3UN61F00HXSQJZT3L7YE4VLV7CKR5D,01NU5,01NU5,3UN61F00HXSQJZT3L7YE4VLV7CKR5D,3UN61F00HXSQJZT3L7YE4VLV7CKR5D,271465,271465,,,,,,,,,,
,,,,5,4.251,0,9,9,5,1,a fully furnished bedroom with two candles,a fully furnised bedroom with three candles,wolfe2,010_R_candle,5,57,A26RO8GGTQAXGG,2021-01-26_07h19.11.932,MetaAwareness,2020.1.2,Win32,60,3KLL7H3EGE4R6FWL5RZV66I07ALHV8,A26RO8GGTQAXGG,3UN61F00HXSQJZT3L7YE4VLV7CKR5D,01NU5,01NU5,3UN61F00HXSQJZT3L7YE4VLV7CKR5D,3UN61F00HXSQJZT3L7YE4VLV7CKR5D,271465,271465,,,,,,,,,,
,,,,3,5.272,0,10,10,0,1,a wedding reception with a napkin at every place setting.,a wedding reception with a napkin missing from one of the place settings.,wolfe2,002_L_napkin,4,57,A26RO8GGTQAXGG,2021-01-26_07h19.11.932,MetaAwareness,2020.1.2,Win32,60,3KLL7H3EGE4R6FWL5RZV66I07ALHV8,A26RO8GGTQAXGG,3UN61F00HXSQJZT3L7YE4VLV7CKR5D,01NU5,01NU5,3UN61F00HXSQJZT3L7YE4VLV7CKR5D,3UN61F00HXSQJZT3L7YE4VLV7CKR5D,271465,271465,,,,,,,,,,
,,,,5,5.937,0,11,11,44,1,a spacious conversation room with large windows and a white vase sitting on the floor,a spacious conversation room with large windows and no vase sitting on the floor,wolfe2,124_R_vase,4,57,A26RO8GGTQAXGG,2021-01-26_07h19.11.932,MetaAwareness,2020.1.2,Win32,60,3KLL7H3EGE4R6FWL5RZV66I07ALHV8,A26RO8GGTQAXGG,3UN61F00HXSQJZT3L7YE4VLV7CKR5D,01NU5,01NU5,3UN61F00HXSQJZT3L7YE4VLV7CKR5D,3UN61F00HXSQJZT3L7YE4VLV7CKR5D,271465,271465,,,,,,,,,,
,,,,4,7.565,0,12,12,30,1,a white kitchen with white bowls and plates on every shelf,a white kitchen with white bowls and plates on all but one shelf,wolfe2,079_R_bowl,3,57,A26RO8GGTQAXGG,2021-01-26_07h19.11.932,MetaAwareness,2020.1.2,Win32,60,3KLL7H3EGE4R6FWL5RZV66I07ALHV8,A26RO8GGTQAXGG,3UN61F00HXSQJZT3L7YE4VLV7CKR5D,01NU5,01NU5,3UN61F00HXSQJZT3L7YE4VLV7CKR5D,3UN61F00HXSQJZT3L7YE4VLV7CKR5D,271465,271465,,,,,,,,,,
,,,,3,7.132,0,13,13,3,1,blue bathroom with window shelf,blue bathroom with window shelf with bottle on shelf,wolfe2,008_L_bottle,1,57,A26RO8GGTQAXGG,2021-01-26_07h19.11.932,MetaAwareness,2020.1.2,Win32,60,3KLL7H3EGE4R6FWL5RZV66I07ALHV8,A26RO8GGTQAXGG,3UN61F00HXSQJZT3L7YE4VLV7CKR5D,01NU5,01NU5,3UN61F00HXSQJZT3L7YE4VLV7CKR5D,3UN61F00HXSQJZT3L7YE4VLV7CKR5D,271465,271465,,,,,,,,,,
,,,,4,12.07,0,14,14,42,1,"a living room with cream-color furnature, a white fireplace, large windows, and a decorative item on the fireplace mantle","a living room with cream color furnature, a white fireplace with a white mantle, large windows, and tan walls",wolfe2,120_R_art,1,57,A26RO8GGTQAXGG,2021-01-26_07h19.11.932,MetaAwareness,2020.1.2,Win32,60,3KLL7H3EGE4R6FWL5RZV66I07ALHV8,A26RO8GGTQAXGG,3UN61F00HXSQJZT3L7YE4VLV7CKR5D,01NU5,01NU5,3UN61F00HXSQJZT3L7YE4VLV7CKR5D,3UN61F00HXSQJZT3L7YE4VLV7CKR5D,271465,271465,,,,,,,,,,
,,,,4,11.313,0,15,15,12,1,the glass was very nice to see and i like that colour there are 2 glass,the glass are very nice to see and ther are num_3 glass,wolfe2,029_L_glass,2,57,A26RO8GGTQAXGG,2021-01-26_07h19.11.932,MetaAwareness,2020.1.2,Win32,60,3KLL7H3EGE4R6FWL5RZV66I07ALHV8,A26RO8GGTQAXGG,3UN61F00HXSQJZT3L7YE4VLV7CKR5D,01NU5,01NU5,3UN61F00HXSQJZT3L7YE4VLV7CKR5D,3UN61F00HXSQJZT3L7YE4VLV7CKR5D,271465,271465,,,,,,,,,,
,,,,3,4.238,0,16,16,20,1,a beautiful white sofa,a beautiful white sofa with a towel at the end of sofa.,wolfe2,056_L_comforter,4,57,A26RO8GGTQAXGG,2021-01-26_07h19.11.932,MetaAwareness,2020.1.2,Win32,60,3KLL7H3EGE4R6FWL5RZV66I07ALHV8,A26RO8GGTQAXGG,3UN61F00HXSQJZT3L7YE4VLV7CKR5D,01NU5,01NU5,3UN61F00HXSQJZT3L7YE4VLV7CKR5D,3UN61F00HXSQJZT3L7YE4VLV7CKR5D,271465,271465,,,,,,,,,,
,,,,3,5.603,0,17,17,2,1,no cell towers are appears,there is a cell tower are appear,wolfe2,004_R_electricalgrid,1,57,A26RO8GGTQAXGG,2021-01-26_07h19.11.932,MetaAwareness,2020.1.2,Win32,60,3KLL7H3EGE4R6FWL5RZV66I07ALHV8,A26RO8GGTQAXGG,3UN61F00HXSQJZT3L7YE4VLV7CKR5D,01NU5,01NU5,3UN61F00HXSQJZT3L7YE4VLV7CKR5D,3UN61F00HXSQJZT3L7YE4VLV7CKR5D,271465,271465,,,,,,,,,,
,,,,4,5.166,0,18,18,18,1,a bedroom with no pictures near the mirror.,a bedroom with a picture hanging near the mirror.,wolfe2,049_R_painting,2,57,A26RO8GGTQAXGG,2021-01-26_07h19.11.932,MetaAwareness,2020.1.2,Win32,60,3KLL7H3EGE4R6FWL5RZV66I07ALHV8,A26RO8GGTQAXGG,3UN61F00HXSQJZT3L7YE4VLV7CKR5D,01NU5,01NU5,3UN61F00HXSQJZT3L7YE4VLV7CKR5D,3UN61F00HXSQJZT3L7YE4VLV7CKR5D,271465,271465,,,,,,,,,,
,,,,2,8.732,0,19,19,36,1,this bathroom has a modern design and both wine glasses and a jar,you can find two wine glasses in this modern bathroom,wolfe2,101_R_cup,3,57,A26RO8GGTQAXGG,2021-01-26_07h19.11.932,MetaAwareness,2020.1.2,Win32,60,3KLL7H3EGE4R6FWL5RZV66I07ALHV8,A26RO8GGTQAXGG,3UN61F00HXSQJZT3L7YE4VLV7CKR5D,01NU5,01NU5,3UN61F00HXSQJZT3L7YE4VLV7CKR5D,3UN61F00HXSQJZT3L7YE4VLV7CKR5D,271465,271465,,,,,,,,,,
,,,,1,6.05,0,20,20,37,1,this comfy cafe has large plush chairs and small tables. on top of each table is a nice candle.,"each table in this lovely and small cafe has a small candle on top of it. there is also a small vase on the second table from center, it appears to be brown or black.",wolfe2,104_L_bottle,3,57,A26RO8GGTQAXGG,2021-01-26_07h19.11.932,MetaAwareness,2020.1.2,Win32,60,3KLL7H3EGE4R6FWL5RZV66I07ALHV8,A26RO8GGTQAXGG,3UN61F00HXSQJZT3L7YE4VLV7CKR5D,01NU5,01NU5,3UN61F00HXSQJZT3L7YE4VLV7CKR5D,3UN61F00HXSQJZT3L7YE4VLV7CKR5D,271465,271465,,,,,,,,,,
,,,,5,7.778,0,21,21,13,1,"a modern bathroom with twin rectangular sinks, a glass shower and shelving. the shelf above the left sink has two red glasses","a modern bathroom with twin rectangular sinks, a glass shower and shelving.  the shelf above the left sink has three glasses.",wolfe2,029_L_glass,3,57,A26RO8GGTQAXGG,2021-01-26_07h19.11.932,MetaAwareness,2020.1.2,Win32,60,3KLL7H3EGE4R6FWL5RZV66I07ALHV8,A26RO8GGTQAXGG,3UN61F00HXSQJZT3L7YE4VLV7CKR5D,01NU5,01NU5,3UN61F00HXSQJZT3L7YE4VLV7CKR5D,3UN61F00HXSQJZT3L7YE4VLV7CKR5D,271465,271465,,,,,,,,,,
,,,,3,5.722,0,22,22,4,1,nice family blue bathroom,modern blue clean bathroom,wolfe2,008_R_bottle,6,57,A26RO8GGTQAXGG,2021-01-26_07h19.11.932,MetaAwareness,2020.1.2,Win32,60,3KLL7H3EGE4R6FWL5RZV66I07ALHV8,A26RO8GGTQAXGG,3UN61F00HXSQJZT3L7YE4VLV7CKR5D,01NU5,01NU5,3UN61F00HXSQJZT3L7YE4VLV7CKR5D,3UN61F00HXSQJZT3L7YE4VLV7CKR5D,271465,271465,,,,,,,,,,
,,,,2,9.66,0,23,23,24,1,the walls in the modern living room are painted black.  there is also white leather furniture.,there is a white vase on a white leather loveseat in a modern living room with black and white walls,wolfe2,066_R_vase,4,57,A26RO8GGTQAXGG,2021-01-26_07h19.11.932,MetaAwareness,2020.1.2,Win32,60,3KLL7H3EGE4R6FWL5RZV66I07ALHV8,A26RO8GGTQAXGG,3UN61F00HXSQJZT3L7YE4VLV7CKR5D,01NU5,01NU5,3UN61F00HXSQJZT3L7YE4VLV7CKR5D,3UN61F00HXSQJZT3L7YE4VLV7CKR5D,271465,271465,,,,,,,,,,
,,,,1,4.432,0,24,24,35,1,a green t shirt laying on the ground of a modern bedroom,a sleek and modern bedroom with white tile flooring,wolfe2,098_L_slippers,1,57,A26RO8GGTQAXGG,2021-01-26_07h19.11.932,MetaAwareness,2020.1.2,Win32,60,3KLL7H3EGE4R6FWL5RZV66I07ALHV8,A26RO8GGTQAXGG,3UN61F00HXSQJZT3L7YE4VLV7CKR5D,01NU5,01NU5,3UN61F00HXSQJZT3L7YE4VLV7CKR5D,3UN61F00HXSQJZT3L7YE4VLV7CKR5D,271465,271465,,,,,,,,,,
,,,,5,7.026,0,25,25,28,1,a nice living room without a flower vessel on top of the cupboards,a nice living room with a flower vessel on top of the cupboard,wolfe2,071_L_art,4,57,A26RO8GGTQAXGG,2021-01-26_07h19.11.932,MetaAwareness,2020.1.2,Win32,60,3KLL7H3EGE4R6FWL5RZV66I07ALHV8,A26RO8GGTQAXGG,3UN61F00HXSQJZT3L7YE4VLV7CKR5D,01NU5,01NU5,3UN61F00HXSQJZT3L7YE4VLV7CKR5D,3UN61F00HXSQJZT3L7YE4VLV7CKR5D,271465,271465,,,,,,,,,,
,,,,4,7.256,0,26,26,29,1,a pristine sitting room with a coffee table that holds multiple plants,a pristine sitting room with a coffee table that holds multiple plants and a book,wolfe2,074_R_book,1,57,A26RO8GGTQAXGG,2021-01-26_07h19.11.932,MetaAwareness,2020.1.2,Win32,60,3KLL7H3EGE4R6FWL5RZV66I07ALHV8,A26RO8GGTQAXGG,3UN61F00HXSQJZT3L7YE4VLV7CKR5D,01NU5,01NU5,3UN61F00HXSQJZT3L7YE4VLV7CKR5D,3UN61F00HXSQJZT3L7YE4VLV7CKR5D,271465,271465,,,,,,,,,,
,,,,4,7.064,0,27,27,39,1,this is an enclosed outside patio. there is wicker patio furniture and a flower vase next to the chair on the right side.,the enclosed outside patio shows wicker furniture with a chair to the right of the couch.,wolfe2,112_R_basket,2,57,A26RO8GGTQAXGG,2021-01-26_07h19.11.932,MetaAwareness,2020.1.2,Win32,60,3KLL7H3EGE4R6FWL5RZV66I07ALHV8,A26RO8GGTQAXGG,3UN61F00HXSQJZT3L7YE4VLV7CKR5D,01NU5,01NU5,3UN61F00HXSQJZT3L7YE4VLV7CKR5D,3UN61F00HXSQJZT3L7YE4VLV7CKR5D,271465,271465,,,,,,,,,,
,,,,4,5.94,0,28,28,40,1,a spacious living room with a picture portrait mounted on the left side of the wall,a spacious living room without a picture portrait on the left side of the wall,wolfe2,119_L_painting,3,57,A26RO8GGTQAXGG,2021-01-26_07h19.11.932,MetaAwareness,2020.1.2,Win32,60,3KLL7H3EGE4R6FWL5RZV66I07ALHV8,A26RO8GGTQAXGG,3UN61F00HXSQJZT3L7YE4VLV7CKR5D,01NU5,01NU5,3UN61F00HXSQJZT3L7YE4VLV7CKR5D,3UN61F00HXSQJZT3L7YE4VLV7CKR5D,271465,271465,,,,,,,,,,
,,,,3,4.11,0,29,29,34,1,"a large bathroom with red walls, lots of sinks and mirrors and a white object high up on the back wall",a large bathroom with red walls and lots of sinks and mirrors,wolfe2,091_R_airfreshener,4,57,A26RO8GGTQAXGG,2021-01-26_07h19.11.932,MetaAwareness,2020.1.2,Win32,60,3KLL7H3EGE4R6FWL5RZV66I07ALHV8,A26RO8GGTQAXGG,3UN61F00HXSQJZT3L7YE4VLV7CKR5D,01NU5,01NU5,3UN61F00HXSQJZT3L7YE4VLV7CKR5D,3UN61F00HXSQJZT3L7YE4VLV7CKR5D,271465,271465,,,,,,,,,,
,,,,,,,,,,,,,,,,57,A26RO8GGTQAXGG,2021-01-26_07h19.11.932,MetaAwareness,2020.1.2,Win32,60,3KLL7H3EGE4R6FWL5RZV66I07ALHV8,A26RO8GGTQAXGG,3UN61F00HXSQJZT3L7YE4VLV7CKR5D,01NU5,01NU5,3UN61F00HXSQJZT3L7YE4VLV7CKR5D,3UN61F00HXSQJZT3L7YE4VLV7CKR5D,271465,271465,6,9.887,someone laying underneath a blue beach umbrella on a crowded beach,someone laying underneath a blue beach umbrella on a crowded beach,same,1,4.115,members of a marching band crossing a track that all have feather plumes at the front of their hats,a cluttered and rustic looking cafe with 10 hanging lights,different
