consent_response.keys,consent_response.rt,key_resp_2.keys,key_resp_2.rt,user_resp.keys,user_resp.rt,trials.thisRepN,trials.thisTrialN,trials.thisN,trials.thisIndex,trials.ran,image_1_text,image_2_text,database,image,number,age,worker_ID,date,expName,psychopyVersion,OS,frameRate,hitId,workerId,assignmentId,a,tp_a,b,tp_b,c,tp_c,catch_same_resp.keys,catch_same_resp.rt,image_1_text_catch_same,image_2_text_catch_same,image_catch_same,catch_different_resp.keys,catch_different_resp.rt,image_1_text_catch_different,image_2_text_catch_different,image_catch_different
space,14.44402,space,38.088175,5,17.849365,0,0,0,22,1,there is a white vase and tray next to the mirror on this desk.,"there is a white vase, tray and lantern next to the mirror on this desk.",wolfe2,064_R_bottles,1,57,A36HFMF9Z4BGS8,2021-01-26_09h12.15.395,MetaAwareness,2020.1.2,Win32,60,33CLA8O0MJEFZCOY1H6L2OHK6PWFRG,A36HFMF9Z4BGS8,34FNN24DCNCZG05PZ2Q8CRESAZ4Y5R,DNF45,DNF45,34FNN24DCNCZG05PZ2Q8CRESAZ4Y5R,34FNN24DCNCZG05PZ2Q8CRESAZ4Y5R,271465,271465,,,,,,,,,,
,,,,5,20.10109,0,1,1,26,1,"a white, bright, upscale living room with one light fixture next to the mirror","a white, bright, upscale living room with a light fixture on either side of the mirror",wolfe2,070_R_lamp,5,57,A36HFMF9Z4BGS8,2021-01-26_09h12.15.395,MetaAwareness,2020.1.2,Win32,60,33CLA8O0MJEFZCOY1H6L2OHK6PWFRG,A36HFMF9Z4BGS8,34FNN24DCNCZG05PZ2Q8CRESAZ4Y5R,DNF45,DNF45,34FNN24DCNCZG05PZ2Q8CRESAZ4Y5R,34FNN24DCNCZG05PZ2Q8CRESAZ4Y5R,271465,271465,,,,,,,,,,
,,,,4,14.97831,0,2,2,6,1,a dining area froma  restaurant with three lights on the wall,a dining area from a restaurant with four lights on the wall,wolfe2,014_R_lamp,3,57,A36HFMF9Z4BGS8,2021-01-26_09h12.15.395,MetaAwareness,2020.1.2,Win32,60,33CLA8O0MJEFZCOY1H6L2OHK6PWFRG,A36HFMF9Z4BGS8,34FNN24DCNCZG05PZ2Q8CRESAZ4Y5R,DNF45,DNF45,34FNN24DCNCZG05PZ2Q8CRESAZ4Y5R,34FNN24DCNCZG05PZ2Q8CRESAZ4Y5R,271465,271465,,,,,,,,,,
,,,,5,7.493685,0,3,3,3,1,blue bathroom with window shelf,blue bathroom with window shelf with bottle on shelf,wolfe2,008_L_bottle,1,57,A36HFMF9Z4BGS8,2021-01-26_09h12.15.395,MetaAwareness,2020.1.2,Win32,60,33CLA8O0MJEFZCOY1H6L2OHK6PWFRG,A36HFMF9Z4BGS8,34FNN24DCNCZG05PZ2Q8CRESAZ4Y5R,DNF45,DNF45,34FNN24DCNCZG05PZ2Q8CRESAZ4Y5R,34FNN24DCNCZG05PZ2Q8CRESAZ4Y5R,271465,271465,,,,,,,,,,
,,,,4,32.037705,0,4,4,42,1,"a living room with cream-color furnature, a white fireplace, large windows, and a decorative item on the fireplace mantle","a living room with cream color furnature, a white fireplace with a white mantle, large windows, and tan walls",wolfe2,120_R_art,1,57,A36HFMF9Z4BGS8,2021-01-26_09h12.15.395,MetaAwareness,2020.1.2,Win32,60,33CLA8O0MJEFZCOY1H6L2OHK6PWFRG,A36HFMF9Z4BGS8,34FNN24DCNCZG05PZ2Q8CRESAZ4Y5R,DNF45,DNF45,34FNN24DCNCZG05PZ2Q8CRESAZ4Y5R,34FNN24DCNCZG05PZ2Q8CRESAZ4Y5R,271465,271465,,,,,,,,,,
,,,,4,9.394845,0,5,5,25,1,a living room decorated with flowers and candles,a living room decorated with flowers,wolfe2,069_L_things,1,57,A36HFMF9Z4BGS8,2021-01-26_09h12.15.395,MetaAwareness,2020.1.2,Win32,60,33CLA8O0MJEFZCOY1H6L2OHK6PWFRG,A36HFMF9Z4BGS8,34FNN24DCNCZG05PZ2Q8CRESAZ4Y5R,DNF45,DNF45,34FNN24DCNCZG05PZ2Q8CRESAZ4Y5R,34FNN24DCNCZG05PZ2Q8CRESAZ4Y5R,271465,271465,,,,,,,,,,
,,,,4,12.379785,0,6,6,20,1,a beautiful white sofa,a beautiful white sofa with a towel at the end of sofa.,wolfe2,056_L_comforter,4,57,A36HFMF9Z4BGS8,2021-01-26_09h12.15.395,MetaAwareness,2020.1.2,Win32,60,33CLA8O0MJEFZCOY1H6L2OHK6PWFRG,A36HFMF9Z4BGS8,34FNN24DCNCZG05PZ2Q8CRESAZ4Y5R,DNF45,DNF45,34FNN24DCNCZG05PZ2Q8CRESAZ4Y5R,34FNN24DCNCZG05PZ2Q8CRESAZ4Y5R,271465,271465,,,,,,,,,,
,,,,4,18.830315,0,7,7,41,1,"a very sparsley decorated room with some furniture, a piano, and two pictures hanging on the walls.","a very sparsley decorated room with some furntiture, a piano, and one picture hanging on the wall.",wolfe2,119_R_painting,5,57,A36HFMF9Z4BGS8,2021-01-26_09h12.15.395,MetaAwareness,2020.1.2,Win32,60,33CLA8O0MJEFZCOY1H6L2OHK6PWFRG,A36HFMF9Z4BGS8,34FNN24DCNCZG05PZ2Q8CRESAZ4Y5R,DNF45,DNF45,34FNN24DCNCZG05PZ2Q8CRESAZ4Y5R,34FNN24DCNCZG05PZ2Q8CRESAZ4Y5R,271465,271465,,,,,,,,,,
,,,,4,11.75654,0,8,8,19,1,a rustic style bathroom with stone floors and a dresser with one drawer handle,a rustic style bathroom with stone floors and a dresser with two drawer handles,wolfe2,053_R_handle,4,57,A36HFMF9Z4BGS8,2021-01-26_09h12.15.395,MetaAwareness,2020.1.2,Win32,60,33CLA8O0MJEFZCOY1H6L2OHK6PWFRG,A36HFMF9Z4BGS8,34FNN24DCNCZG05PZ2Q8CRESAZ4Y5R,DNF45,DNF45,34FNN24DCNCZG05PZ2Q8CRESAZ4Y5R,34FNN24DCNCZG05PZ2Q8CRESAZ4Y5R,271465,271465,,,,,,,,,,
,,,,4,12.45907,0,9,9,10,1,an outside living space with chairs and a stained glass window.,an outside living space with a deck and chairs and a plant on the far edge.,wolfe2,018_R_plant,4,57,A36HFMF9Z4BGS8,2021-01-26_09h12.15.395,MetaAwareness,2020.1.2,Win32,60,33CLA8O0MJEFZCOY1H6L2OHK6PWFRG,A36HFMF9Z4BGS8,34FNN24DCNCZG05PZ2Q8CRESAZ4Y5R,DNF45,DNF45,34FNN24DCNCZG05PZ2Q8CRESAZ4Y5R,34FNN24DCNCZG05PZ2Q8CRESAZ4Y5R,271465,271465,,,,,,,,,,
,,,,2,13.14213,0,10,10,28,1,a nice living room without a flower vessel on top of the cupboards,a nice living room with a flower vessel on top of the cupboard,wolfe2,071_L_art,4,57,A36HFMF9Z4BGS8,2021-01-26_09h12.15.395,MetaAwareness,2020.1.2,Win32,60,33CLA8O0MJEFZCOY1H6L2OHK6PWFRG,A36HFMF9Z4BGS8,34FNN24DCNCZG05PZ2Q8CRESAZ4Y5R,DNF45,DNF45,34FNN24DCNCZG05PZ2Q8CRESAZ4Y5R,34FNN24DCNCZG05PZ2Q8CRESAZ4Y5R,271465,271465,,,,,,,,,,
,,,,1,10.823945,0,11,11,2,1,no cell towers are appears,there is a cell tower are appear,wolfe2,004_R_electricalgrid,1,57,A36HFMF9Z4BGS8,2021-01-26_09h12.15.395,MetaAwareness,2020.1.2,Win32,60,33CLA8O0MJEFZCOY1H6L2OHK6PWFRG,A36HFMF9Z4BGS8,34FNN24DCNCZG05PZ2Q8CRESAZ4Y5R,DNF45,DNF45,34FNN24DCNCZG05PZ2Q8CRESAZ4Y5R,34FNN24DCNCZG05PZ2Q8CRESAZ4Y5R,271465,271465,,,,,,,,,,
,,,,2,29.46428,0,12,12,16,1,this dining room is cozy and has a nice little table as well as plenty of natural light.,"this dining room has a lovely view of the outside, as well as a small but comfortable looking table set. on the wall there is a quaint looking piece of art that almost looks like a puzzle piece.",wolfe2,038_L_art,2,57,A36HFMF9Z4BGS8,2021-01-26_09h12.15.395,MetaAwareness,2020.1.2,Win32,60,33CLA8O0MJEFZCOY1H6L2OHK6PWFRG,A36HFMF9Z4BGS8,34FNN24DCNCZG05PZ2Q8CRESAZ4Y5R,DNF45,DNF45,34FNN24DCNCZG05PZ2Q8CRESAZ4Y5R,34FNN24DCNCZG05PZ2Q8CRESAZ4Y5R,271465,271465,,,,,,,,,,
,,,,5,4.818665,0,13,13,4,1,nice family blue bathroom,modern blue clean bathroom,wolfe2,008_R_bottle,6,57,A36HFMF9Z4BGS8,2021-01-26_09h12.15.395,MetaAwareness,2020.1.2,Win32,60,33CLA8O0MJEFZCOY1H6L2OHK6PWFRG,A36HFMF9Z4BGS8,34FNN24DCNCZG05PZ2Q8CRESAZ4Y5R,DNF45,DNF45,34FNN24DCNCZG05PZ2Q8CRESAZ4Y5R,34FNN24DCNCZG05PZ2Q8CRESAZ4Y5R,271465,271465,,,,,,,,,,
,,,,4,16.405855,0,14,14,12,1,the glass was very nice to see and i like that colour there are 2 glass,the glass are very nice to see and ther are num_3 glass,wolfe2,029_L_glass,2,57,A36HFMF9Z4BGS8,2021-01-26_09h12.15.395,MetaAwareness,2020.1.2,Win32,60,33CLA8O0MJEFZCOY1H6L2OHK6PWFRG,A36HFMF9Z4BGS8,34FNN24DCNCZG05PZ2Q8CRESAZ4Y5R,DNF45,DNF45,34FNN24DCNCZG05PZ2Q8CRESAZ4Y5R,34FNN24DCNCZG05PZ2Q8CRESAZ4Y5R,271465,271465,,,,,,,,,,
,,,,5,10.82562,0,15,15,15,1,a modern bedroom that is well-decorated with lots of accent pieces and good lighting.,"a modern bedroom that is well-decorated with lots of accent pieces, including a table that has vases and a bowl of fruit.",wolfe2,035_L_fruit,1,57,A36HFMF9Z4BGS8,2021-01-26_09h12.15.395,MetaAwareness,2020.1.2,Win32,60,33CLA8O0MJEFZCOY1H6L2OHK6PWFRG,A36HFMF9Z4BGS8,34FNN24DCNCZG05PZ2Q8CRESAZ4Y5R,DNF45,DNF45,34FNN24DCNCZG05PZ2Q8CRESAZ4Y5R,34FNN24DCNCZG05PZ2Q8CRESAZ4Y5R,271465,271465,,,,,,,,,,
,,,,4,12.75933,0,16,16,30,1,a white kitchen with white bowls and plates on every shelf,a white kitchen with white bowls and plates on all but one shelf,wolfe2,079_R_bowl,3,57,A36HFMF9Z4BGS8,2021-01-26_09h12.15.395,MetaAwareness,2020.1.2,Win32,60,33CLA8O0MJEFZCOY1H6L2OHK6PWFRG,A36HFMF9Z4BGS8,34FNN24DCNCZG05PZ2Q8CRESAZ4Y5R,DNF45,DNF45,34FNN24DCNCZG05PZ2Q8CRESAZ4Y5R,34FNN24DCNCZG05PZ2Q8CRESAZ4Y5R,271465,271465,,,,,,,,,,
,,,,4,10.42657,0,17,17,36,1,this bathroom has a modern design and both wine glasses and a jar,you can find two wine glasses in this modern bathroom,wolfe2,101_R_cup,3,57,A36HFMF9Z4BGS8,2021-01-26_09h12.15.395,MetaAwareness,2020.1.2,Win32,60,33CLA8O0MJEFZCOY1H6L2OHK6PWFRG,A36HFMF9Z4BGS8,34FNN24DCNCZG05PZ2Q8CRESAZ4Y5R,DNF45,DNF45,34FNN24DCNCZG05PZ2Q8CRESAZ4Y5R,34FNN24DCNCZG05PZ2Q8CRESAZ4Y5R,271465,271465,,,,,,,,,,
,,,,4,21.49736,0,18,18,9,1,an outside porch with two chairs and one plant against the windows of the house,an outside porch with two chairs and two plants against the wall of the house,wolfe2,018_R_plant,2,57,A36HFMF9Z4BGS8,2021-01-26_09h12.15.395,MetaAwareness,2020.1.2,Win32,60,33CLA8O0MJEFZCOY1H6L2OHK6PWFRG,A36HFMF9Z4BGS8,34FNN24DCNCZG05PZ2Q8CRESAZ4Y5R,DNF45,DNF45,34FNN24DCNCZG05PZ2Q8CRESAZ4Y5R,34FNN24DCNCZG05PZ2Q8CRESAZ4Y5R,271465,271465,,,,,,,,,,
,,,,2,8.815165,0,19,19,35,1,a green t shirt laying on the ground of a modern bedroom,a sleek and modern bedroom with white tile flooring,wolfe2,098_L_slippers,1,57,A36HFMF9Z4BGS8,2021-01-26_09h12.15.395,MetaAwareness,2020.1.2,Win32,60,33CLA8O0MJEFZCOY1H6L2OHK6PWFRG,A36HFMF9Z4BGS8,34FNN24DCNCZG05PZ2Q8CRESAZ4Y5R,DNF45,DNF45,34FNN24DCNCZG05PZ2Q8CRESAZ4Y5R,34FNN24DCNCZG05PZ2Q8CRESAZ4Y5R,271465,271465,,,,,,,,,,
,,,,5,10.724145,0,20,20,38,1,a fitting room with four items on the right side of the clothes rack.,a fitting room with  three items on the right side of the clothes rack.,wolfe2,107_R_shirts,4,57,A36HFMF9Z4BGS8,2021-01-26_09h12.15.395,MetaAwareness,2020.1.2,Win32,60,33CLA8O0MJEFZCOY1H6L2OHK6PWFRG,A36HFMF9Z4BGS8,34FNN24DCNCZG05PZ2Q8CRESAZ4Y5R,DNF45,DNF45,34FNN24DCNCZG05PZ2Q8CRESAZ4Y5R,34FNN24DCNCZG05PZ2Q8CRESAZ4Y5R,271465,271465,,,,,,,,,,
,,,,5,9.52501,0,21,21,29,1,a pristine sitting room with a coffee table that holds multiple plants,a pristine sitting room with a coffee table that holds multiple plants and a book,wolfe2,074_R_book,1,57,A36HFMF9Z4BGS8,2021-01-26_09h12.15.395,MetaAwareness,2020.1.2,Win32,60,33CLA8O0MJEFZCOY1H6L2OHK6PWFRG,A36HFMF9Z4BGS8,34FNN24DCNCZG05PZ2Q8CRESAZ4Y5R,DNF45,DNF45,34FNN24DCNCZG05PZ2Q8CRESAZ4Y5R,34FNN24DCNCZG05PZ2Q8CRESAZ4Y5R,271465,271465,,,,,,,,,,
,,,,2,9.62409,0,22,22,40,1,a spacious living room with a picture portrait mounted on the left side of the wall,a spacious living room without a picture portrait on the left side of the wall,wolfe2,119_L_painting,3,57,A36HFMF9Z4BGS8,2021-01-26_09h12.15.395,MetaAwareness,2020.1.2,Win32,60,33CLA8O0MJEFZCOY1H6L2OHK6PWFRG,A36HFMF9Z4BGS8,34FNN24DCNCZG05PZ2Q8CRESAZ4Y5R,DNF45,DNF45,34FNN24DCNCZG05PZ2Q8CRESAZ4Y5R,34FNN24DCNCZG05PZ2Q8CRESAZ4Y5R,271465,271465,,,,,,,,,,
,,,,3,12.90902,0,23,23,27,1,a sitting room crowded with furniture and an empty spot to the right of one of the lamps.,a sitting room crowded with furniture and a vase next to one of the lamps.,wolfe2,071_L_art,1,57,A36HFMF9Z4BGS8,2021-01-26_09h12.15.395,MetaAwareness,2020.1.2,Win32,60,33CLA8O0MJEFZCOY1H6L2OHK6PWFRG,A36HFMF9Z4BGS8,34FNN24DCNCZG05PZ2Q8CRESAZ4Y5R,DNF45,DNF45,34FNN24DCNCZG05PZ2Q8CRESAZ4Y5R,34FNN24DCNCZG05PZ2Q8CRESAZ4Y5R,271465,271465,,,,,,,,,,
,,,,5,13.735995,0,24,24,34,1,"a large bathroom with red walls, lots of sinks and mirrors and a white object high up on the back wall",a large bathroom with red walls and lots of sinks and mirrors,wolfe2,091_R_airfreshener,4,57,A36HFMF9Z4BGS8,2021-01-26_09h12.15.395,MetaAwareness,2020.1.2,Win32,60,33CLA8O0MJEFZCOY1H6L2OHK6PWFRG,A36HFMF9Z4BGS8,34FNN24DCNCZG05PZ2Q8CRESAZ4Y5R,DNF45,DNF45,34FNN24DCNCZG05PZ2Q8CRESAZ4Y5R,34FNN24DCNCZG05PZ2Q8CRESAZ4Y5R,271465,271465,,,,,,,,,,
,,,,2,28.45879,0,25,25,37,1,this comfy cafe has large plush chairs and small tables. on top of each table is a nice candle.,"each table in this lovely and small cafe has a small candle on top of it. there is also a small vase on the second table from center, it appears to be brown or black.",wolfe2,104_L_bottle,3,57,A36HFMF9Z4BGS8,2021-01-26_09h12.15.395,MetaAwareness,2020.1.2,Win32,60,33CLA8O0MJEFZCOY1H6L2OHK6PWFRG,A36HFMF9Z4BGS8,34FNN24DCNCZG05PZ2Q8CRESAZ4Y5R,DNF45,DNF45,34FNN24DCNCZG05PZ2Q8CRESAZ4Y5R,34FNN24DCNCZG05PZ2Q8CRESAZ4Y5R,271465,271465,,,,,,,,,,
,,,,5,5.4633,0,26,26,33,1,a hair salon with paintings on thewall,a hair salon with two paintings on the wall,wolfe2,089_R_poster,4,57,A36HFMF9Z4BGS8,2021-01-26_09h12.15.395,MetaAwareness,2020.1.2,Win32,60,33CLA8O0MJEFZCOY1H6L2OHK6PWFRG,A36HFMF9Z4BGS8,34FNN24DCNCZG05PZ2Q8CRESAZ4Y5R,DNF45,DNF45,34FNN24DCNCZG05PZ2Q8CRESAZ4Y5R,34FNN24DCNCZG05PZ2Q8CRESAZ4Y5R,271465,271465,,,,,,,,,,
,,,,4,24.65821,0,27,27,39,1,this is an enclosed outside patio. there is wicker patio furniture and a flower vase next to the chair on the right side.,the enclosed outside patio shows wicker furniture with a chair to the right of the couch.,wolfe2,112_R_basket,2,57,A36HFMF9Z4BGS8,2021-01-26_09h12.15.395,MetaAwareness,2020.1.2,Win32,60,33CLA8O0MJEFZCOY1H6L2OHK6PWFRG,A36HFMF9Z4BGS8,34FNN24DCNCZG05PZ2Q8CRESAZ4Y5R,DNF45,DNF45,34FNN24DCNCZG05PZ2Q8CRESAZ4Y5R,34FNN24DCNCZG05PZ2Q8CRESAZ4Y5R,271465,271465,,,,,,,,,,
,,,,4,48.886535,0,28,28,5,1,a fully furnished bedroom with two candles,a fully furnised bedroom with three candles,wolfe2,010_R_candle,5,57,A36HFMF9Z4BGS8,2021-01-26_09h12.15.395,MetaAwareness,2020.1.2,Win32,60,33CLA8O0MJEFZCOY1H6L2OHK6PWFRG,A36HFMF9Z4BGS8,34FNN24DCNCZG05PZ2Q8CRESAZ4Y5R,DNF45,DNF45,34FNN24DCNCZG05PZ2Q8CRESAZ4Y5R,34FNN24DCNCZG05PZ2Q8CRESAZ4Y5R,271465,271465,,,,,,,,,,
,,,,1,6.79387,0,29,29,23,1,a nice appartment with simple colors,an object missing from the room but i am unsure of what the object is,wolfe2,066_R_vase,3,57,A36HFMF9Z4BGS8,2021-01-26_09h12.15.395,MetaAwareness,2020.1.2,Win32,60,33CLA8O0MJEFZCOY1H6L2OHK6PWFRG,A36HFMF9Z4BGS8,34FNN24DCNCZG05PZ2Q8CRESAZ4Y5R,DNF45,DNF45,34FNN24DCNCZG05PZ2Q8CRESAZ4Y5R,34FNN24DCNCZG05PZ2Q8CRESAZ4Y5R,271465,271465,,,,,,,,,,
,,,,,,,,,,,,,,,,57,A36HFMF9Z4BGS8,2021-01-26_09h12.15.395,MetaAwareness,2020.1.2,Win32,60,33CLA8O0MJEFZCOY1H6L2OHK6PWFRG,A36HFMF9Z4BGS8,34FNN24DCNCZG05PZ2Q8CRESAZ4Y5R,DNF45,DNF45,34FNN24DCNCZG05PZ2Q8CRESAZ4Y5R,34FNN24DCNCZG05PZ2Q8CRESAZ4Y5R,271465,271465,6,15.35189,someone laying underneath a blue beach umbrella on a crowded beach,someone laying underneath a blue beach umbrella on a crowded beach,same,1,14.040725,members of a marching band crossing a track that all have feather plumes at the front of their hats,a cluttered and rustic looking cafe with 10 hanging lights,different
