consent_response.keys,consent_response.rt,key_resp_2.keys,key_resp_2.rt,user_resp.keys,user_resp.rt,trials.thisRepN,trials.thisTrialN,trials.thisN,trials.thisIndex,trials.ran,image_1_text,image_2_text,database,image,number,age,worker_ID,date,expName,psychopyVersion,OS,frameRate,hitId,workerId,assignmentId,a,tp_a,b,tp_b,c,tp_c,catch_same_resp.keys,catch_same_resp.rt,image_1_text_catch_same,image_2_text_catch_same,image_catch_same,catch_different_resp.keys,catch_different_resp.rt,image_1_text_catch_different,image_2_text_catch_different,image_catch_different
space,29.076705,space,9.409995,4,17.8427,0,0,0,22,1,there is a white vase and tray next to the mirror on this desk.,"there is a white vase, tray and lantern next to the mirror on this desk.",wolfe2,064_R_bottles,1,28,A3OTBMKOEQ410P,2021-01-26_10h26.49.634,MetaAwareness,2020.1.2,Win32,60,3KLL7H3EGE4R6FWL5RZV66I07ALHV8,A3OTBMKOEQ410P,3L4D84MIL0VL14ULE4QER12U24HJHU,I84L5,I84L5,3L4D84MIL0VL14ULE4QER12U24HJHU,3L4D84MIL0VL14ULE4QER12U24HJHU,271465,271465,,,,,,,,,,
,,,,3,47.9782,0,1,1,29,1,a pristine sitting room with a coffee table that holds multiple plants,a pristine sitting room with a coffee table that holds multiple plants and a book,wolfe2,074_R_book,1,28,A3OTBMKOEQ410P,2021-01-26_10h26.49.634,MetaAwareness,2020.1.2,Win32,60,3KLL7H3EGE4R6FWL5RZV66I07ALHV8,A3OTBMKOEQ410P,3L4D84MIL0VL14ULE4QER12U24HJHU,I84L5,I84L5,3L4D84MIL0VL14ULE4QER12U24HJHU,3L4D84MIL0VL14ULE4QER12U24HJHU,271465,271465,,,,,,,,,,
,,,,5,7.45605,0,2,2,32,1,a beach side living room with no decorations on the wall,a beach side living room with lights as decorations on the wall,wolfe2,084_L_light,5,28,A3OTBMKOEQ410P,2021-01-26_10h26.49.634,MetaAwareness,2020.1.2,Win32,60,3KLL7H3EGE4R6FWL5RZV66I07ALHV8,A3OTBMKOEQ410P,3L4D84MIL0VL14ULE4QER12U24HJHU,I84L5,I84L5,3L4D84MIL0VL14ULE4QER12U24HJHU,3L4D84MIL0VL14ULE4QER12U24HJHU,271465,271465,,,,,,,,,,
,,,,2,54.09227,0,3,3,15,1,a modern bedroom that is well-decorated with lots of accent pieces and good lighting.,"a modern bedroom that is well-decorated with lots of accent pieces, including a table that has vases and a bowl of fruit.",wolfe2,035_L_fruit,1,28,A3OTBMKOEQ410P,2021-01-26_10h26.49.634,MetaAwareness,2020.1.2,Win32,60,3KLL7H3EGE4R6FWL5RZV66I07ALHV8,A3OTBMKOEQ410P,3L4D84MIL0VL14ULE4QER12U24HJHU,I84L5,I84L5,3L4D84MIL0VL14ULE4QER12U24HJHU,3L4D84MIL0VL14ULE4QER12U24HJHU,271465,271465,,,,,,,,,,
,,,,4,11.812545,0,4,4,12,1,the glass was very nice to see and i like that colour there are 2 glass,the glass are very nice to see and ther are num_3 glass,wolfe2,029_L_glass,2,28,A3OTBMKOEQ410P,2021-01-26_10h26.49.634,MetaAwareness,2020.1.2,Win32,60,3KLL7H3EGE4R6FWL5RZV66I07ALHV8,A3OTBMKOEQ410P,3L4D84MIL0VL14ULE4QER12U24HJHU,I84L5,I84L5,3L4D84MIL0VL14ULE4QER12U24HJHU,3L4D84MIL0VL14ULE4QER12U24HJHU,271465,271465,,,,,,,,,,
,,,,5,10.37848,0,5,5,16,1,this dining room is cozy and has a nice little table as well as plenty of natural light.,"this dining room has a lovely view of the outside, as well as a small but comfortable looking table set. on the wall there is a quaint looking piece of art that almost looks like a puzzle piece.",wolfe2,038_L_art,2,28,A3OTBMKOEQ410P,2021-01-26_10h26.49.634,MetaAwareness,2020.1.2,Win32,60,3KLL7H3EGE4R6FWL5RZV66I07ALHV8,A3OTBMKOEQ410P,3L4D84MIL0VL14ULE4QER12U24HJHU,I84L5,I84L5,3L4D84MIL0VL14ULE4QER12U24HJHU,3L4D84MIL0VL14ULE4QER12U24HJHU,271465,271465,,,,,,,,,,
,,,,2,7.614055,0,6,6,17,1,large living or entretainment room with multiple screens and sofas,living room with a decoration on the left shelf close to the television,wolfe2,043_L_clock,2,28,A3OTBMKOEQ410P,2021-01-26_10h26.49.634,MetaAwareness,2020.1.2,Win32,60,3KLL7H3EGE4R6FWL5RZV66I07ALHV8,A3OTBMKOEQ410P,3L4D84MIL0VL14ULE4QER12U24HJHU,I84L5,I84L5,3L4D84MIL0VL14ULE4QER12U24HJHU,3L4D84MIL0VL14ULE4QER12U24HJHU,271465,271465,,,,,,,,,,
,,,,5,13.32783,0,7,7,1,1,a set table that is missing one orange napkin in a dining hall,a set table with orange napkins on all settings in a dining hall,wolfe2,002_R_napkin,1,28,A3OTBMKOEQ410P,2021-01-26_10h26.49.634,MetaAwareness,2020.1.2,Win32,60,3KLL7H3EGE4R6FWL5RZV66I07ALHV8,A3OTBMKOEQ410P,3L4D84MIL0VL14ULE4QER12U24HJHU,I84L5,I84L5,3L4D84MIL0VL14ULE4QER12U24HJHU,3L4D84MIL0VL14ULE4QER12U24HJHU,271465,271465,,,,,,,,,,
,,,,5,4.04799,0,8,8,20,1,a beautiful white sofa,a beautiful white sofa with a towel at the end of sofa.,wolfe2,056_L_comforter,4,28,A3OTBMKOEQ410P,2021-01-26_10h26.49.634,MetaAwareness,2020.1.2,Win32,60,3KLL7H3EGE4R6FWL5RZV66I07ALHV8,A3OTBMKOEQ410P,3L4D84MIL0VL14ULE4QER12U24HJHU,I84L5,I84L5,3L4D84MIL0VL14ULE4QER12U24HJHU,3L4D84MIL0VL14ULE4QER12U24HJHU,271465,271465,,,,,,,,,,
,,,,5,7.36277,0,9,9,21,1,"a dining room with four chairs, a table and five wine glasses","a dining room with four chairs, a table, and six wine glasses.",wolfe2,061_R_glass,2,28,A3OTBMKOEQ410P,2021-01-26_10h26.49.634,MetaAwareness,2020.1.2,Win32,60,3KLL7H3EGE4R6FWL5RZV66I07ALHV8,A3OTBMKOEQ410P,3L4D84MIL0VL14ULE4QER12U24HJHU,I84L5,I84L5,3L4D84MIL0VL14ULE4QER12U24HJHU,3L4D84MIL0VL14ULE4QER12U24HJHU,271465,271465,,,,,,,,,,
,,,,5,12.26754,0,10,10,42,1,"a living room with cream-color furnature, a white fireplace, large windows, and a decorative item on the fireplace mantle","a living room with cream color furnature, a white fireplace with a white mantle, large windows, and tan walls",wolfe2,120_R_art,1,28,A3OTBMKOEQ410P,2021-01-26_10h26.49.634,MetaAwareness,2020.1.2,Win32,60,3KLL7H3EGE4R6FWL5RZV66I07ALHV8,A3OTBMKOEQ410P,3L4D84MIL0VL14ULE4QER12U24HJHU,I84L5,I84L5,3L4D84MIL0VL14ULE4QER12U24HJHU,3L4D84MIL0VL14ULE4QER12U24HJHU,271465,271465,,,,,,,,,,
,,,,5,10.588235,0,11,11,41,1,"a very sparsley decorated room with some furniture, a piano, and two pictures hanging on the walls.","a very sparsley decorated room with some furntiture, a piano, and one picture hanging on the wall.",wolfe2,119_R_painting,5,28,A3OTBMKOEQ410P,2021-01-26_10h26.49.634,MetaAwareness,2020.1.2,Win32,60,3KLL7H3EGE4R6FWL5RZV66I07ALHV8,A3OTBMKOEQ410P,3L4D84MIL0VL14ULE4QER12U24HJHU,I84L5,I84L5,3L4D84MIL0VL14ULE4QER12U24HJHU,3L4D84MIL0VL14ULE4QER12U24HJHU,271465,271465,,,,,,,,,,
,,,,5,9.06101,0,12,12,9,1,an outside porch with two chairs and one plant against the windows of the house,an outside porch with two chairs and two plants against the wall of the house,wolfe2,018_R_plant,2,28,A3OTBMKOEQ410P,2021-01-26_10h26.49.634,MetaAwareness,2020.1.2,Win32,60,3KLL7H3EGE4R6FWL5RZV66I07ALHV8,A3OTBMKOEQ410P,3L4D84MIL0VL14ULE4QER12U24HJHU,I84L5,I84L5,3L4D84MIL0VL14ULE4QER12U24HJHU,3L4D84MIL0VL14ULE4QER12U24HJHU,271465,271465,,,,,,,,,,
,,,,4,8.110345,0,13,13,7,1,a large living room in neutral tones with no light directly over the coffee table,a large living room in neutral tones with a light directly over the coffee table,wolfe2,015_L_ceilinglight,4,28,A3OTBMKOEQ410P,2021-01-26_10h26.49.634,MetaAwareness,2020.1.2,Win32,60,3KLL7H3EGE4R6FWL5RZV66I07ALHV8,A3OTBMKOEQ410P,3L4D84MIL0VL14ULE4QER12U24HJHU,I84L5,I84L5,3L4D84MIL0VL14ULE4QER12U24HJHU,3L4D84MIL0VL14ULE4QER12U24HJHU,271465,271465,,,,,,,,,,
,,,,4,9.294735,0,14,14,27,1,a sitting room crowded with furniture and an empty spot to the right of one of the lamps.,a sitting room crowded with furniture and a vase next to one of the lamps.,wolfe2,071_L_art,1,28,A3OTBMKOEQ410P,2021-01-26_10h26.49.634,MetaAwareness,2020.1.2,Win32,60,3KLL7H3EGE4R6FWL5RZV66I07ALHV8,A3OTBMKOEQ410P,3L4D84MIL0VL14ULE4QER12U24HJHU,I84L5,I84L5,3L4D84MIL0VL14ULE4QER12U24HJHU,3L4D84MIL0VL14ULE4QER12U24HJHU,271465,271465,,,,,,,,,,
,,,,3,10.56219,0,15,15,14,1,a bottle sitting on a circular structure and shelf,two bottles sitting on a floating shelf,wolfe2,032_R_bottle,6,28,A3OTBMKOEQ410P,2021-01-26_10h26.49.634,MetaAwareness,2020.1.2,Win32,60,3KLL7H3EGE4R6FWL5RZV66I07ALHV8,A3OTBMKOEQ410P,3L4D84MIL0VL14ULE4QER12U24HJHU,I84L5,I84L5,3L4D84MIL0VL14ULE4QER12U24HJHU,3L4D84MIL0VL14ULE4QER12U24HJHU,271465,271465,,,,,,,,,,
,,,,6,33.658285,0,16,16,26,1,"a white, bright, upscale living room with one light fixture next to the mirror","a white, bright, upscale living room with a light fixture on either side of the mirror",wolfe2,070_R_lamp,5,28,A3OTBMKOEQ410P,2021-01-26_10h26.49.634,MetaAwareness,2020.1.2,Win32,60,3KLL7H3EGE4R6FWL5RZV66I07ALHV8,A3OTBMKOEQ410P,3L4D84MIL0VL14ULE4QER12U24HJHU,I84L5,I84L5,3L4D84MIL0VL14ULE4QER12U24HJHU,3L4D84MIL0VL14ULE4QER12U24HJHU,271465,271465,,,,,,,,,,
,,,,5,4.93642,0,17,17,31,1,vintage style bedroom with grey walls,vintage style bedroom with grey walls and a nightstand which holds a small dish,wolfe2,082_R_bowl,1,28,A3OTBMKOEQ410P,2021-01-26_10h26.49.634,MetaAwareness,2020.1.2,Win32,60,3KLL7H3EGE4R6FWL5RZV66I07ALHV8,A3OTBMKOEQ410P,3L4D84MIL0VL14ULE4QER12U24HJHU,I84L5,I84L5,3L4D84MIL0VL14ULE4QER12U24HJHU,3L4D84MIL0VL14ULE4QER12U24HJHU,271465,271465,,,,,,,,,,
,,,,2,4.03314,0,18,18,23,1,a nice appartment with simple colors,an object missing from the room but i am unsure of what the object is,wolfe2,066_R_vase,3,28,A3OTBMKOEQ410P,2021-01-26_10h26.49.634,MetaAwareness,2020.1.2,Win32,60,3KLL7H3EGE4R6FWL5RZV66I07ALHV8,A3OTBMKOEQ410P,3L4D84MIL0VL14ULE4QER12U24HJHU,I84L5,I84L5,3L4D84MIL0VL14ULE4QER12U24HJHU,3L4D84MIL0VL14ULE4QER12U24HJHU,271465,271465,,,,,,,,,,
,,,,5,9.03134,0,19,19,13,1,"a modern bathroom with twin rectangular sinks, a glass shower and shelving. the shelf above the left sink has two red glasses","a modern bathroom with twin rectangular sinks, a glass shower and shelving.  the shelf above the left sink has three glasses.",wolfe2,029_L_glass,3,28,A3OTBMKOEQ410P,2021-01-26_10h26.49.634,MetaAwareness,2020.1.2,Win32,60,3KLL7H3EGE4R6FWL5RZV66I07ALHV8,A3OTBMKOEQ410P,3L4D84MIL0VL14ULE4QER12U24HJHU,I84L5,I84L5,3L4D84MIL0VL14ULE4QER12U24HJHU,3L4D84MIL0VL14ULE4QER12U24HJHU,271465,271465,,,,,,,,,,
,,,,4,10.447295,0,20,20,19,1,a rustic style bathroom with stone floors and a dresser with one drawer handle,a rustic style bathroom with stone floors and a dresser with two drawer handles,wolfe2,053_R_handle,4,28,A3OTBMKOEQ410P,2021-01-26_10h26.49.634,MetaAwareness,2020.1.2,Win32,60,3KLL7H3EGE4R6FWL5RZV66I07ALHV8,A3OTBMKOEQ410P,3L4D84MIL0VL14ULE4QER12U24HJHU,I84L5,I84L5,3L4D84MIL0VL14ULE4QER12U24HJHU,3L4D84MIL0VL14ULE4QER12U24HJHU,271465,271465,,,,,,,,,,
,,,,4,268.153615,0,21,21,44,1,a spacious conversation room with large windows and a white vase sitting on the floor,a spacious conversation room with large windows and no vase sitting on the floor,wolfe2,124_R_vase,4,28,A3OTBMKOEQ410P,2021-01-26_10h26.49.634,MetaAwareness,2020.1.2,Win32,60,3KLL7H3EGE4R6FWL5RZV66I07ALHV8,A3OTBMKOEQ410P,3L4D84MIL0VL14ULE4QER12U24HJHU,I84L5,I84L5,3L4D84MIL0VL14ULE4QER12U24HJHU,3L4D84MIL0VL14ULE4QER12U24HJHU,271465,271465,,,,,,,,,,
,,,,3,7.44757,0,22,22,39,1,this is an enclosed outside patio. there is wicker patio furniture and a flower vase next to the chair on the right side.,the enclosed outside patio shows wicker furniture with a chair to the right of the couch.,wolfe2,112_R_basket,2,28,A3OTBMKOEQ410P,2021-01-26_10h26.49.634,MetaAwareness,2020.1.2,Win32,60,3KLL7H3EGE4R6FWL5RZV66I07ALHV8,A3OTBMKOEQ410P,3L4D84MIL0VL14ULE4QER12U24HJHU,I84L5,I84L5,3L4D84MIL0VL14ULE4QER12U24HJHU,3L4D84MIL0VL14ULE4QER12U24HJHU,271465,271465,,,,,,,,,,
,,,,4,8.597435,0,23,23,43,1,a sun room with a hot tub and a potted plant on its far left corner,a sun room with a hot tub and no potted plant on its far left corner,wolfe2,123_L_pot,5,28,A3OTBMKOEQ410P,2021-01-26_10h26.49.634,MetaAwareness,2020.1.2,Win32,60,3KLL7H3EGE4R6FWL5RZV66I07ALHV8,A3OTBMKOEQ410P,3L4D84MIL0VL14ULE4QER12U24HJHU,I84L5,I84L5,3L4D84MIL0VL14ULE4QER12U24HJHU,3L4D84MIL0VL14ULE4QER12U24HJHU,271465,271465,,,,,,,,,,
,,,,5,4.29926,0,24,24,6,1,a dining area froma  restaurant with three lights on the wall,a dining area from a restaurant with four lights on the wall,wolfe2,014_R_lamp,3,28,A3OTBMKOEQ410P,2021-01-26_10h26.49.634,MetaAwareness,2020.1.2,Win32,60,3KLL7H3EGE4R6FWL5RZV66I07ALHV8,A3OTBMKOEQ410P,3L4D84MIL0VL14ULE4QER12U24HJHU,I84L5,I84L5,3L4D84MIL0VL14ULE4QER12U24HJHU,3L4D84MIL0VL14ULE4QER12U24HJHU,271465,271465,,,,,,,,,,
,,,,3,15.06052,0,25,25,11,1,a family lounge area of middle class flavor,the remote control for the family tv room,wolfe2,023_L_remote,7,28,A3OTBMKOEQ410P,2021-01-26_10h26.49.634,MetaAwareness,2020.1.2,Win32,60,3KLL7H3EGE4R6FWL5RZV66I07ALHV8,A3OTBMKOEQ410P,3L4D84MIL0VL14ULE4QER12U24HJHU,I84L5,I84L5,3L4D84MIL0VL14ULE4QER12U24HJHU,3L4D84MIL0VL14ULE4QER12U24HJHU,271465,271465,,,,,,,,,,
,,,,5,72.94916,0,26,26,24,1,the walls in the modern living room are painted black.  there is also white leather furniture.,there is a white vase on a white leather loveseat in a modern living room with black and white walls,wolfe2,066_R_vase,4,28,A3OTBMKOEQ410P,2021-01-26_10h26.49.634,MetaAwareness,2020.1.2,Win32,60,3KLL7H3EGE4R6FWL5RZV66I07ALHV8,A3OTBMKOEQ410P,3L4D84MIL0VL14ULE4QER12U24HJHU,I84L5,I84L5,3L4D84MIL0VL14ULE4QER12U24HJHU,3L4D84MIL0VL14ULE4QER12U24HJHU,271465,271465,,,,,,,,,,
,,,,3,86.509155,0,27,27,35,1,a green t shirt laying on the ground of a modern bedroom,a sleek and modern bedroom with white tile flooring,wolfe2,098_L_slippers,1,28,A3OTBMKOEQ410P,2021-01-26_10h26.49.634,MetaAwareness,2020.1.2,Win32,60,3KLL7H3EGE4R6FWL5RZV66I07ALHV8,A3OTBMKOEQ410P,3L4D84MIL0VL14ULE4QER12U24HJHU,I84L5,I84L5,3L4D84MIL0VL14ULE4QER12U24HJHU,3L4D84MIL0VL14ULE4QER12U24HJHU,271465,271465,,,,,,,,,,
,,,,6,4.449385,0,28,28,33,1,a hair salon with paintings on thewall,a hair salon with two paintings on the wall,wolfe2,089_R_poster,4,28,A3OTBMKOEQ410P,2021-01-26_10h26.49.634,MetaAwareness,2020.1.2,Win32,60,3KLL7H3EGE4R6FWL5RZV66I07ALHV8,A3OTBMKOEQ410P,3L4D84MIL0VL14ULE4QER12U24HJHU,I84L5,I84L5,3L4D84MIL0VL14ULE4QER12U24HJHU,3L4D84MIL0VL14ULE4QER12U24HJHU,271465,271465,,,,,,,,,,
,,,,4,48.057255,0,29,29,40,1,a spacious living room with a picture portrait mounted on the left side of the wall,a spacious living room without a picture portrait on the left side of the wall,wolfe2,119_L_painting,3,28,A3OTBMKOEQ410P,2021-01-26_10h26.49.634,MetaAwareness,2020.1.2,Win32,60,3KLL7H3EGE4R6FWL5RZV66I07ALHV8,A3OTBMKOEQ410P,3L4D84MIL0VL14ULE4QER12U24HJHU,I84L5,I84L5,3L4D84MIL0VL14ULE4QER12U24HJHU,3L4D84MIL0VL14ULE4QER12U24HJHU,271465,271465,,,,,,,,,,
,,,,,,,,,,,,,,,,28,A3OTBMKOEQ410P,2021-01-26_10h26.49.634,MetaAwareness,2020.1.2,Win32,60,3KLL7H3EGE4R6FWL5RZV66I07ALHV8,A3OTBMKOEQ410P,3L4D84MIL0VL14ULE4QER12U24HJHU,I84L5,I84L5,3L4D84MIL0VL14ULE4QER12U24HJHU,3L4D84MIL0VL14ULE4QER12U24HJHU,271465,271465,6,14.527355,someone laying underneath a blue beach umbrella on a crowded beach,someone laying underneath a blue beach umbrella on a crowded beach,same,2,3.566435,members of a marching band crossing a track that all have feather plumes at the front of their hats,a cluttered and rustic looking cafe with 10 hanging lights,different
