consent_response.keys,consent_response.rt,key_resp_2.keys,key_resp_2.rt,user_resp.keys,user_resp.rt,trials.thisRepN,trials.thisTrialN,trials.thisN,trials.thisIndex,trials.ran,image_1_text,image_2_text,database,image,number,age,worker_ID,date,expName,psychopyVersion,OS,frameRate,hitId,workerId,assignmentId,a,tp_a,b,tp_b,c,tp_c,catch_same_resp.keys,catch_same_resp.rt,image_1_text_catch_same,image_2_text_catch_same,image_catch_same,catch_different_resp.keys,catch_different_resp.rt,image_1_text_catch_different,image_2_text_catch_different,image_catch_different
space,3.80107,space,14.29502,2,10.503895,0,0,0,43,1,a sun room with a hot tub and a potted plant on its far left corner,a sun room with a hot tub and no potted plant on its far left corner,wolfe2,123_L_pot,5,34,AOXM7IK32TST5,2021-01-26_12h55.33.996,MetaAwareness,2020.1.2,Win32,60,3WRBLBQ2GSBXDI0UIOTO0DG9YEYG0J,AOXM7IK32TST5,3G5F9DBFOQ0USZUFVT4XUPDOXR4HVT,F95G5,F95G5,3G5F9DBFOQ0USZUFVT4XUPDOXR4HVT,3G5F9DBFOQ0USZUFVT4XUPDOXR4HVT,271465,271465,,,,,,,,,,
,,,,2,8.37127,0,1,1,7,1,a large living room in neutral tones with no light directly over the coffee table,a large living room in neutral tones with a light directly over the coffee table,wolfe2,015_L_ceilinglight,4,34,AOXM7IK32TST5,2021-01-26_12h55.33.996,MetaAwareness,2020.1.2,Win32,60,3WRBLBQ2GSBXDI0UIOTO0DG9YEYG0J,AOXM7IK32TST5,3G5F9DBFOQ0USZUFVT4XUPDOXR4HVT,F95G5,F95G5,3G5F9DBFOQ0USZUFVT4XUPDOXR4HVT,3G5F9DBFOQ0USZUFVT4XUPDOXR4HVT,271465,271465,,,,,,,,,,
,,,,1,9.99424,0,2,2,17,1,large living or entretainment room with multiple screens and sofas,living room with a decoration on the left shelf close to the television,wolfe2,043_L_clock,2,34,AOXM7IK32TST5,2021-01-26_12h55.33.996,MetaAwareness,2020.1.2,Win32,60,3WRBLBQ2GSBXDI0UIOTO0DG9YEYG0J,AOXM7IK32TST5,3G5F9DBFOQ0USZUFVT4XUPDOXR4HVT,F95G5,F95G5,3G5F9DBFOQ0USZUFVT4XUPDOXR4HVT,3G5F9DBFOQ0USZUFVT4XUPDOXR4HVT,271465,271465,,,,,,,,,,
,,,,1,15.530105,0,3,3,35,1,a green t shirt laying on the ground of a modern bedroom,a sleek and modern bedroom with white tile flooring,wolfe2,098_L_slippers,1,34,AOXM7IK32TST5,2021-01-26_12h55.33.996,MetaAwareness,2020.1.2,Win32,60,3WRBLBQ2GSBXDI0UIOTO0DG9YEYG0J,AOXM7IK32TST5,3G5F9DBFOQ0USZUFVT4XUPDOXR4HVT,F95G5,F95G5,3G5F9DBFOQ0USZUFVT4XUPDOXR4HVT,3G5F9DBFOQ0USZUFVT4XUPDOXR4HVT,271465,271465,,,,,,,,,,
,,,,4,10.25247,0,4,4,6,1,a dining area froma  restaurant with three lights on the wall,a dining area from a restaurant with four lights on the wall,wolfe2,014_R_lamp,3,34,AOXM7IK32TST5,2021-01-26_12h55.33.996,MetaAwareness,2020.1.2,Win32,60,3WRBLBQ2GSBXDI0UIOTO0DG9YEYG0J,AOXM7IK32TST5,3G5F9DBFOQ0USZUFVT4XUPDOXR4HVT,F95G5,F95G5,3G5F9DBFOQ0USZUFVT4XUPDOXR4HVT,3G5F9DBFOQ0USZUFVT4XUPDOXR4HVT,271465,271465,,,,,,,,,,
,,,,2,11.034265,0,5,5,24,1,the walls in the modern living room are painted black.  there is also white leather furniture.,there is a white vase on a white leather loveseat in a modern living room with black and white walls,wolfe2,066_R_vase,4,34,AOXM7IK32TST5,2021-01-26_12h55.33.996,MetaAwareness,2020.1.2,Win32,60,3WRBLBQ2GSBXDI0UIOTO0DG9YEYG0J,AOXM7IK32TST5,3G5F9DBFOQ0USZUFVT4XUPDOXR4HVT,F95G5,F95G5,3G5F9DBFOQ0USZUFVT4XUPDOXR4HVT,3G5F9DBFOQ0USZUFVT4XUPDOXR4HVT,271465,271465,,,,,,,,,,
,,,,1,3.846165,0,6,6,11,1,a family lounge area of middle class flavor,the remote control for the family tv room,wolfe2,023_L_remote,7,34,AOXM7IK32TST5,2021-01-26_12h55.33.996,MetaAwareness,2020.1.2,Win32,60,3WRBLBQ2GSBXDI0UIOTO0DG9YEYG0J,AOXM7IK32TST5,3G5F9DBFOQ0USZUFVT4XUPDOXR4HVT,F95G5,F95G5,3G5F9DBFOQ0USZUFVT4XUPDOXR4HVT,3G5F9DBFOQ0USZUFVT4XUPDOXR4HVT,271465,271465,,,,,,,,,,
,,,,5,3.211735,0,7,7,33,1,a hair salon with paintings on thewall,a hair salon with two paintings on the wall,wolfe2,089_R_poster,4,34,AOXM7IK32TST5,2021-01-26_12h55.33.996,MetaAwareness,2020.1.2,Win32,60,3WRBLBQ2GSBXDI0UIOTO0DG9YEYG0J,AOXM7IK32TST5,3G5F9DBFOQ0USZUFVT4XUPDOXR4HVT,F95G5,F95G5,3G5F9DBFOQ0USZUFVT4XUPDOXR4HVT,3G5F9DBFOQ0USZUFVT4XUPDOXR4HVT,271465,271465,,,,,,,,,,
,,,,5,8.474355,0,8,8,26,1,"a white, bright, upscale living room with one light fixture next to the mirror","a white, bright, upscale living room with a light fixture on either side of the mirror",wolfe2,070_R_lamp,5,34,AOXM7IK32TST5,2021-01-26_12h55.33.996,MetaAwareness,2020.1.2,Win32,60,3WRBLBQ2GSBXDI0UIOTO0DG9YEYG0J,AOXM7IK32TST5,3G5F9DBFOQ0USZUFVT4XUPDOXR4HVT,F95G5,F95G5,3G5F9DBFOQ0USZUFVT4XUPDOXR4HVT,3G5F9DBFOQ0USZUFVT4XUPDOXR4HVT,271465,271465,,,,,,,,,,
,,,,5,4.01742,0,9,9,31,1,vintage style bedroom with grey walls,vintage style bedroom with grey walls and a nightstand which holds a small dish,wolfe2,082_R_bowl,1,34,AOXM7IK32TST5,2021-01-26_12h55.33.996,MetaAwareness,2020.1.2,Win32,60,3WRBLBQ2GSBXDI0UIOTO0DG9YEYG0J,AOXM7IK32TST5,3G5F9DBFOQ0USZUFVT4XUPDOXR4HVT,F95G5,F95G5,3G5F9DBFOQ0USZUFVT4XUPDOXR4HVT,3G5F9DBFOQ0USZUFVT4XUPDOXR4HVT,271465,271465,,,,,,,,,,
,,,,3,4.10848,0,10,10,18,1,a bedroom with no pictures near the mirror.,a bedroom with a picture hanging near the mirror.,wolfe2,049_R_painting,2,34,AOXM7IK32TST5,2021-01-26_12h55.33.996,MetaAwareness,2020.1.2,Win32,60,3WRBLBQ2GSBXDI0UIOTO0DG9YEYG0J,AOXM7IK32TST5,3G5F9DBFOQ0USZUFVT4XUPDOXR4HVT,F95G5,F95G5,3G5F9DBFOQ0USZUFVT4XUPDOXR4HVT,3G5F9DBFOQ0USZUFVT4XUPDOXR4HVT,271465,271465,,,,,,,,,,
,,,,5,3.03365,0,11,11,4,1,nice family blue bathroom,modern blue clean bathroom,wolfe2,008_R_bottle,6,34,AOXM7IK32TST5,2021-01-26_12h55.33.996,MetaAwareness,2020.1.2,Win32,60,3WRBLBQ2GSBXDI0UIOTO0DG9YEYG0J,AOXM7IK32TST5,3G5F9DBFOQ0USZUFVT4XUPDOXR4HVT,F95G5,F95G5,3G5F9DBFOQ0USZUFVT4XUPDOXR4HVT,3G5F9DBFOQ0USZUFVT4XUPDOXR4HVT,271465,271465,,,,,,,,,,
,,,,3,6.62853,0,12,12,40,1,a spacious living room with a picture portrait mounted on the left side of the wall,a spacious living room without a picture portrait on the left side of the wall,wolfe2,119_L_painting,3,34,AOXM7IK32TST5,2021-01-26_12h55.33.996,MetaAwareness,2020.1.2,Win32,60,3WRBLBQ2GSBXDI0UIOTO0DG9YEYG0J,AOXM7IK32TST5,3G5F9DBFOQ0USZUFVT4XUPDOXR4HVT,F95G5,F95G5,3G5F9DBFOQ0USZUFVT4XUPDOXR4HVT,3G5F9DBFOQ0USZUFVT4XUPDOXR4HVT,271465,271465,,,,,,,,,,
,,,,5,4.95599,0,13,13,15,1,a modern bedroom that is well-decorated with lots of accent pieces and good lighting.,"a modern bedroom that is well-decorated with lots of accent pieces, including a table that has vases and a bowl of fruit.",wolfe2,035_L_fruit,1,34,AOXM7IK32TST5,2021-01-26_12h55.33.996,MetaAwareness,2020.1.2,Win32,60,3WRBLBQ2GSBXDI0UIOTO0DG9YEYG0J,AOXM7IK32TST5,3G5F9DBFOQ0USZUFVT4XUPDOXR4HVT,F95G5,F95G5,3G5F9DBFOQ0USZUFVT4XUPDOXR4HVT,3G5F9DBFOQ0USZUFVT4XUPDOXR4HVT,271465,271465,,,,,,,,,,
,,,,4,10.61149,0,14,14,42,1,"a living room with cream-color furnature, a white fireplace, large windows, and a decorative item on the fireplace mantle","a living room with cream color furnature, a white fireplace with a white mantle, large windows, and tan walls",wolfe2,120_R_art,1,34,AOXM7IK32TST5,2021-01-26_12h55.33.996,MetaAwareness,2020.1.2,Win32,60,3WRBLBQ2GSBXDI0UIOTO0DG9YEYG0J,AOXM7IK32TST5,3G5F9DBFOQ0USZUFVT4XUPDOXR4HVT,F95G5,F95G5,3G5F9DBFOQ0USZUFVT4XUPDOXR4HVT,3G5F9DBFOQ0USZUFVT4XUPDOXR4HVT,271465,271465,,,,,,,,,,
,,,,4,7.545955,0,15,15,27,1,a sitting room crowded with furniture and an empty spot to the right of one of the lamps.,a sitting room crowded with furniture and a vase next to one of the lamps.,wolfe2,071_L_art,1,34,AOXM7IK32TST5,2021-01-26_12h55.33.996,MetaAwareness,2020.1.2,Win32,60,3WRBLBQ2GSBXDI0UIOTO0DG9YEYG0J,AOXM7IK32TST5,3G5F9DBFOQ0USZUFVT4XUPDOXR4HVT,F95G5,F95G5,3G5F9DBFOQ0USZUFVT4XUPDOXR4HVT,3G5F9DBFOQ0USZUFVT4XUPDOXR4HVT,271465,271465,,,,,,,,,,
,,,,3,5.14044,0,16,16,1,1,a set table that is missing one orange napkin in a dining hall,a set table with orange napkins on all settings in a dining hall,wolfe2,002_R_napkin,1,34,AOXM7IK32TST5,2021-01-26_12h55.33.996,MetaAwareness,2020.1.2,Win32,60,3WRBLBQ2GSBXDI0UIOTO0DG9YEYG0J,AOXM7IK32TST5,3G5F9DBFOQ0USZUFVT4XUPDOXR4HVT,F95G5,F95G5,3G5F9DBFOQ0USZUFVT4XUPDOXR4HVT,3G5F9DBFOQ0USZUFVT4XUPDOXR4HVT,271465,271465,,,,,,,,,,
,,,,4,7.09301,0,17,17,39,1,this is an enclosed outside patio. there is wicker patio furniture and a flower vase next to the chair on the right side.,the enclosed outside patio shows wicker furniture with a chair to the right of the couch.,wolfe2,112_R_basket,2,34,AOXM7IK32TST5,2021-01-26_12h55.33.996,MetaAwareness,2020.1.2,Win32,60,3WRBLBQ2GSBXDI0UIOTO0DG9YEYG0J,AOXM7IK32TST5,3G5F9DBFOQ0USZUFVT4XUPDOXR4HVT,F95G5,F95G5,3G5F9DBFOQ0USZUFVT4XUPDOXR4HVT,3G5F9DBFOQ0USZUFVT4XUPDOXR4HVT,271465,271465,,,,,,,,,,
,,,,3,4.360355,0,18,18,28,1,a nice living room without a flower vessel on top of the cupboards,a nice living room with a flower vessel on top of the cupboard,wolfe2,071_L_art,4,34,AOXM7IK32TST5,2021-01-26_12h55.33.996,MetaAwareness,2020.1.2,Win32,60,3WRBLBQ2GSBXDI0UIOTO0DG9YEYG0J,AOXM7IK32TST5,3G5F9DBFOQ0USZUFVT4XUPDOXR4HVT,F95G5,F95G5,3G5F9DBFOQ0USZUFVT4XUPDOXR4HVT,3G5F9DBFOQ0USZUFVT4XUPDOXR4HVT,271465,271465,,,,,,,,,,
,,,,2,4.129025,0,19,19,8,1,a minimalized room with a view,the same minimalized with a picture missing,wolfe2,016_R_art,2,34,AOXM7IK32TST5,2021-01-26_12h55.33.996,MetaAwareness,2020.1.2,Win32,60,3WRBLBQ2GSBXDI0UIOTO0DG9YEYG0J,AOXM7IK32TST5,3G5F9DBFOQ0USZUFVT4XUPDOXR4HVT,F95G5,F95G5,3G5F9DBFOQ0USZUFVT4XUPDOXR4HVT,3G5F9DBFOQ0USZUFVT4XUPDOXR4HVT,271465,271465,,,,,,,,,,
,,,,2,3.22828,0,20,20,2,1,no cell towers are appears,there is a cell tower are appear,wolfe2,004_R_electricalgrid,1,34,AOXM7IK32TST5,2021-01-26_12h55.33.996,MetaAwareness,2020.1.2,Win32,60,3WRBLBQ2GSBXDI0UIOTO0DG9YEYG0J,AOXM7IK32TST5,3G5F9DBFOQ0USZUFVT4XUPDOXR4HVT,F95G5,F95G5,3G5F9DBFOQ0USZUFVT4XUPDOXR4HVT,3G5F9DBFOQ0USZUFVT4XUPDOXR4HVT,271465,271465,,,,,,,,,,
,,,,4,4.72128,0,21,21,22,1,there is a white vase and tray next to the mirror on this desk.,"there is a white vase, tray and lantern next to the mirror on this desk.",wolfe2,064_R_bottles,1,34,AOXM7IK32TST5,2021-01-26_12h55.33.996,MetaAwareness,2020.1.2,Win32,60,3WRBLBQ2GSBXDI0UIOTO0DG9YEYG0J,AOXM7IK32TST5,3G5F9DBFOQ0USZUFVT4XUPDOXR4HVT,F95G5,F95G5,3G5F9DBFOQ0USZUFVT4XUPDOXR4HVT,3G5F9DBFOQ0USZUFVT4XUPDOXR4HVT,271465,271465,,,,,,,,,,
,,,,5,3.13538,0,22,22,25,1,a living room decorated with flowers and candles,a living room decorated with flowers,wolfe2,069_L_things,1,34,AOXM7IK32TST5,2021-01-26_12h55.33.996,MetaAwareness,2020.1.2,Win32,60,3WRBLBQ2GSBXDI0UIOTO0DG9YEYG0J,AOXM7IK32TST5,3G5F9DBFOQ0USZUFVT4XUPDOXR4HVT,F95G5,F95G5,3G5F9DBFOQ0USZUFVT4XUPDOXR4HVT,3G5F9DBFOQ0USZUFVT4XUPDOXR4HVT,271465,271465,,,,,,,,,,
,,,,3,5.01262,0,23,23,44,1,a spacious conversation room with large windows and a white vase sitting on the floor,a spacious conversation room with large windows and no vase sitting on the floor,wolfe2,124_R_vase,4,34,AOXM7IK32TST5,2021-01-26_12h55.33.996,MetaAwareness,2020.1.2,Win32,60,3WRBLBQ2GSBXDI0UIOTO0DG9YEYG0J,AOXM7IK32TST5,3G5F9DBFOQ0USZUFVT4XUPDOXR4HVT,F95G5,F95G5,3G5F9DBFOQ0USZUFVT4XUPDOXR4HVT,3G5F9DBFOQ0USZUFVT4XUPDOXR4HVT,271465,271465,,,,,,,,,,
,,,,5,4.803375,0,24,24,36,1,this bathroom has a modern design and both wine glasses and a jar,you can find two wine glasses in this modern bathroom,wolfe2,101_R_cup,3,34,AOXM7IK32TST5,2021-01-26_12h55.33.996,MetaAwareness,2020.1.2,Win32,60,3WRBLBQ2GSBXDI0UIOTO0DG9YEYG0J,AOXM7IK32TST5,3G5F9DBFOQ0USZUFVT4XUPDOXR4HVT,F95G5,F95G5,3G5F9DBFOQ0USZUFVT4XUPDOXR4HVT,3G5F9DBFOQ0USZUFVT4XUPDOXR4HVT,271465,271465,,,,,,,,,,
,,,,5,4.233345,0,25,25,3,1,blue bathroom with window shelf,blue bathroom with window shelf with bottle on shelf,wolfe2,008_L_bottle,1,34,AOXM7IK32TST5,2021-01-26_12h55.33.996,MetaAwareness,2020.1.2,Win32,60,3WRBLBQ2GSBXDI0UIOTO0DG9YEYG0J,AOXM7IK32TST5,3G5F9DBFOQ0USZUFVT4XUPDOXR4HVT,F95G5,F95G5,3G5F9DBFOQ0USZUFVT4XUPDOXR4HVT,3G5F9DBFOQ0USZUFVT4XUPDOXR4HVT,271465,271465,,,,,,,,,,
,,,,4,7.103475,0,26,26,13,1,"a modern bathroom with twin rectangular sinks, a glass shower and shelving. the shelf above the left sink has two red glasses","a modern bathroom with twin rectangular sinks, a glass shower and shelving.  the shelf above the left sink has three glasses.",wolfe2,029_L_glass,3,34,AOXM7IK32TST5,2021-01-26_12h55.33.996,MetaAwareness,2020.1.2,Win32,60,3WRBLBQ2GSBXDI0UIOTO0DG9YEYG0J,AOXM7IK32TST5,3G5F9DBFOQ0USZUFVT4XUPDOXR4HVT,F95G5,F95G5,3G5F9DBFOQ0USZUFVT4XUPDOXR4HVT,3G5F9DBFOQ0USZUFVT4XUPDOXR4HVT,271465,271465,,,,,,,,,,
,,,,5,4.70732,0,27,27,9,1,an outside porch with two chairs and one plant against the windows of the house,an outside porch with two chairs and two plants against the wall of the house,wolfe2,018_R_plant,2,34,AOXM7IK32TST5,2021-01-26_12h55.33.996,MetaAwareness,2020.1.2,Win32,60,3WRBLBQ2GSBXDI0UIOTO0DG9YEYG0J,AOXM7IK32TST5,3G5F9DBFOQ0USZUFVT4XUPDOXR4HVT,F95G5,F95G5,3G5F9DBFOQ0USZUFVT4XUPDOXR4HVT,3G5F9DBFOQ0USZUFVT4XUPDOXR4HVT,271465,271465,,,,,,,,,,
,,,,3,4.852695,0,28,28,14,1,a bottle sitting on a circular structure and shelf,two bottles sitting on a floating shelf,wolfe2,032_R_bottle,6,34,AOXM7IK32TST5,2021-01-26_12h55.33.996,MetaAwareness,2020.1.2,Win32,60,3WRBLBQ2GSBXDI0UIOTO0DG9YEYG0J,AOXM7IK32TST5,3G5F9DBFOQ0USZUFVT4XUPDOXR4HVT,F95G5,F95G5,3G5F9DBFOQ0USZUFVT4XUPDOXR4HVT,3G5F9DBFOQ0USZUFVT4XUPDOXR4HVT,271465,271465,,,,,,,,,,
,,,,4,5.985705,0,29,29,16,1,this dining room is cozy and has a nice little table as well as plenty of natural light.,"this dining room has a lovely view of the outside, as well as a small but comfortable looking table set. on the wall there is a quaint looking piece of art that almost looks like a puzzle piece.",wolfe2,038_L_art,2,34,AOXM7IK32TST5,2021-01-26_12h55.33.996,MetaAwareness,2020.1.2,Win32,60,3WRBLBQ2GSBXDI0UIOTO0DG9YEYG0J,AOXM7IK32TST5,3G5F9DBFOQ0USZUFVT4XUPDOXR4HVT,F95G5,F95G5,3G5F9DBFOQ0USZUFVT4XUPDOXR4HVT,3G5F9DBFOQ0USZUFVT4XUPDOXR4HVT,271465,271465,,,,,,,,,,
,,,,,,,,,,,,,,,,34,AOXM7IK32TST5,2021-01-26_12h55.33.996,MetaAwareness,2020.1.2,Win32,60,3WRBLBQ2GSBXDI0UIOTO0DG9YEYG0J,AOXM7IK32TST5,3G5F9DBFOQ0USZUFVT4XUPDOXR4HVT,F95G5,F95G5,3G5F9DBFOQ0USZUFVT4XUPDOXR4HVT,3G5F9DBFOQ0USZUFVT4XUPDOXR4HVT,271465,271465,6,5.69671,someone laying underneath a blue beach umbrella on a crowded beach,someone laying underneath a blue beach umbrella on a crowded beach,same,1,4.172305,members of a marching band crossing a track that all have feather plumes at the front of their hats,a cluttered and rustic looking cafe with 10 hanging lights,different
