consent_response.keys,consent_response.rt,key_resp_2.keys,key_resp_2.rt,Airplane_resp.keys,Airplane_resp.rt,Boat_resp.keys,Boat_resp.rt,user_resp.keys,user_resp.rt,trials.thisRepN,trials.thisTrialN,trials.thisN,trials.thisIndex,trials.ran,workerId,trial_num,image_a,image_b,age,gender (m/f),worker_ID,date,expName,psychopyVersion,OS,frameRate,hitId,assignmentId,a,tp_a,b,tp_b,c,tp_c,Cow_resp.keys,Cow_resp.rt
space,4.64415,space,0.52661,3,7.037395,4,4.188665,4,4.35142,0,0,0,21,1,A1QUBLZCONL4QD,22,rensink_Ice-a_w_outline.jpg,rensink_Ice-b_w_outline.jpg,42,male,A1QUBLZCONL4QD,2020-10-09_15h55.53.947,MetaAwareness,2020.1.2,Win32,60,3H4IKZHALCL6869N6Y8H19LJ3RCNN2,3DIP6YHAPDVKXD70XZLHH8W2G41E8X,A6ID1,A6ID1,3DIP6YHAPDVKXD70XZLHH8W2G41E8X,3DIP6YHAPDVKXD70XZLHH8W2G41E8X,250371,250371,,
,,,,,,,,4,4.31466,0,1,1,11,1,A1QUBLZCONL4QD,12,rensink_Bus-a_w_outline.jpg,rensink_Bus-b_w_outline.jpg,42,male,A1QUBLZCONL4QD,2020-10-09_15h55.53.947,MetaAwareness,2020.1.2,Win32,60,3H4IKZHALCL6869N6Y8H19LJ3RCNN2,3DIP6YHAPDVKXD70XZLHH8W2G41E8X,A6ID1,A6ID1,3DIP6YHAPDVKXD70XZLHH8W2G41E8X,3DIP6YHAPDVKXD70XZLHH8W2G41E8X,250371,250371,,
,,,,,,,,4,5.51625,0,2,2,8,1,A1QUBLZCONL4QD,9,rensink_Chopper-a_w_outline.jpg,rensink_Chopper-b_w_outline.jpg,42,male,A1QUBLZCONL4QD,2020-10-09_15h55.53.947,MetaAwareness,2020.1.2,Win32,60,3H4IKZHALCL6869N6Y8H19LJ3RCNN2,3DIP6YHAPDVKXD70XZLHH8W2G41E8X,A6ID1,A6ID1,3DIP6YHAPDVKXD70XZLHH8W2G41E8X,3DIP6YHAPDVKXD70XZLHH8W2G41E8X,250371,250371,,
,,,,,,,,5,3.56114,0,3,3,3,1,A1QUBLZCONL4QD,4,rensink_Water-a_w_outline.jpg,rensink_Water-b_w_outline.jpg,42,male,A1QUBLZCONL4QD,2020-10-09_15h55.53.947,MetaAwareness,2020.1.2,Win32,60,3H4IKZHALCL6869N6Y8H19LJ3RCNN2,3DIP6YHAPDVKXD70XZLHH8W2G41E8X,A6ID1,A6ID1,3DIP6YHAPDVKXD70XZLHH8W2G41E8X,3DIP6YHAPDVKXD70XZLHH8W2G41E8X,250371,250371,,
,,,,,,,,5,3.156185,0,4,4,13,1,A1QUBLZCONL4QD,14,rensink_Fountain-a_w_outline.jpg,rensink_Fountain-b_w_outline.jpg,42,male,A1QUBLZCONL4QD,2020-10-09_15h55.53.947,MetaAwareness,2020.1.2,Win32,60,3H4IKZHALCL6869N6Y8H19LJ3RCNN2,3DIP6YHAPDVKXD70XZLHH8W2G41E8X,A6ID1,A6ID1,3DIP6YHAPDVKXD70XZLHH8W2G41E8X,3DIP6YHAPDVKXD70XZLHH8W2G41E8X,250371,250371,,
,,,,,,,,5,3.50791,0,5,5,19,1,A1QUBLZCONL4QD,20,rensink_Kayak-a_w_outline.jpg,rensink_Kayak-b_w_outline.jpg,42,male,A1QUBLZCONL4QD,2020-10-09_15h55.53.947,MetaAwareness,2020.1.2,Win32,60,3H4IKZHALCL6869N6Y8H19LJ3RCNN2,3DIP6YHAPDVKXD70XZLHH8W2G41E8X,A6ID1,A6ID1,3DIP6YHAPDVKXD70XZLHH8W2G41E8X,3DIP6YHAPDVKXD70XZLHH8W2G41E8X,250371,250371,,
,,,,,,,,5,0.324175,0,6,6,27,1,A1QUBLZCONL4QD,28,rensink_Lake-a_w_outline.jpg,rensink_Lake-b_w_outline.jpg,42,male,A1QUBLZCONL4QD,2020-10-09_15h55.53.947,MetaAwareness,2020.1.2,Win32,60,3H4IKZHALCL6869N6Y8H19LJ3RCNN2,3DIP6YHAPDVKXD70XZLHH8W2G41E8X,A6ID1,A6ID1,3DIP6YHAPDVKXD70XZLHH8W2G41E8X,3DIP6YHAPDVKXD70XZLHH8W2G41E8X,250371,250371,,
,,,,,,,,5,2.364215,0,7,7,22,1,A1QUBLZCONL4QD,23,rensink_Barns-a_w_outline.jpg,rensink_Barns-b_w_outline.jpg,42,male,A1QUBLZCONL4QD,2020-10-09_15h55.53.947,MetaAwareness,2020.1.2,Win32,60,3H4IKZHALCL6869N6Y8H19LJ3RCNN2,3DIP6YHAPDVKXD70XZLHH8W2G41E8X,A6ID1,A6ID1,3DIP6YHAPDVKXD70XZLHH8W2G41E8X,3DIP6YHAPDVKXD70XZLHH8W2G41E8X,250371,250371,,
,,,,,,,,5,4.020865,0,8,8,20,1,A1QUBLZCONL4QD,21,rensink_Barrels-a_w_outline.jpg,rensink_Barrels-b_w_outline.jpg,42,male,A1QUBLZCONL4QD,2020-10-09_15h55.53.947,MetaAwareness,2020.1.2,Win32,60,3H4IKZHALCL6869N6Y8H19LJ3RCNN2,3DIP6YHAPDVKXD70XZLHH8W2G41E8X,A6ID1,A6ID1,3DIP6YHAPDVKXD70XZLHH8W2G41E8X,3DIP6YHAPDVKXD70XZLHH8W2G41E8X,250371,250371,,
,,,,,,,,5,2.86338,0,9,9,7,1,A1QUBLZCONL4QD,8,rensink_BarnTrack-a_w_outline.jpg,rensink_BarnTrack-b_w_outline.jpg,42,male,A1QUBLZCONL4QD,2020-10-09_15h55.53.947,MetaAwareness,2020.1.2,Win32,60,3H4IKZHALCL6869N6Y8H19LJ3RCNN2,3DIP6YHAPDVKXD70XZLHH8W2G41E8X,A6ID1,A6ID1,3DIP6YHAPDVKXD70XZLHH8W2G41E8X,3DIP6YHAPDVKXD70XZLHH8W2G41E8X,250371,250371,,
,,,,,,,,5,2.733815,0,10,10,6,1,A1QUBLZCONL4QD,7,rensink_Cockpit-a_w_outline.jpg,rensink_Cockpit-b_w_outline.jpg,42,male,A1QUBLZCONL4QD,2020-10-09_15h55.53.947,MetaAwareness,2020.1.2,Win32,60,3H4IKZHALCL6869N6Y8H19LJ3RCNN2,3DIP6YHAPDVKXD70XZLHH8W2G41E8X,A6ID1,A6ID1,3DIP6YHAPDVKXD70XZLHH8W2G41E8X,3DIP6YHAPDVKXD70XZLHH8W2G41E8X,250371,250371,,
,,,,,,,,5,2.79262,0,11,11,23,1,A1QUBLZCONL4QD,24,rensink_Turtle-a_w_outline.jpg,rensink_Turtle-b_w_outline.jpg,42,male,A1QUBLZCONL4QD,2020-10-09_15h55.53.947,MetaAwareness,2020.1.2,Win32,60,3H4IKZHALCL6869N6Y8H19LJ3RCNN2,3DIP6YHAPDVKXD70XZLHH8W2G41E8X,A6ID1,A6ID1,3DIP6YHAPDVKXD70XZLHH8W2G41E8X,3DIP6YHAPDVKXD70XZLHH8W2G41E8X,250371,250371,,
,,,,,,,,5,2.135765,0,12,12,17,1,A1QUBLZCONL4QD,18,rensink_NotreDame-a_w_outline.jpg,rensink_NotreDame-b_w_outline.jpg,42,male,A1QUBLZCONL4QD,2020-10-09_15h55.53.947,MetaAwareness,2020.1.2,Win32,60,3H4IKZHALCL6869N6Y8H19LJ3RCNN2,3DIP6YHAPDVKXD70XZLHH8W2G41E8X,A6ID1,A6ID1,3DIP6YHAPDVKXD70XZLHH8W2G41E8X,3DIP6YHAPDVKXD70XZLHH8W2G41E8X,250371,250371,,
,,,,,,,,5,2.74709,0,13,13,1,1,A1QUBLZCONL4QD,2,rensink_Boat-a_w_outline.jpg,rensink_Boat-b_w_outline.jpg,42,male,A1QUBLZCONL4QD,2020-10-09_15h55.53.947,MetaAwareness,2020.1.2,Win32,60,3H4IKZHALCL6869N6Y8H19LJ3RCNN2,3DIP6YHAPDVKXD70XZLHH8W2G41E8X,A6ID1,A6ID1,3DIP6YHAPDVKXD70XZLHH8W2G41E8X,3DIP6YHAPDVKXD70XZLHH8W2G41E8X,250371,250371,,
,,,,,,,,5,3.14862,0,14,14,5,1,A1QUBLZCONL4QD,6,rensink_Birds-a_w_outline.jpg,rensink_Birds-b_w_outline.jpg,42,male,A1QUBLZCONL4QD,2020-10-09_15h55.53.947,MetaAwareness,2020.1.2,Win32,60,3H4IKZHALCL6869N6Y8H19LJ3RCNN2,3DIP6YHAPDVKXD70XZLHH8W2G41E8X,A6ID1,A6ID1,3DIP6YHAPDVKXD70XZLHH8W2G41E8X,3DIP6YHAPDVKXD70XZLHH8W2G41E8X,250371,250371,,
,,,,,,,,5,2.01146,0,15,15,2,1,A1QUBLZCONL4QD,3,rensink_Fishing-a_w_outline.jpg,rensink_Fishing-b_w_outline.jpg,42,male,A1QUBLZCONL4QD,2020-10-09_15h55.53.947,MetaAwareness,2020.1.2,Win32,60,3H4IKZHALCL6869N6Y8H19LJ3RCNN2,3DIP6YHAPDVKXD70XZLHH8W2G41E8X,A6ID1,A6ID1,3DIP6YHAPDVKXD70XZLHH8W2G41E8X,3DIP6YHAPDVKXD70XZLHH8W2G41E8X,250371,250371,,
,,,,,,,,5,2.60917,0,16,16,25,1,A1QUBLZCONL4QD,26,rensink_Army-a_w_outline.jpg,rensink_Army-b_w_outline.jpg,42,male,A1QUBLZCONL4QD,2020-10-09_15h55.53.947,MetaAwareness,2020.1.2,Win32,60,3H4IKZHALCL6869N6Y8H19LJ3RCNN2,3DIP6YHAPDVKXD70XZLHH8W2G41E8X,A6ID1,A6ID1,3DIP6YHAPDVKXD70XZLHH8W2G41E8X,3DIP6YHAPDVKXD70XZLHH8W2G41E8X,250371,250371,,
,,,,,,,,5,3.480215,0,17,17,29,1,A1QUBLZCONL4QD,30,rensink_Pilots-a_w_outline.jpg,rensink_Pilots-b_w_outline.jpg,42,male,A1QUBLZCONL4QD,2020-10-09_15h55.53.947,MetaAwareness,2020.1.2,Win32,60,3H4IKZHALCL6869N6Y8H19LJ3RCNN2,3DIP6YHAPDVKXD70XZLHH8W2G41E8X,A6ID1,A6ID1,3DIP6YHAPDVKXD70XZLHH8W2G41E8X,3DIP6YHAPDVKXD70XZLHH8W2G41E8X,250371,250371,,
,,,,,,,,5,1.63794,0,18,18,12,1,A1QUBLZCONL4QD,13,rensink_Window-a_w_outline.jpg,rensink_Window-b_w_outline.jpg,42,male,A1QUBLZCONL4QD,2020-10-09_15h55.53.947,MetaAwareness,2020.1.2,Win32,60,3H4IKZHALCL6869N6Y8H19LJ3RCNN2,3DIP6YHAPDVKXD70XZLHH8W2G41E8X,A6ID1,A6ID1,3DIP6YHAPDVKXD70XZLHH8W2G41E8X,3DIP6YHAPDVKXD70XZLHH8W2G41E8X,250371,250371,,
,,,,,,,,5,1.48054,0,19,19,16,1,A1QUBLZCONL4QD,17,rensink_Soldiers-a_w_outline.jpg,rensink_Soldiers-b_w_outline.jpg,42,male,A1QUBLZCONL4QD,2020-10-09_15h55.53.947,MetaAwareness,2020.1.2,Win32,60,3H4IKZHALCL6869N6Y8H19LJ3RCNN2,3DIP6YHAPDVKXD70XZLHH8W2G41E8X,A6ID1,A6ID1,3DIP6YHAPDVKXD70XZLHH8W2G41E8X,3DIP6YHAPDVKXD70XZLHH8W2G41E8X,250371,250371,,
,,,,,,,,5,1.707255,0,20,20,18,1,A1QUBLZCONL4QD,19,rensink_Floatplane-a_w_outline.jpg,rensink_Floatplane-b_w_outline.jpg,42,male,A1QUBLZCONL4QD,2020-10-09_15h55.53.947,MetaAwareness,2020.1.2,Win32,60,3H4IKZHALCL6869N6Y8H19LJ3RCNN2,3DIP6YHAPDVKXD70XZLHH8W2G41E8X,A6ID1,A6ID1,3DIP6YHAPDVKXD70XZLHH8W2G41E8X,3DIP6YHAPDVKXD70XZLHH8W2G41E8X,250371,250371,,
,,,,,,,,5,1.744995,0,21,21,10,1,A1QUBLZCONL4QD,11,rensink_FarmByPond-a_w_outline.jpg,rensink_FarmByPond-b_w_outline.jpg,42,male,A1QUBLZCONL4QD,2020-10-09_15h55.53.947,MetaAwareness,2020.1.2,Win32,60,3H4IKZHALCL6869N6Y8H19LJ3RCNN2,3DIP6YHAPDVKXD70XZLHH8W2G41E8X,A6ID1,A6ID1,3DIP6YHAPDVKXD70XZLHH8W2G41E8X,3DIP6YHAPDVKXD70XZLHH8W2G41E8X,250371,250371,,
,,,,,,,,5,2.6552,0,22,22,9,1,A1QUBLZCONL4QD,10,rensink_Camel-a_w_outline.jpg,rensink_Camel-b_w_outline.jpg,42,male,A1QUBLZCONL4QD,2020-10-09_15h55.53.947,MetaAwareness,2020.1.2,Win32,60,3H4IKZHALCL6869N6Y8H19LJ3RCNN2,3DIP6YHAPDVKXD70XZLHH8W2G41E8X,A6ID1,A6ID1,3DIP6YHAPDVKXD70XZLHH8W2G41E8X,3DIP6YHAPDVKXD70XZLHH8W2G41E8X,250371,250371,,
,,,,,,,,5,2.34792,0,23,23,15,1,A1QUBLZCONL4QD,16,rensink_Farmer-a_w_outline.jpg,rensink_Farmer-b_w_outline.jpg,42,male,A1QUBLZCONL4QD,2020-10-09_15h55.53.947,MetaAwareness,2020.1.2,Win32,60,3H4IKZHALCL6869N6Y8H19LJ3RCNN2,3DIP6YHAPDVKXD70XZLHH8W2G41E8X,A6ID1,A6ID1,3DIP6YHAPDVKXD70XZLHH8W2G41E8X,3DIP6YHAPDVKXD70XZLHH8W2G41E8X,250371,250371,,
,,,,,,,,5,1.928655,0,24,24,14,1,A1QUBLZCONL4QD,15,rensink_CanalBridge-a_w_outline.jpg,rensink_CanalBridge-b_w_outline.jpg,42,male,A1QUBLZCONL4QD,2020-10-09_15h55.53.947,MetaAwareness,2020.1.2,Win32,60,3H4IKZHALCL6869N6Y8H19LJ3RCNN2,3DIP6YHAPDVKXD70XZLHH8W2G41E8X,A6ID1,A6ID1,3DIP6YHAPDVKXD70XZLHH8W2G41E8X,3DIP6YHAPDVKXD70XZLHH8W2G41E8X,250371,250371,,
,,,,,,,,5,2.06607,0,25,25,26,1,A1QUBLZCONL4QD,27,rensink_SummerLake-a_w_outline.jpg,rensink_SummerLake-b_w_outline.jpg,42,male,A1QUBLZCONL4QD,2020-10-09_15h55.53.947,MetaAwareness,2020.1.2,Win32,60,3H4IKZHALCL6869N6Y8H19LJ3RCNN2,3DIP6YHAPDVKXD70XZLHH8W2G41E8X,A6ID1,A6ID1,3DIP6YHAPDVKXD70XZLHH8W2G41E8X,3DIP6YHAPDVKXD70XZLHH8W2G41E8X,250371,250371,,
,,,,,,,,5,2.555755,0,26,26,28,1,A1QUBLZCONL4QD,29,rensink_Amish-a_w_outline.jpg,rensink_Amish-b_w_outline.jpg,42,male,A1QUBLZCONL4QD,2020-10-09_15h55.53.947,MetaAwareness,2020.1.2,Win32,60,3H4IKZHALCL6869N6Y8H19LJ3RCNN2,3DIP6YHAPDVKXD70XZLHH8W2G41E8X,A6ID1,A6ID1,3DIP6YHAPDVKXD70XZLHH8W2G41E8X,3DIP6YHAPDVKXD70XZLHH8W2G41E8X,250371,250371,,
,,,,,,,,5,2.33173,0,27,27,4,1,A1QUBLZCONL4QD,5,rensink_Marling-a_w_outline.jpg,rensink_Marling-b_w_outline.jpg,42,male,A1QUBLZCONL4QD,2020-10-09_15h55.53.947,MetaAwareness,2020.1.2,Win32,60,3H4IKZHALCL6869N6Y8H19LJ3RCNN2,3DIP6YHAPDVKXD70XZLHH8W2G41E8X,A6ID1,A6ID1,3DIP6YHAPDVKXD70XZLHH8W2G41E8X,3DIP6YHAPDVKXD70XZLHH8W2G41E8X,250371,250371,,
,,,,,,,,5,2.24057,0,28,28,24,1,A1QUBLZCONL4QD,25,rensink_Dinner-a_w_outline.jpg,rensink_Dinner-b_w_outline.jpg,42,male,A1QUBLZCONL4QD,2020-10-09_15h55.53.947,MetaAwareness,2020.1.2,Win32,60,3H4IKZHALCL6869N6Y8H19LJ3RCNN2,3DIP6YHAPDVKXD70XZLHH8W2G41E8X,A6ID1,A6ID1,3DIP6YHAPDVKXD70XZLHH8W2G41E8X,3DIP6YHAPDVKXD70XZLHH8W2G41E8X,250371,250371,,
,,,,,,,,5,1.984395,0,29,29,0,1,A1QUBLZCONL4QD,1,rensink_Castle-a_w_outline.jpg,rensink_Castle-b_w_outline.jpg,42,male,A1QUBLZCONL4QD,2020-10-09_15h55.53.947,MetaAwareness,2020.1.2,Win32,60,3H4IKZHALCL6869N6Y8H19LJ3RCNN2,3DIP6YHAPDVKXD70XZLHH8W2G41E8X,A6ID1,A6ID1,3DIP6YHAPDVKXD70XZLHH8W2G41E8X,3DIP6YHAPDVKXD70XZLHH8W2G41E8X,250371,250371,,
,,,,,,,,,,,,,,,A1QUBLZCONL4QD,,,,42,male,A1QUBLZCONL4QD,2020-10-09_15h55.53.947,MetaAwareness,2020.1.2,Win32,60,3H4IKZHALCL6869N6Y8H19LJ3RCNN2,3DIP6YHAPDVKXD70XZLHH8W2G41E8X,A6ID1,A6ID1,3DIP6YHAPDVKXD70XZLHH8W2G41E8X,3DIP6YHAPDVKXD70XZLHH8W2G41E8X,250371,250371,5,0.677775
