consent_response.keys,consent_response.rt,key_resp_2.keys,key_resp_2.rt,user_resp.keys,user_resp.rt,trials.thisRepN,trials.thisTrialN,trials.thisN,trials.thisIndex,trials.ran,image_1_text,image_2_text,database,image,number,age,worker_ID,date,expName,psychopyVersion,OS,frameRate,hitId,workerId,assignmentId,a,tp_a,b,tp_b,c,tp_c,catch_same_resp.keys,catch_same_resp.rt,image_1_text_catch_same,image_2_text_catch_same,image_catch_same,catch_different_resp.keys,catch_different_resp.rt,image_1_text_catch_different,image_2_text_catch_different,image_catch_different
space,18.289165,space,18.27931,5,10.442255,0,0,0,53,1,people are sailing in boats near the horizon,people are sailing in boats near the horizon but the water level is higher,rensink,Horizon,2,27,A236Q44JMSRFVF,2021-01-09_10h00.46.892,MetaAwareness,2020.1.2,Win32,60,3SV8KD29L5VZHP23C9RV44BOMILKZ0,A236Q44JMSRFVF,3R0T90IZ1TFKTUT4K6RAJXDYWYCGCM,Z90R8,Z90R8,3R0T90IZ1TFKTUT4K6RAJXDYWYCGCM,3R0T90IZ1TFKTUT4K6RAJXDYWYCGCM,268118,268118,,,,,,,,,,
,,,,5,11.703215,0,1,1,15,1,a tree sits next to a large body of water with a large boat in it next to a small boat,a tree sits next to a large body of water with only a small boat in it,rensink,Cactus,2,27,A236Q44JMSRFVF,2021-01-09_10h00.46.892,MetaAwareness,2020.1.2,Win32,60,3SV8KD29L5VZHP23C9RV44BOMILKZ0,A236Q44JMSRFVF,3R0T90IZ1TFKTUT4K6RAJXDYWYCGCM,Z90R8,Z90R8,3R0T90IZ1TFKTUT4K6RAJXDYWYCGCM,3R0T90IZ1TFKTUT4K6RAJXDYWYCGCM,268118,268118,,,,,,,,,,
,,,,4,13.83736,0,2,2,21,1,a european city by the water with a reflection of a building in the water,a european city by the water without a reflection of a building in the water,rensink,CanalBridge,2,27,A236Q44JMSRFVF,2021-01-09_10h00.46.892,MetaAwareness,2020.1.2,Win32,60,3SV8KD29L5VZHP23C9RV44BOMILKZ0,A236Q44JMSRFVF,3R0T90IZ1TFKTUT4K6RAJXDYWYCGCM,Z90R8,Z90R8,3R0T90IZ1TFKTUT4K6RAJXDYWYCGCM,3R0T90IZ1TFKTUT4K6RAJXDYWYCGCM,268118,268118,,,,,,,,,,
,,,,3,19.690355,0,3,3,81,1,a gray building behind uniformed men standing in front of a helicopter.,a beige building behind uniformed me standing in front of  helicopter.,rensink,Pilots,1,27,A236Q44JMSRFVF,2021-01-09_10h00.46.892,MetaAwareness,2020.1.2,Win32,60,3SV8KD29L5VZHP23C9RV44BOMILKZ0,A236Q44JMSRFVF,3R0T90IZ1TFKTUT4K6RAJXDYWYCGCM,Z90R8,Z90R8,3R0T90IZ1TFKTUT4K6RAJXDYWYCGCM,3R0T90IZ1TFKTUT4K6RAJXDYWYCGCM,268118,268118,,,,,,,,,,
,,,,3,11.476345,0,4,4,34,1,red wine set inte middle of a table surrounded by a meal and bread.,"red wine set to the righ of the table, surrounded by bread and a meal.",rensink,Dinner,3,27,A236Q44JMSRFVF,2021-01-09_10h00.46.892,MetaAwareness,2020.1.2,Win32,60,3SV8KD29L5VZHP23C9RV44BOMILKZ0,A236Q44JMSRFVF,3R0T90IZ1TFKTUT4K6RAJXDYWYCGCM,Z90R8,Z90R8,3R0T90IZ1TFKTUT4K6RAJXDYWYCGCM,3R0T90IZ1TFKTUT4K6RAJXDYWYCGCM,268118,268118,,,,,,,,,,
,,,,2,11.38826,0,5,5,22,1,theres water with a hint of algae a few boats docked many people in the background there's a few cars and buildings as well,"water a few boats to the side buildings, cars, and people in the background as well as a light pole",rensink,CanalBridge,4,27,A236Q44JMSRFVF,2021-01-09_10h00.46.892,MetaAwareness,2020.1.2,Win32,60,3SV8KD29L5VZHP23C9RV44BOMILKZ0,A236Q44JMSRFVF,3R0T90IZ1TFKTUT4K6RAJXDYWYCGCM,Z90R8,Z90R8,3R0T90IZ1TFKTUT4K6RAJXDYWYCGCM,3R0T90IZ1TFKTUT4K6RAJXDYWYCGCM,268118,268118,,,,,,,,,,
,,,,3,8.68209,0,6,6,98,1,kayaker on a hawaiian beach pushing the kayak out into the water,kayaker on a hawaiian beach pulling the kayak to shore,rensink,Water,6,27,A236Q44JMSRFVF,2021-01-09_10h00.46.892,MetaAwareness,2020.1.2,Win32,60,3SV8KD29L5VZHP23C9RV44BOMILKZ0,A236Q44JMSRFVF,3R0T90IZ1TFKTUT4K6RAJXDYWYCGCM,Z90R8,Z90R8,3R0T90IZ1TFKTUT4K6RAJXDYWYCGCM,3R0T90IZ1TFKTUT4K6RAJXDYWYCGCM,268118,268118,,,,,,,,,,
,,,,3,8.62355,0,7,7,32,1,three people in costumes standing next to a while light,three people in costumes standing next to a yellow light,rensink,Description,4,27,A236Q44JMSRFVF,2021-01-09_10h00.46.892,MetaAwareness,2020.1.2,Win32,60,3SV8KD29L5VZHP23C9RV44BOMILKZ0,A236Q44JMSRFVF,3R0T90IZ1TFKTUT4K6RAJXDYWYCGCM,Z90R8,Z90R8,3R0T90IZ1TFKTUT4K6RAJXDYWYCGCM,3R0T90IZ1TFKTUT4K6RAJXDYWYCGCM,268118,268118,,,,,,,,,,
,,,,3,8.333315,0,8,8,10,1,the grass is green in front of rows of barrels,the grass is gray in front of rows of barrels,rensink,Barrels,2,27,A236Q44JMSRFVF,2021-01-09_10h00.46.892,MetaAwareness,2020.1.2,Win32,60,3SV8KD29L5VZHP23C9RV44BOMILKZ0,A236Q44JMSRFVF,3R0T90IZ1TFKTUT4K6RAJXDYWYCGCM,Z90R8,Z90R8,3R0T90IZ1TFKTUT4K6RAJXDYWYCGCM,3R0T90IZ1TFKTUT4K6RAJXDYWYCGCM,268118,268118,,,,,,,,,,
,,,,2,10.472225,0,9,9,54,1,the boat thread is many,the boat is minimum thread,rensink,Horizon,3,27,A236Q44JMSRFVF,2021-01-09_10h00.46.892,MetaAwareness,2020.1.2,Win32,60,3SV8KD29L5VZHP23C9RV44BOMILKZ0,A236Q44JMSRFVF,3R0T90IZ1TFKTUT4K6RAJXDYWYCGCM,Z90R8,Z90R8,3R0T90IZ1TFKTUT4K6RAJXDYWYCGCM,3R0T90IZ1TFKTUT4K6RAJXDYWYCGCM,268118,268118,,,,,,,,,,
,,,,4,8.044345,0,10,10,23,1,boating dock with the reflection of building and people in the water,boating dock with no reflection of buildings or people in the water,rensink,CanalBridge,7,27,A236Q44JMSRFVF,2021-01-09_10h00.46.892,MetaAwareness,2020.1.2,Win32,60,3SV8KD29L5VZHP23C9RV44BOMILKZ0,A236Q44JMSRFVF,3R0T90IZ1TFKTUT4K6RAJXDYWYCGCM,Z90R8,Z90R8,3R0T90IZ1TFKTUT4K6RAJXDYWYCGCM,3R0T90IZ1TFKTUT4K6RAJXDYWYCGCM,268118,268118,,,,,,,,,,
,,,,4,6.217255,0,11,11,41,1,egyptian statue in front of temple entrance,egyptian statue to the side of temple entrance,rensink,Egypt,9,27,A236Q44JMSRFVF,2021-01-09_10h00.46.892,MetaAwareness,2020.1.2,Win32,60,3SV8KD29L5VZHP23C9RV44BOMILKZ0,A236Q44JMSRFVF,3R0T90IZ1TFKTUT4K6RAJXDYWYCGCM,Z90R8,Z90R8,3R0T90IZ1TFKTUT4K6RAJXDYWYCGCM,3R0T90IZ1TFKTUT4K6RAJXDYWYCGCM,268118,268118,,,,,,,,,,
,,,,4,13.80699,0,12,12,18,1,an outdoor view of a lake with a ship in it,an outdoor view of a lake with a small boat in it,rensink,Cactus,7,27,A236Q44JMSRFVF,2021-01-09_10h00.46.892,MetaAwareness,2020.1.2,Win32,60,3SV8KD29L5VZHP23C9RV44BOMILKZ0,A236Q44JMSRFVF,3R0T90IZ1TFKTUT4K6RAJXDYWYCGCM,Z90R8,Z90R8,3R0T90IZ1TFKTUT4K6RAJXDYWYCGCM,3R0T90IZ1TFKTUT4K6RAJXDYWYCGCM,268118,268118,,,,,,,,,,
,,,,4,7.671575,0,13,13,82,1,three pilots standing in front of a helicoper that is in front of a grey building,three pilots standing in front of a helicopter that is in front of a yellow building,rensink,Pilots,2,27,A236Q44JMSRFVF,2021-01-09_10h00.46.892,MetaAwareness,2020.1.2,Win32,60,3SV8KD29L5VZHP23C9RV44BOMILKZ0,A236Q44JMSRFVF,3R0T90IZ1TFKTUT4K6RAJXDYWYCGCM,Z90R8,Z90R8,3R0T90IZ1TFKTUT4K6RAJXDYWYCGCM,3R0T90IZ1TFKTUT4K6RAJXDYWYCGCM,268118,268118,,,,,,,,,,
,,,,5,7.892905,0,14,14,66,1,a child in a group sits on a yellow chair,a child in a group sits on a pink chair,rensink,Kids,5,27,A236Q44JMSRFVF,2021-01-09_10h00.46.892,MetaAwareness,2020.1.2,Win32,60,3SV8KD29L5VZHP23C9RV44BOMILKZ0,A236Q44JMSRFVF,3R0T90IZ1TFKTUT4K6RAJXDYWYCGCM,Z90R8,Z90R8,3R0T90IZ1TFKTUT4K6RAJXDYWYCGCM,3R0T90IZ1TFKTUT4K6RAJXDYWYCGCM,268118,268118,,,,,,,,,,
,,,,4,10.33695,0,15,15,42,1,reflection of  the house in the water near to land,reflection of the house in the water so far to land,rensink,FarmByPond,4,27,A236Q44JMSRFVF,2021-01-09_10h00.46.892,MetaAwareness,2020.1.2,Win32,60,3SV8KD29L5VZHP23C9RV44BOMILKZ0,A236Q44JMSRFVF,3R0T90IZ1TFKTUT4K6RAJXDYWYCGCM,Z90R8,Z90R8,3R0T90IZ1TFKTUT4K6RAJXDYWYCGCM,3R0T90IZ1TFKTUT4K6RAJXDYWYCGCM,268118,268118,,,,,,,,,,
,,,,4,12.5068,0,16,16,14,1,two birds are standing on a rock with long beaks and staring at each other,two birds are standing on a rock with their long beaks and staring at each other,rensink,Birds,2,27,A236Q44JMSRFVF,2021-01-09_10h00.46.892,MetaAwareness,2020.1.2,Win32,60,3SV8KD29L5VZHP23C9RV44BOMILKZ0,A236Q44JMSRFVF,3R0T90IZ1TFKTUT4K6RAJXDYWYCGCM,Z90R8,Z90R8,3R0T90IZ1TFKTUT4K6RAJXDYWYCGCM,3R0T90IZ1TFKTUT4K6RAJXDYWYCGCM,268118,268118,,,,,,,,,,
,,,,4,7.675705,0,17,17,77,1,it is a white colour wall,it is a orane colour wall,rensink,Nurses,4,27,A236Q44JMSRFVF,2021-01-09_10h00.46.892,MetaAwareness,2020.1.2,Win32,60,3SV8KD29L5VZHP23C9RV44BOMILKZ0,A236Q44JMSRFVF,3R0T90IZ1TFKTUT4K6RAJXDYWYCGCM,Z90R8,Z90R8,3R0T90IZ1TFKTUT4K6RAJXDYWYCGCM,3R0T90IZ1TFKTUT4K6RAJXDYWYCGCM,268118,268118,,,,,,,,,,
,,,,3,6.258285,0,18,18,102,1,in this picture the chees wa in,i this box no chees in only apple,rensink,Wine,1,27,A236Q44JMSRFVF,2021-01-09_10h00.46.892,MetaAwareness,2020.1.2,Win32,60,3SV8KD29L5VZHP23C9RV44BOMILKZ0,A236Q44JMSRFVF,3R0T90IZ1TFKTUT4K6RAJXDYWYCGCM,Z90R8,Z90R8,3R0T90IZ1TFKTUT4K6RAJXDYWYCGCM,3R0T90IZ1TFKTUT4K6RAJXDYWYCGCM,268118,268118,,,,,,,,,,
,,,,4,21.775775,0,19,19,103,1,a spread of food and wine with  giant wedge of swiss cheese,a spread of food and wine with no cheese,rensink,Wine,2,27,A236Q44JMSRFVF,2021-01-09_10h00.46.892,MetaAwareness,2020.1.2,Win32,60,3SV8KD29L5VZHP23C9RV44BOMILKZ0,A236Q44JMSRFVF,3R0T90IZ1TFKTUT4K6RAJXDYWYCGCM,Z90R8,Z90R8,3R0T90IZ1TFKTUT4K6RAJXDYWYCGCM,3R0T90IZ1TFKTUT4K6RAJXDYWYCGCM,268118,268118,,,,,,,,,,
,,,,4,16.208345,0,20,20,51,1,a grey military helicopter over a body of water by a city,a red military helicopter over a body of water by a city,rensink,Harbor,5,27,A236Q44JMSRFVF,2021-01-09_10h00.46.892,MetaAwareness,2020.1.2,Win32,60,3SV8KD29L5VZHP23C9RV44BOMILKZ0,A236Q44JMSRFVF,3R0T90IZ1TFKTUT4K6RAJXDYWYCGCM,Z90R8,Z90R8,3R0T90IZ1TFKTUT4K6RAJXDYWYCGCM,3R0T90IZ1TFKTUT4K6RAJXDYWYCGCM,268118,268118,,,,,,,,,,
,,,,5,7.4943,0,21,21,12,1,a rocky beach with a blue upside down boat,a rocky beach with a green upside down boat,rensink,Beach,3,27,A236Q44JMSRFVF,2021-01-09_10h00.46.892,MetaAwareness,2020.1.2,Win32,60,3SV8KD29L5VZHP23C9RV44BOMILKZ0,A236Q44JMSRFVF,3R0T90IZ1TFKTUT4K6RAJXDYWYCGCM,Z90R8,Z90R8,3R0T90IZ1TFKTUT4K6RAJXDYWYCGCM,3R0T90IZ1TFKTUT4K6RAJXDYWYCGCM,268118,268118,,,,,,,,,,
,,,,5,13.14608,0,22,22,100,1,a scenic view in front of a window with a log on the bottom left corner,a schenic view in front of a window without a log in the bottom left corner,rensink,Window,4,27,A236Q44JMSRFVF,2021-01-09_10h00.46.892,MetaAwareness,2020.1.2,Win32,60,3SV8KD29L5VZHP23C9RV44BOMILKZ0,A236Q44JMSRFVF,3R0T90IZ1TFKTUT4K6RAJXDYWYCGCM,Z90R8,Z90R8,3R0T90IZ1TFKTUT4K6RAJXDYWYCGCM,3R0T90IZ1TFKTUT4K6RAJXDYWYCGCM,268118,268118,,,,,,,,,,
,,,,5,6.00061,0,23,23,1,1,an amish farmer on a hay wagon wearing a white shirt,an amish farmer on a hay wagon wearing a pink shirt,rensink,Amish,2,27,A236Q44JMSRFVF,2021-01-09_10h00.46.892,MetaAwareness,2020.1.2,Win32,60,3SV8KD29L5VZHP23C9RV44BOMILKZ0,A236Q44JMSRFVF,3R0T90IZ1TFKTUT4K6RAJXDYWYCGCM,Z90R8,Z90R8,3R0T90IZ1TFKTUT4K6RAJXDYWYCGCM,3R0T90IZ1TFKTUT4K6RAJXDYWYCGCM,268118,268118,,,,,,,,,,
,,,,4,11.35216,0,24,24,29,1,a helicopter pilot looking down at a helicopter flying next to them,a helicopter pilot looking slightly up at the helicopter flying a little above them,rensink,Cockpit,3,27,A236Q44JMSRFVF,2021-01-09_10h00.46.892,MetaAwareness,2020.1.2,Win32,60,3SV8KD29L5VZHP23C9RV44BOMILKZ0,A236Q44JMSRFVF,3R0T90IZ1TFKTUT4K6RAJXDYWYCGCM,Z90R8,Z90R8,3R0T90IZ1TFKTUT4K6RAJXDYWYCGCM,3R0T90IZ1TFKTUT4K6RAJXDYWYCGCM,268118,268118,,,,,,,,,,
,,,,5,5.508975,0,25,25,65,1,the boy sat on the yellow colour chair,the boy sat on the on pink colour chair,rensink,Kids,4,27,A236Q44JMSRFVF,2021-01-09_10h00.46.892,MetaAwareness,2020.1.2,Win32,60,3SV8KD29L5VZHP23C9RV44BOMILKZ0,A236Q44JMSRFVF,3R0T90IZ1TFKTUT4K6RAJXDYWYCGCM,Z90R8,Z90R8,3R0T90IZ1TFKTUT4K6RAJXDYWYCGCM,3R0T90IZ1TFKTUT4K6RAJXDYWYCGCM,268118,268118,,,,,,,,,,
,,,,5,8.002565,0,26,26,71,1,3 people holding a fish on a boat over a yellow bag,3 people holding a fish on a boat,rensink,Marling,2,27,A236Q44JMSRFVF,2021-01-09_10h00.46.892,MetaAwareness,2020.1.2,Win32,60,3SV8KD29L5VZHP23C9RV44BOMILKZ0,A236Q44JMSRFVF,3R0T90IZ1TFKTUT4K6RAJXDYWYCGCM,Z90R8,Z90R8,3R0T90IZ1TFKTUT4K6RAJXDYWYCGCM,3R0T90IZ1TFKTUT4K6RAJXDYWYCGCM,268118,268118,,,,,,,,,,
,,,,5,13.78209,0,27,27,52,1,boat rope was in box,boat rope in box,rensink,Horizon,1,27,A236Q44JMSRFVF,2021-01-09_10h00.46.892,MetaAwareness,2020.1.2,Win32,60,3SV8KD29L5VZHP23C9RV44BOMILKZ0,A236Q44JMSRFVF,3R0T90IZ1TFKTUT4K6RAJXDYWYCGCM,Z90R8,Z90R8,3R0T90IZ1TFKTUT4K6RAJXDYWYCGCM,3R0T90IZ1TFKTUT4K6RAJXDYWYCGCM,268118,268118,,,,,,,,,,
,,,,5,9.15226,0,28,28,24,1,stone building with some windows and a flag. theres a mountain in the background with another building on top of it,stone building with multiple windows and a flag there is a mountain or large hill off to the side with a building on top of it,rensink,Castle,4,27,A236Q44JMSRFVF,2021-01-09_10h00.46.892,MetaAwareness,2020.1.2,Win32,60,3SV8KD29L5VZHP23C9RV44BOMILKZ0,A236Q44JMSRFVF,3R0T90IZ1TFKTUT4K6RAJXDYWYCGCM,Z90R8,Z90R8,3R0T90IZ1TFKTUT4K6RAJXDYWYCGCM,3R0T90IZ1TFKTUT4K6RAJXDYWYCGCM,268118,268118,,,,,,,,,,
,,,,5,5.41058,0,29,29,48,1,a water plane on the water surface with a red stripe on it,a water plane on the water surface with a blue stripe on it,rensink,Floatplane,4,27,A236Q44JMSRFVF,2021-01-09_10h00.46.892,MetaAwareness,2020.1.2,Win32,60,3SV8KD29L5VZHP23C9RV44BOMILKZ0,A236Q44JMSRFVF,3R0T90IZ1TFKTUT4K6RAJXDYWYCGCM,Z90R8,Z90R8,3R0T90IZ1TFKTUT4K6RAJXDYWYCGCM,3R0T90IZ1TFKTUT4K6RAJXDYWYCGCM,268118,268118,,,,,,,,,,
,,,,,,,,,,,,,,,,27,A236Q44JMSRFVF,2021-01-09_10h00.46.892,MetaAwareness,2020.1.2,Win32,60,3SV8KD29L5VZHP23C9RV44BOMILKZ0,A236Q44JMSRFVF,3R0T90IZ1TFKTUT4K6RAJXDYWYCGCM,Z90R8,Z90R8,3R0T90IZ1TFKTUT4K6RAJXDYWYCGCM,3R0T90IZ1TFKTUT4K6RAJXDYWYCGCM,268118,268118,5,8.087565,someone laying underneath a blue beach umbrella on a crowded beach,someone laying underneath a blue beach umbrella on a crowded beach,same,1,7.395295,members of a marching band crossing a track that all have feather plumes at the front of their hats,a cluttered and rustic looking cafe with 10 hanging lights,different
