consent_response.keys,consent_response.rt,key_resp_2.keys,key_resp_2.rt,user_resp.keys,user_resp.rt,trials.thisRepN,trials.thisTrialN,trials.thisN,trials.thisIndex,trials.ran,image_1_text,image_2_text,database,image,number,age,worker_ID,date,expName,psychopyVersion,OS,frameRate,hitId,workerId,assignmentId,a,tp_a,b,tp_b,c,tp_c,catch_same_resp.keys,catch_same_resp.rt,image_1_text_catch_same,image_2_text_catch_same,image_catch_same,catch_different_resp.keys,catch_different_resp.rt,image_1_text_catch_different,image_2_text_catch_different,image_catch_different
space,6.421,space,2.288,6,12.824,0,0,0,63,1,a woman kayaking with mountains and hills in the background.,a woman kayaking with only a mountain in the background.,rensink,Kayaker,6,39,A2GZ468WSRF7WJ,2021-01-09_12h25.31.173,MetaAwareness,2020.1.2,Win32,60,329E6HTMSX5YWWVAR2WM03697NNK34,A2GZ468WSRF7WJ,30LB5CDZNDD0QJTTYIMF93R3YZGZ08,Z5L08,Z5L08,30LB5CDZNDD0QJTTYIMF93R3YZGZ08,30LB5CDZNDD0QJTTYIMF93R3YZGZ08,268118,268118,,,,,,,,,,
,,,,5,1.543,0,1,1,18,1,an outdoor view of a lake with a ship in it,an outdoor view of a lake with a small boat in it,rensink,Cactus,7,39,A2GZ468WSRF7WJ,2021-01-09_12h25.31.173,MetaAwareness,2020.1.2,Win32,60,329E6HTMSX5YWWVAR2WM03697NNK34,A2GZ468WSRF7WJ,30LB5CDZNDD0QJTTYIMF93R3YZGZ08,Z5L08,Z5L08,30LB5CDZNDD0QJTTYIMF93R3YZGZ08,30LB5CDZNDD0QJTTYIMF93R3YZGZ08,268118,268118,,,,,,,,,,
,,,,6,0.928,0,2,2,101,1,a piece of wood were kept in front of the window near dry leaves.,dry leaves were  near the windows.,rensink,Window,5,39,A2GZ468WSRF7WJ,2021-01-09_12h25.31.173,MetaAwareness,2020.1.2,Win32,60,329E6HTMSX5YWWVAR2WM03697NNK34,A2GZ468WSRF7WJ,30LB5CDZNDD0QJTTYIMF93R3YZGZ08,Z5L08,Z5L08,30LB5CDZNDD0QJTTYIMF93R3YZGZ08,30LB5CDZNDD0QJTTYIMF93R3YZGZ08,268118,268118,,,,,,,,,,
,,,,5,0.518,0,3,3,17,1,a big ship on the ocean next to a small boat,a small boat on the ocean,rensink,Cactus,6,39,A2GZ468WSRF7WJ,2021-01-09_12h25.31.173,MetaAwareness,2020.1.2,Win32,60,329E6HTMSX5YWWVAR2WM03697NNK34,A2GZ468WSRF7WJ,30LB5CDZNDD0QJTTYIMF93R3YZGZ08,Z5L08,Z5L08,30LB5CDZNDD0QJTTYIMF93R3YZGZ08,30LB5CDZNDD0QJTTYIMF93R3YZGZ08,268118,268118,,,,,,,,,,
,,,,4,3.329,0,4,4,76,1,two women with fruit in front of a white building,two women with fruit in front of an orange building,rensink,Nurses,1,39,A2GZ468WSRF7WJ,2021-01-09_12h25.31.173,MetaAwareness,2020.1.2,Win32,60,329E6HTMSX5YWWVAR2WM03697NNK34,A2GZ468WSRF7WJ,30LB5CDZNDD0QJTTYIMF93R3YZGZ08,Z5L08,Z5L08,30LB5CDZNDD0QJTTYIMF93R3YZGZ08,30LB5CDZNDD0QJTTYIMF93R3YZGZ08,268118,268118,,,,,,,,,,
,,,,5,1.711,0,5,5,85,1,soldiers in the back of a vehicle. they are on a road and their are people off to the side,there's a soldier with two other soldiers across from him in the back of a vehicle traveling down a road with other vehicles ahead of them and people off to the side,rensink,Soldiers,2,39,A2GZ468WSRF7WJ,2021-01-09_12h25.31.173,MetaAwareness,2020.1.2,Win32,60,329E6HTMSX5YWWVAR2WM03697NNK34,A2GZ468WSRF7WJ,30LB5CDZNDD0QJTTYIMF93R3YZGZ08,Z5L08,Z5L08,30LB5CDZNDD0QJTTYIMF93R3YZGZ08,30LB5CDZNDD0QJTTYIMF93R3YZGZ08,268118,268118,,,,,,,,,,
,,,,4,0.526,0,6,6,19,1,a man standing next to a camel in the middle of the desert with no sand behind the tower,a man standing next to a camel in the midel of the desert with sand behind the tower,rensink,Camel,2,39,A2GZ468WSRF7WJ,2021-01-09_12h25.31.173,MetaAwareness,2020.1.2,Win32,60,329E6HTMSX5YWWVAR2WM03697NNK34,A2GZ468WSRF7WJ,30LB5CDZNDD0QJTTYIMF93R3YZGZ08,Z5L08,Z5L08,30LB5CDZNDD0QJTTYIMF93R3YZGZ08,30LB5CDZNDD0QJTTYIMF93R3YZGZ08,268118,268118,,,,,,,,,,
,,,,5,0.518,0,7,7,49,1,an airplane floating on top of a lake with a red strip along the side of it.,an airplane floating on top of a lake with a blue strip along the side of it.,rensink,Floatplane,5,39,A2GZ468WSRF7WJ,2021-01-09_12h25.31.173,MetaAwareness,2020.1.2,Win32,60,329E6HTMSX5YWWVAR2WM03697NNK34,A2GZ468WSRF7WJ,30LB5CDZNDD0QJTTYIMF93R3YZGZ08,Z5L08,Z5L08,30LB5CDZNDD0QJTTYIMF93R3YZGZ08,30LB5CDZNDD0QJTTYIMF93R3YZGZ08,268118,268118,,,,,,,,,,
,,,,5,1.113,0,8,8,51,1,a grey military helicopter over a body of water by a city,a red military helicopter over a body of water by a city,rensink,Harbor,5,39,A2GZ468WSRF7WJ,2021-01-09_12h25.31.173,MetaAwareness,2020.1.2,Win32,60,329E6HTMSX5YWWVAR2WM03697NNK34,A2GZ468WSRF7WJ,30LB5CDZNDD0QJTTYIMF93R3YZGZ08,Z5L08,Z5L08,30LB5CDZNDD0QJTTYIMF93R3YZGZ08,30LB5CDZNDD0QJTTYIMF93R3YZGZ08,268118,268118,,,,,,,,,,
,,,,4,0.483,0,9,9,66,1,a child in a group sits on a yellow chair,a child in a group sits on a pink chair,rensink,Kids,5,39,A2GZ468WSRF7WJ,2021-01-09_12h25.31.173,MetaAwareness,2020.1.2,Win32,60,329E6HTMSX5YWWVAR2WM03697NNK34,A2GZ468WSRF7WJ,30LB5CDZNDD0QJTTYIMF93R3YZGZ08,Z5L08,Z5L08,30LB5CDZNDD0QJTTYIMF93R3YZGZ08,30LB5CDZNDD0QJTTYIMF93R3YZGZ08,268118,268118,,,,,,,,,,
,,,,5,0.539,0,10,10,43,1,a red farmhouse is reflected in the water of a small lake,"a red farmhouse is in view, and a different, squatter farmhouse, is across the lake, reflected in the water",rensink,FarmByPond,5,39,A2GZ468WSRF7WJ,2021-01-09_12h25.31.173,MetaAwareness,2020.1.2,Win32,60,329E6HTMSX5YWWVAR2WM03697NNK34,A2GZ468WSRF7WJ,30LB5CDZNDD0QJTTYIMF93R3YZGZ08,Z5L08,Z5L08,30LB5CDZNDD0QJTTYIMF93R3YZGZ08,30LB5CDZNDD0QJTTYIMF93R3YZGZ08,268118,268118,,,,,,,,,,
,,,,6,0.391,0,11,11,68,1,a person standing by a canoe on the lakeshore holding what might be binaculars or a camera.,a canoe sitting on the shore by the water with a mountain accross the lake,rensink,Lake,6,39,A2GZ468WSRF7WJ,2021-01-09_12h25.31.173,MetaAwareness,2020.1.2,Win32,60,329E6HTMSX5YWWVAR2WM03697NNK34,A2GZ468WSRF7WJ,30LB5CDZNDD0QJTTYIMF93R3YZGZ08,Z5L08,Z5L08,30LB5CDZNDD0QJTTYIMF93R3YZGZ08,30LB5CDZNDD0QJTTYIMF93R3YZGZ08,268118,268118,,,,,,,,,,
,,,,5,0.39,0,12,12,77,1,it is a white colour wall,it is a orane colour wall,rensink,Nurses,4,39,A2GZ468WSRF7WJ,2021-01-09_12h25.31.173,MetaAwareness,2020.1.2,Win32,60,329E6HTMSX5YWWVAR2WM03697NNK34,A2GZ468WSRF7WJ,30LB5CDZNDD0QJTTYIMF93R3YZGZ08,Z5L08,Z5L08,30LB5CDZNDD0QJTTYIMF93R3YZGZ08,30LB5CDZNDD0QJTTYIMF93R3YZGZ08,268118,268118,,,,,,,,,,
,,,,4,0.355,0,13,13,22,1,theres water with a hint of algae a few boats docked many people in the background there's a few cars and buildings as well,"water a few boats to the side buildings, cars, and people in the background as well as a light pole",rensink,CanalBridge,4,39,A2GZ468WSRF7WJ,2021-01-09_12h25.31.173,MetaAwareness,2020.1.2,Win32,60,329E6HTMSX5YWWVAR2WM03697NNK34,A2GZ468WSRF7WJ,30LB5CDZNDD0QJTTYIMF93R3YZGZ08,Z5L08,Z5L08,30LB5CDZNDD0QJTTYIMF93R3YZGZ08,30LB5CDZNDD0QJTTYIMF93R3YZGZ08,268118,268118,,,,,,,,,,
,,,,5,1.009,0,14,14,74,1,a building with with 2 big pillars on it,a building with only a pillar on it,rensink,Mosque,8,39,A2GZ468WSRF7WJ,2021-01-09_12h25.31.173,MetaAwareness,2020.1.2,Win32,60,329E6HTMSX5YWWVAR2WM03697NNK34,A2GZ468WSRF7WJ,30LB5CDZNDD0QJTTYIMF93R3YZGZ08,Z5L08,Z5L08,30LB5CDZNDD0QJTTYIMF93R3YZGZ08,30LB5CDZNDD0QJTTYIMF93R3YZGZ08,268118,268118,,,,,,,,,,
,,,,6,0.385,0,15,15,83,1,3 pilots standing in front of a helicopter with a gray building in the background,3 pilots standing in front of a helicopter with a yellow building in the background,rensink,Pilots,5,39,A2GZ468WSRF7WJ,2021-01-09_12h25.31.173,MetaAwareness,2020.1.2,Win32,60,329E6HTMSX5YWWVAR2WM03697NNK34,A2GZ468WSRF7WJ,30LB5CDZNDD0QJTTYIMF93R3YZGZ08,Z5L08,Z5L08,30LB5CDZNDD0QJTTYIMF93R3YZGZ08,30LB5CDZNDD0QJTTYIMF93R3YZGZ08,268118,268118,,,,,,,,,,
,,,,5,0.353,0,16,16,20,1,a man standing beside his camel with large fence behind him,a man standing beside his canoe with a fence behind him,rensink,Camel,4,39,A2GZ468WSRF7WJ,2021-01-09_12h25.31.173,MetaAwareness,2020.1.2,Win32,60,329E6HTMSX5YWWVAR2WM03697NNK34,A2GZ468WSRF7WJ,30LB5CDZNDD0QJTTYIMF93R3YZGZ08,Z5L08,Z5L08,30LB5CDZNDD0QJTTYIMF93R3YZGZ08,30LB5CDZNDD0QJTTYIMF93R3YZGZ08,268118,268118,,,,,,,,,,
,,,,4,0.431,0,17,17,32,1,three people in costumes standing next to a while light,three people in costumes standing next to a yellow light,rensink,Description,4,39,A2GZ468WSRF7WJ,2021-01-09_12h25.31.173,MetaAwareness,2020.1.2,Win32,60,329E6HTMSX5YWWVAR2WM03697NNK34,A2GZ468WSRF7WJ,30LB5CDZNDD0QJTTYIMF93R3YZGZ08,Z5L08,Z5L08,30LB5CDZNDD0QJTTYIMF93R3YZGZ08,30LB5CDZNDD0QJTTYIMF93R3YZGZ08,268118,268118,,,,,,,,,,
,,,,5,0.384,0,18,18,50,1,grey helicopter flies over ocean near city,red helicopter flies over ocean near city,rensink,Harbor,2,39,A2GZ468WSRF7WJ,2021-01-09_12h25.31.173,MetaAwareness,2020.1.2,Win32,60,329E6HTMSX5YWWVAR2WM03697NNK34,A2GZ468WSRF7WJ,30LB5CDZNDD0QJTTYIMF93R3YZGZ08,Z5L08,Z5L08,30LB5CDZNDD0QJTTYIMF93R3YZGZ08,30LB5CDZNDD0QJTTYIMF93R3YZGZ08,268118,268118,,,,,,,,,,
,,,,6,0.357,0,19,19,80,1,man examines fish in reef far above the sea floor,man examines fish in reef close to the sea floor,rensink,OtherDiver,6,39,A2GZ468WSRF7WJ,2021-01-09_12h25.31.173,MetaAwareness,2020.1.2,Win32,60,329E6HTMSX5YWWVAR2WM03697NNK34,A2GZ468WSRF7WJ,30LB5CDZNDD0QJTTYIMF93R3YZGZ08,Z5L08,Z5L08,30LB5CDZNDD0QJTTYIMF93R3YZGZ08,30LB5CDZNDD0QJTTYIMF93R3YZGZ08,268118,268118,,,,,,,,,,
,,,,5,0.419,0,20,20,53,1,people are sailing in boats near the horizon,people are sailing in boats near the horizon but the water level is higher,rensink,Horizon,2,39,A2GZ468WSRF7WJ,2021-01-09_12h25.31.173,MetaAwareness,2020.1.2,Win32,60,329E6HTMSX5YWWVAR2WM03697NNK34,A2GZ468WSRF7WJ,30LB5CDZNDD0QJTTYIMF93R3YZGZ08,Z5L08,Z5L08,30LB5CDZNDD0QJTTYIMF93R3YZGZ08,30LB5CDZNDD0QJTTYIMF93R3YZGZ08,268118,268118,,,,,,,,,,
,,,,4,0.354,0,21,21,55,1,a very chaotic looking sailing event with low waves at the background,a very chaotic looking sailing event with high waves at the background,rensink,Horizon,4,39,A2GZ468WSRF7WJ,2021-01-09_12h25.31.173,MetaAwareness,2020.1.2,Win32,60,329E6HTMSX5YWWVAR2WM03697NNK34,A2GZ468WSRF7WJ,30LB5CDZNDD0QJTTYIMF93R3YZGZ08,Z5L08,Z5L08,30LB5CDZNDD0QJTTYIMF93R3YZGZ08,30LB5CDZNDD0QJTTYIMF93R3YZGZ08,268118,268118,,,,,,,,,,
,,,,5,0.36,0,22,22,94,1,a lake with people and two covered boats,a lake with people and one covered and one uncovered boat,rensink,SummerLake,7,39,A2GZ468WSRF7WJ,2021-01-09_12h25.31.173,MetaAwareness,2020.1.2,Win32,60,329E6HTMSX5YWWVAR2WM03697NNK34,A2GZ468WSRF7WJ,30LB5CDZNDD0QJTTYIMF93R3YZGZ08,Z5L08,Z5L08,30LB5CDZNDD0QJTTYIMF93R3YZGZ08,30LB5CDZNDD0QJTTYIMF93R3YZGZ08,268118,268118,,,,,,,,,,
,,,,6,0.378,0,23,23,45,1,there is a man on a construction truck and he is wearing a dark green plaid shirt.,there is a man on a construction truck and he is wearing a bright green plaid shirt.,rensink,Farmer,4,39,A2GZ468WSRF7WJ,2021-01-09_12h25.31.173,MetaAwareness,2020.1.2,Win32,60,329E6HTMSX5YWWVAR2WM03697NNK34,A2GZ468WSRF7WJ,30LB5CDZNDD0QJTTYIMF93R3YZGZ08,Z5L08,Z5L08,30LB5CDZNDD0QJTTYIMF93R3YZGZ08,30LB5CDZNDD0QJTTYIMF93R3YZGZ08,268118,268118,,,,,,,,,,
,,,,5,0.364,0,24,24,99,1,an old looking window overlooking a field with something that looks like a log amongst leaves on the bottom left,an old-looking window overlooking a field with some leaves on the ledge but no log on the bottom left,rensink,Window,1,39,A2GZ468WSRF7WJ,2021-01-09_12h25.31.173,MetaAwareness,2020.1.2,Win32,60,329E6HTMSX5YWWVAR2WM03697NNK34,A2GZ468WSRF7WJ,30LB5CDZNDD0QJTTYIMF93R3YZGZ08,Z5L08,Z5L08,30LB5CDZNDD0QJTTYIMF93R3YZGZ08,30LB5CDZNDD0QJTTYIMF93R3YZGZ08,268118,268118,,,,,,,,,,
,,,,4,0.349,0,25,25,95,1,a man and a woman next a tortoise on with a bright blue sky behin them.,"a man and woman nex to a tortoise, with a pink sky behind them.",rensink,Turtle,1,39,A2GZ468WSRF7WJ,2021-01-09_12h25.31.173,MetaAwareness,2020.1.2,Win32,60,329E6HTMSX5YWWVAR2WM03697NNK34,A2GZ468WSRF7WJ,30LB5CDZNDD0QJTTYIMF93R3YZGZ08,Z5L08,Z5L08,30LB5CDZNDD0QJTTYIMF93R3YZGZ08,30LB5CDZNDD0QJTTYIMF93R3YZGZ08,268118,268118,,,,,,,,,,
,,,,5,0.321,0,26,26,29,1,a helicopter pilot looking down at a helicopter flying next to them,a helicopter pilot looking slightly up at the helicopter flying a little above them,rensink,Cockpit,3,39,A2GZ468WSRF7WJ,2021-01-09_12h25.31.173,MetaAwareness,2020.1.2,Win32,60,329E6HTMSX5YWWVAR2WM03697NNK34,A2GZ468WSRF7WJ,30LB5CDZNDD0QJTTYIMF93R3YZGZ08,Z5L08,Z5L08,30LB5CDZNDD0QJTTYIMF93R3YZGZ08,30LB5CDZNDD0QJTTYIMF93R3YZGZ08,268118,268118,,,,,,,,,,
,,,,6,0.446,0,27,27,69,1,the man wear the blue colour pant,the man wear the light brown colour pant,rensink,Market,1,39,A2GZ468WSRF7WJ,2021-01-09_12h25.31.173,MetaAwareness,2020.1.2,Win32,60,329E6HTMSX5YWWVAR2WM03697NNK34,A2GZ468WSRF7WJ,30LB5CDZNDD0QJTTYIMF93R3YZGZ08,Z5L08,Z5L08,30LB5CDZNDD0QJTTYIMF93R3YZGZ08,30LB5CDZNDD0QJTTYIMF93R3YZGZ08,268118,268118,,,,,,,,,,
,,,,5,0.373,0,28,28,24,1,stone building with some windows and a flag. theres a mountain in the background with another building on top of it,stone building with multiple windows and a flag there is a mountain or large hill off to the side with a building on top of it,rensink,Castle,4,39,A2GZ468WSRF7WJ,2021-01-09_12h25.31.173,MetaAwareness,2020.1.2,Win32,60,329E6HTMSX5YWWVAR2WM03697NNK34,A2GZ468WSRF7WJ,30LB5CDZNDD0QJTTYIMF93R3YZGZ08,Z5L08,Z5L08,30LB5CDZNDD0QJTTYIMF93R3YZGZ08,30LB5CDZNDD0QJTTYIMF93R3YZGZ08,268118,268118,,,,,,,,,,
,,,,4,0.33,0,29,29,21,1,a european city by the water with a reflection of a building in the water,a european city by the water without a reflection of a building in the water,rensink,CanalBridge,2,39,A2GZ468WSRF7WJ,2021-01-09_12h25.31.173,MetaAwareness,2020.1.2,Win32,60,329E6HTMSX5YWWVAR2WM03697NNK34,A2GZ468WSRF7WJ,30LB5CDZNDD0QJTTYIMF93R3YZGZ08,Z5L08,Z5L08,30LB5CDZNDD0QJTTYIMF93R3YZGZ08,30LB5CDZNDD0QJTTYIMF93R3YZGZ08,268118,268118,,,,,,,,,,
,,,,,,,,,,,,,,,,39,A2GZ468WSRF7WJ,2021-01-09_12h25.31.173,MetaAwareness,2020.1.2,Win32,60,329E6HTMSX5YWWVAR2WM03697NNK34,A2GZ468WSRF7WJ,30LB5CDZNDD0QJTTYIMF93R3YZGZ08,Z5L08,Z5L08,30LB5CDZNDD0QJTTYIMF93R3YZGZ08,30LB5CDZNDD0QJTTYIMF93R3YZGZ08,268118,268118,5,1.515,someone laying underneath a blue beach umbrella on a crowded beach,someone laying underneath a blue beach umbrella on a crowded beach,same,4,0.273,members of a marching band crossing a track that all have feather plumes at the front of their hats,a cluttered and rustic looking cafe with 10 hanging lights,different
