consent_response.keys,consent_response.rt,key_resp_2.keys,key_resp_2.rt,user_resp.keys,user_resp.rt,trials.thisRepN,trials.thisTrialN,trials.thisN,trials.thisIndex,trials.ran,image_1_text,image_2_text,database,image,number,age,worker_ID,date,expName,psychopyVersion,OS,frameRate,hitId,workerId,assignmentId,a,tp_a,b,tp_b,c,tp_c,catch_same_resp.keys,catch_same_resp.rt,image_1_text_catch_same,image_2_text_catch_same,image_catch_same,catch_different_resp.keys,catch_different_resp.rt,image_1_text_catch_different,image_2_text_catch_different,image_catch_different
space,6.58335,space,13.363515,5,24.47686,0,0,0,33,1,three pilots standing in front of a helicoper that is in front of a grey building,three pilots standing in front of a helicopter that is in front of a yellow building,rensink,Pilots,2,47,A2YHF0DPCO832L,2021-01-09_20h17.11.785,MetaAwareness,2020.1.2,Win32,60,3N3WJQXELTTKVKH982UIWTEWQ9YL23,A2YHF0DPCO832L,3PB5A5BD0W9EHDY8TPJZ3BLKVOJ7GK,DABP1,DABP1,3PB5A5BD0W9EHDY8TPJZ3BLKVOJ7GK,3PB5A5BD0W9EHDY8TPJZ3BLKVOJ7GK,268161,268161,,,,,,,,,,
,,,,5,8.732225,0,1,1,35,1,4 army fatigue soliders riding in the back of a army truck.,3 army fatifue soliders riding in the back of a army truck.,rensink,Soldiers,7,47,A2YHF0DPCO832L,2021-01-09_20h17.11.785,MetaAwareness,2020.1.2,Win32,60,3N3WJQXELTTKVKH982UIWTEWQ9YL23,A2YHF0DPCO832L,3PB5A5BD0W9EHDY8TPJZ3BLKVOJ7GK,DABP1,DABP1,3PB5A5BD0W9EHDY8TPJZ3BLKVOJ7GK,3PB5A5BD0W9EHDY8TPJZ3BLKVOJ7GK,268161,268161,,,,,,,,,,
,,,,5,8.466615,0,2,2,2,1,a country side setting with a red barn,a country side setting with a green barn,rensink,Barns,5,47,A2YHF0DPCO832L,2021-01-09_20h17.11.785,MetaAwareness,2020.1.2,Win32,60,3N3WJQXELTTKVKH982UIWTEWQ9YL23,A2YHF0DPCO832L,3PB5A5BD0W9EHDY8TPJZ3BLKVOJ7GK,DABP1,DABP1,3PB5A5BD0W9EHDY8TPJZ3BLKVOJ7GK,3PB5A5BD0W9EHDY8TPJZ3BLKVOJ7GK,268161,268161,,,,,,,,,,
,,,,5,10.424525,0,3,3,3,1,a rocky beach with a blue upside down boat,a rocky beach with a green upside down boat,rensink,Beach,3,47,A2YHF0DPCO832L,2021-01-09_20h17.11.785,MetaAwareness,2020.1.2,Win32,60,3N3WJQXELTTKVKH982UIWTEWQ9YL23,A2YHF0DPCO832L,3PB5A5BD0W9EHDY8TPJZ3BLKVOJ7GK,DABP1,DABP1,3PB5A5BD0W9EHDY8TPJZ3BLKVOJ7GK,3PB5A5BD0W9EHDY8TPJZ3BLKVOJ7GK,268161,268161,,,,,,,,,,
,,,,5,8.38609,0,4,4,31,1,two women with fruit in front of a white building,two women with fruit in front of an orange building,rensink,Nurses,1,47,A2YHF0DPCO832L,2021-01-09_20h17.11.785,MetaAwareness,2020.1.2,Win32,60,3N3WJQXELTTKVKH982UIWTEWQ9YL23,A2YHF0DPCO832L,3PB5A5BD0W9EHDY8TPJZ3BLKVOJ7GK,DABP1,DABP1,3PB5A5BD0W9EHDY8TPJZ3BLKVOJ7GK,3PB5A5BD0W9EHDY8TPJZ3BLKVOJ7GK,268161,268161,,,,,,,,,,
,,,,4,16.98388,0,5,5,25,1,a family standing floating chunks of broken ice look out to a person in a canoe,a family stand on floating chunks of ice and look out into the water,rensink,Ice,3,47,A2YHF0DPCO832L,2021-01-09_20h17.11.785,MetaAwareness,2020.1.2,Win32,60,3N3WJQXELTTKVKH982UIWTEWQ9YL23,A2YHF0DPCO832L,3PB5A5BD0W9EHDY8TPJZ3BLKVOJ7GK,DABP1,DABP1,3PB5A5BD0W9EHDY8TPJZ3BLKVOJ7GK,3PB5A5BD0W9EHDY8TPJZ3BLKVOJ7GK,268161,268161,,,,,,,,,,
,,,,5,8.409385,0,6,6,1,1,a red barn sits in a cluster of buildings in a field,a green barn sits in a cluster of buildings in a field,rensink,Barns,4,47,A2YHF0DPCO832L,2021-01-09_20h17.11.785,MetaAwareness,2020.1.2,Win32,60,3N3WJQXELTTKVKH982UIWTEWQ9YL23,A2YHF0DPCO832L,3PB5A5BD0W9EHDY8TPJZ3BLKVOJ7GK,DABP1,DABP1,3PB5A5BD0W9EHDY8TPJZ3BLKVOJ7GK,3PB5A5BD0W9EHDY8TPJZ3BLKVOJ7GK,268161,268161,,,,,,,,,,
,,,,4,13.534635,0,7,7,37,1,empty train station tracks with a highway overpass near the entrance,empty train station tracks with the sky in the distant entrance,rensink,Station,6,47,A2YHF0DPCO832L,2021-01-09_20h17.11.785,MetaAwareness,2020.1.2,Win32,60,3N3WJQXELTTKVKH982UIWTEWQ9YL23,A2YHF0DPCO832L,3PB5A5BD0W9EHDY8TPJZ3BLKVOJ7GK,DABP1,DABP1,3PB5A5BD0W9EHDY8TPJZ3BLKVOJ7GK,3PB5A5BD0W9EHDY8TPJZ3BLKVOJ7GK,268161,268161,,,,,,,,,,
,,,,5,6.00872,0,8,8,11,1,three people in costumes standing next to a while light,three people in costumes standing next to a yellow light,rensink,Description,4,47,A2YHF0DPCO832L,2021-01-09_20h17.11.785,MetaAwareness,2020.1.2,Win32,60,3N3WJQXELTTKVKH982UIWTEWQ9YL23,A2YHF0DPCO832L,3PB5A5BD0W9EHDY8TPJZ3BLKVOJ7GK,DABP1,DABP1,3PB5A5BD0W9EHDY8TPJZ3BLKVOJ7GK,3PB5A5BD0W9EHDY8TPJZ3BLKVOJ7GK,268161,268161,,,,,,,,,,
,,,,5,11.572215,0,9,9,34,1,4 soldiers in the back of a truck looking at people on the street,3 soldiers in the back of a truck looking at people on the street,rensink,Soldiers,5,47,A2YHF0DPCO832L,2021-01-09_20h17.11.785,MetaAwareness,2020.1.2,Win32,60,3N3WJQXELTTKVKH982UIWTEWQ9YL23,A2YHF0DPCO832L,3PB5A5BD0W9EHDY8TPJZ3BLKVOJ7GK,DABP1,DABP1,3PB5A5BD0W9EHDY8TPJZ3BLKVOJ7GK,3PB5A5BD0W9EHDY8TPJZ3BLKVOJ7GK,268161,268161,,,,,,,,,,
,,,,5,8.35156,0,10,10,10,1,the women behind the wall red colour,the women behind the wall green colour,rensink,Description,3,47,A2YHF0DPCO832L,2021-01-09_20h17.11.785,MetaAwareness,2020.1.2,Win32,60,3N3WJQXELTTKVKH982UIWTEWQ9YL23,A2YHF0DPCO832L,3PB5A5BD0W9EHDY8TPJZ3BLKVOJ7GK,DABP1,DABP1,3PB5A5BD0W9EHDY8TPJZ3BLKVOJ7GK,3PB5A5BD0W9EHDY8TPJZ3BLKVOJ7GK,268161,268161,,,,,,,,,,
,,,,6,8.56729,0,11,11,39,1,a man was sitting in the boat and two of them were helping him.,a man was sitting in the boat and two of them were helping him to move.,rensink,Water,5,47,A2YHF0DPCO832L,2021-01-09_20h17.11.785,MetaAwareness,2020.1.2,Win32,60,3N3WJQXELTTKVKH982UIWTEWQ9YL23,A2YHF0DPCO832L,3PB5A5BD0W9EHDY8TPJZ3BLKVOJ7GK,DABP1,DABP1,3PB5A5BD0W9EHDY8TPJZ3BLKVOJ7GK,3PB5A5BD0W9EHDY8TPJZ3BLKVOJ7GK,268161,268161,,,,,,,,,,
,,,,4,15.201575,0,12,12,9,1,a helicopter pilot looking down at a helicopter flying next to them,a helicopter pilot looking slightly up at the helicopter flying a little above them,rensink,Cockpit,3,47,A2YHF0DPCO832L,2021-01-09_20h17.11.785,MetaAwareness,2020.1.2,Win32,60,3N3WJQXELTTKVKH982UIWTEWQ9YL23,A2YHF0DPCO832L,3PB5A5BD0W9EHDY8TPJZ3BLKVOJ7GK,DABP1,DABP1,3PB5A5BD0W9EHDY8TPJZ3BLKVOJ7GK,3PB5A5BD0W9EHDY8TPJZ3BLKVOJ7GK,268161,268161,,,,,,,,,,
,,,,4,10.110755,0,13,13,23,1,the boat thread is many,the boat is minimum thread,rensink,Horizon,3,47,A2YHF0DPCO832L,2021-01-09_20h17.11.785,MetaAwareness,2020.1.2,Win32,60,3N3WJQXELTTKVKH982UIWTEWQ9YL23,A2YHF0DPCO832L,3PB5A5BD0W9EHDY8TPJZ3BLKVOJ7GK,DABP1,DABP1,3PB5A5BD0W9EHDY8TPJZ3BLKVOJ7GK,3PB5A5BD0W9EHDY8TPJZ3BLKVOJ7GK,268161,268161,,,,,,,,,,
,,,,4,8.35114,0,14,14,15,1,a large sculpture of an egyption pharaoh with onlookers taking pictures.,a large and small sculpture of an egyption pharaoh with onlookers taking pictures.,rensink,Egypt,3,47,A2YHF0DPCO832L,2021-01-09_20h17.11.785,MetaAwareness,2020.1.2,Win32,60,3N3WJQXELTTKVKH982UIWTEWQ9YL23,A2YHF0DPCO832L,3PB5A5BD0W9EHDY8TPJZ3BLKVOJ7GK,DABP1,DABP1,3PB5A5BD0W9EHDY8TPJZ3BLKVOJ7GK,3PB5A5BD0W9EHDY8TPJZ3BLKVOJ7GK,268161,268161,,,,,,,,,,
,,,,5,13.341335,0,15,15,28,1,five children are sitting around and one of them is sitting in a yellow metal chair,five children are sitting around and one of them is sitting in a pink chair,rensink,Kids,1,47,A2YHF0DPCO832L,2021-01-09_20h17.11.785,MetaAwareness,2020.1.2,Win32,60,3N3WJQXELTTKVKH982UIWTEWQ9YL23,A2YHF0DPCO832L,3PB5A5BD0W9EHDY8TPJZ3BLKVOJ7GK,DABP1,DABP1,3PB5A5BD0W9EHDY8TPJZ3BLKVOJ7GK,3PB5A5BD0W9EHDY8TPJZ3BLKVOJ7GK,268161,268161,,,,,,,,,,
,,,,3,13.933725,0,16,16,4,1,a tree sits next to a large body of water with a large boat in it next to a small boat,a tree sits next to a large body of water with only a small boat in it,rensink,Cactus,2,47,A2YHF0DPCO832L,2021-01-09_20h17.11.785,MetaAwareness,2020.1.2,Win32,60,3N3WJQXELTTKVKH982UIWTEWQ9YL23,A2YHF0DPCO832L,3PB5A5BD0W9EHDY8TPJZ3BLKVOJ7GK,DABP1,DABP1,3PB5A5BD0W9EHDY8TPJZ3BLKVOJ7GK,3PB5A5BD0W9EHDY8TPJZ3BLKVOJ7GK,268161,268161,,,,,,,,,,
,,,,5,13.05897,0,17,17,22,1,people are sailing in boats near the horizon,people are sailing in boats near the horizon but the water level is higher,rensink,Horizon,2,47,A2YHF0DPCO832L,2021-01-09_20h17.11.785,MetaAwareness,2020.1.2,Win32,60,3N3WJQXELTTKVKH982UIWTEWQ9YL23,A2YHF0DPCO832L,3PB5A5BD0W9EHDY8TPJZ3BLKVOJ7GK,DABP1,DABP1,3PB5A5BD0W9EHDY8TPJZ3BLKVOJ7GK,3PB5A5BD0W9EHDY8TPJZ3BLKVOJ7GK,268161,268161,,,,,,,,,,
,,,,3,9.26759,0,18,18,41,1,in this picture the chees wa in,i this box no chees in only apple,rensink,Wine,1,47,A2YHF0DPCO832L,2021-01-09_20h17.11.785,MetaAwareness,2020.1.2,Win32,60,3N3WJQXELTTKVKH982UIWTEWQ9YL23,A2YHF0DPCO832L,3PB5A5BD0W9EHDY8TPJZ3BLKVOJ7GK,DABP1,DABP1,3PB5A5BD0W9EHDY8TPJZ3BLKVOJ7GK,3PB5A5BD0W9EHDY8TPJZ3BLKVOJ7GK,268161,268161,,,,,,,,,,
,,,,5,9.792395,0,19,19,18,1,there is a man on a construction truck and he is wearing a dark green plaid shirt.,there is a man on a construction truck and he is wearing a bright green plaid shirt.,rensink,Farmer,4,47,A2YHF0DPCO832L,2021-01-09_20h17.11.785,MetaAwareness,2020.1.2,Win32,60,3N3WJQXELTTKVKH982UIWTEWQ9YL23,A2YHF0DPCO832L,3PB5A5BD0W9EHDY8TPJZ3BLKVOJ7GK,DABP1,DABP1,3PB5A5BD0W9EHDY8TPJZ3BLKVOJ7GK,3PB5A5BD0W9EHDY8TPJZ3BLKVOJ7GK,268161,268161,,,,,,,,,,
,,,,3,8.1171,0,20,20,38,1,the wooden boat near white boat,the whie boat don't near wooden boat,rensink,SummerLake,1,47,A2YHF0DPCO832L,2021-01-09_20h17.11.785,MetaAwareness,2020.1.2,Win32,60,3N3WJQXELTTKVKH982UIWTEWQ9YL23,A2YHF0DPCO832L,3PB5A5BD0W9EHDY8TPJZ3BLKVOJ7GK,DABP1,DABP1,3PB5A5BD0W9EHDY8TPJZ3BLKVOJ7GK,3PB5A5BD0W9EHDY8TPJZ3BLKVOJ7GK,268161,268161,,,,,,,,,,
,,,,3,19.450135,0,21,21,13,1,a dinner table by a fireplace with a wine glass next to a wine bottle,a dinner table by a fireplace with a wine glass next to a full plate,rensink,Dinner,4,47,A2YHF0DPCO832L,2021-01-09_20h17.11.785,MetaAwareness,2020.1.2,Win32,60,3N3WJQXELTTKVKH982UIWTEWQ9YL23,A2YHF0DPCO832L,3PB5A5BD0W9EHDY8TPJZ3BLKVOJ7GK,DABP1,DABP1,3PB5A5BD0W9EHDY8TPJZ3BLKVOJ7GK,3PB5A5BD0W9EHDY8TPJZ3BLKVOJ7GK,268161,268161,,,,,,,,,,
,,,,5,7.250155,0,22,22,0,1,an amish farmer on a hay wagon wearing a white shirt,an amish farmer on a hay wagon wearing a pink shirt,rensink,Amish,2,47,A2YHF0DPCO832L,2021-01-09_20h17.11.785,MetaAwareness,2020.1.2,Win32,60,3N3WJQXELTTKVKH982UIWTEWQ9YL23,A2YHF0DPCO832L,3PB5A5BD0W9EHDY8TPJZ3BLKVOJ7GK,DABP1,DABP1,3PB5A5BD0W9EHDY8TPJZ3BLKVOJ7GK,3PB5A5BD0W9EHDY8TPJZ3BLKVOJ7GK,268161,268161,,,,,,,,,,
,,,,2,7.73423,0,23,23,40,1,a piece of wood were kept in front of the window near dry leaves.,dry leaves were  near the windows.,rensink,Window,5,47,A2YHF0DPCO832L,2021-01-09_20h17.11.785,MetaAwareness,2020.1.2,Win32,60,3N3WJQXELTTKVKH982UIWTEWQ9YL23,A2YHF0DPCO832L,3PB5A5BD0W9EHDY8TPJZ3BLKVOJ7GK,DABP1,DABP1,3PB5A5BD0W9EHDY8TPJZ3BLKVOJ7GK,3PB5A5BD0W9EHDY8TPJZ3BLKVOJ7GK,268161,268161,,,,,,,,,,
,,,,4,13.834755,0,24,24,24,1,a very chaotic looking sailing event with low waves at the background,a very chaotic looking sailing event with high waves at the background,rensink,Horizon,4,47,A2YHF0DPCO832L,2021-01-09_20h17.11.785,MetaAwareness,2020.1.2,Win32,60,3N3WJQXELTTKVKH982UIWTEWQ9YL23,A2YHF0DPCO832L,3PB5A5BD0W9EHDY8TPJZ3BLKVOJ7GK,DABP1,DABP1,3PB5A5BD0W9EHDY8TPJZ3BLKVOJ7GK,3PB5A5BD0W9EHDY8TPJZ3BLKVOJ7GK,268161,268161,,,,,,,,,,
,,,,5,14.58455,0,25,25,12,1,red wine set inte middle of a table surrounded by a meal and bread.,"red wine set to the righ of the table, surrounded by bread and a meal.",rensink,Dinner,3,47,A2YHF0DPCO832L,2021-01-09_20h17.11.785,MetaAwareness,2020.1.2,Win32,60,3N3WJQXELTTKVKH982UIWTEWQ9YL23,A2YHF0DPCO832L,3PB5A5BD0W9EHDY8TPJZ3BLKVOJ7GK,DABP1,DABP1,3PB5A5BD0W9EHDY8TPJZ3BLKVOJ7GK,3PB5A5BD0W9EHDY8TPJZ3BLKVOJ7GK,268161,268161,,,,,,,,,,
,,,,3,14.54306,0,26,26,17,1,a red farmhouse is reflected in the water of a small lake,"a red farmhouse is in view, and a different, squatter farmhouse, is across the lake, reflected in the water",rensink,FarmByPond,5,47,A2YHF0DPCO832L,2021-01-09_20h17.11.785,MetaAwareness,2020.1.2,Win32,60,3N3WJQXELTTKVKH982UIWTEWQ9YL23,A2YHF0DPCO832L,3PB5A5BD0W9EHDY8TPJZ3BLKVOJ7GK,DABP1,DABP1,3PB5A5BD0W9EHDY8TPJZ3BLKVOJ7GK,3PB5A5BD0W9EHDY8TPJZ3BLKVOJ7GK,268161,268161,,,,,,,,,,
,,,,5,18.524885,0,27,27,26,1,white water rafter with a purple life saving vest,white water rafter with a blue life saving vest,rensink,Kayak,7,47,A2YHF0DPCO832L,2021-01-09_20h17.11.785,MetaAwareness,2020.1.2,Win32,60,3N3WJQXELTTKVKH982UIWTEWQ9YL23,A2YHF0DPCO832L,3PB5A5BD0W9EHDY8TPJZ3BLKVOJ7GK,DABP1,DABP1,3PB5A5BD0W9EHDY8TPJZ3BLKVOJ7GK,3PB5A5BD0W9EHDY8TPJZ3BLKVOJ7GK,268161,268161,,,,,,,,,,
,,,,5,14.80169,0,28,28,8,1,stone building with some windows and a flag. theres a mountain in the background with another building on top of it,stone building with multiple windows and a flag there is a mountain or large hill off to the side with a building on top of it,rensink,Castle,4,47,A2YHF0DPCO832L,2021-01-09_20h17.11.785,MetaAwareness,2020.1.2,Win32,60,3N3WJQXELTTKVKH982UIWTEWQ9YL23,A2YHF0DPCO832L,3PB5A5BD0W9EHDY8TPJZ3BLKVOJ7GK,DABP1,DABP1,3PB5A5BD0W9EHDY8TPJZ3BLKVOJ7GK,3PB5A5BD0W9EHDY8TPJZ3BLKVOJ7GK,268161,268161,,,,,,,,,,
,,,,5,21.03748,0,29,29,6,1,theres water with a hint of algae a few boats docked many people in the background there's a few cars and buildings as well,"water a few boats to the side buildings, cars, and people in the background as well as a light pole",rensink,CanalBridge,4,47,A2YHF0DPCO832L,2021-01-09_20h17.11.785,MetaAwareness,2020.1.2,Win32,60,3N3WJQXELTTKVKH982UIWTEWQ9YL23,A2YHF0DPCO832L,3PB5A5BD0W9EHDY8TPJZ3BLKVOJ7GK,DABP1,DABP1,3PB5A5BD0W9EHDY8TPJZ3BLKVOJ7GK,3PB5A5BD0W9EHDY8TPJZ3BLKVOJ7GK,268161,268161,,,,,,,,,,
,,,,,,,,,,,,,,,,47,A2YHF0DPCO832L,2021-01-09_20h17.11.785,MetaAwareness,2020.1.2,Win32,60,3N3WJQXELTTKVKH982UIWTEWQ9YL23,A2YHF0DPCO832L,3PB5A5BD0W9EHDY8TPJZ3BLKVOJ7GK,DABP1,DABP1,3PB5A5BD0W9EHDY8TPJZ3BLKVOJ7GK,3PB5A5BD0W9EHDY8TPJZ3BLKVOJ7GK,268161,268161,6,12.23397,someone laying underneath a blue beach umbrella on a crowded beach,someone laying underneath a blue beach umbrella on a crowded beach,same,1,9.26724,members of a marching band crossing a track that all have feather plumes at the front of their hats,a cluttered and rustic looking cafe with 10 hanging lights,different
