consent_response.keys,consent_response.rt,key_resp_2.keys,key_resp_2.rt,user_resp.keys,user_resp.rt,trials.thisRepN,trials.thisTrialN,trials.thisN,trials.thisIndex,trials.ran,image_1_text,image_2_text,database,image,number,age,worker_ID,date,expName,psychopyVersion,OS,frameRate,hitId,workerId,assignmentId,a,tp_a,b,tp_b,c,tp_c,catch_same_resp.keys,catch_same_resp.rt,image_1_text_catch_same,image_2_text_catch_same,image_catch_same,catch_different_resp.keys,catch_different_resp.rt,image_1_text_catch_different,image_2_text_catch_different,image_catch_different
space,3.910675,space,13.516855,5,12.340825,0,0,0,4,1,a tree sits next to a large body of water with a large boat in it next to a small boat,a tree sits next to a large body of water with only a small boat in it,rensink,Cactus,2,43,A3NQK6VK36A4GA,2021-01-09_13h31.54.945,MetaAwareness,2020.1.2,Win32,60,3TKXBROM5UDIBF7BUK3X3U8LBGOIJ7,A3NQK6VK36A4GA,3I33IC7ZWG56LLOZ1DAUBYT9MDBA2M,ZI3I1,ZI3I1,3I33IC7ZWG56LLOZ1DAUBYT9MDBA2M,3I33IC7ZWG56LLOZ1DAUBYT9MDBA2M,268161,268161,,,,,,,,,,
,,,,4,10.60993,0,1,1,13,1,a dinner table by a fireplace with a wine glass next to a wine bottle,a dinner table by a fireplace with a wine glass next to a full plate,rensink,Dinner,4,43,A3NQK6VK36A4GA,2021-01-09_13h31.54.945,MetaAwareness,2020.1.2,Win32,60,3TKXBROM5UDIBF7BUK3X3U8LBGOIJ7,A3NQK6VK36A4GA,3I33IC7ZWG56LLOZ1DAUBYT9MDBA2M,ZI3I1,ZI3I1,3I33IC7ZWG56LLOZ1DAUBYT9MDBA2M,3I33IC7ZWG56LLOZ1DAUBYT9MDBA2M,268161,268161,,,,,,,,,,
,,,,5,12.749795,0,2,2,18,1,there is a man on a construction truck and he is wearing a dark green plaid shirt.,there is a man on a construction truck and he is wearing a bright green plaid shirt.,rensink,Farmer,4,43,A3NQK6VK36A4GA,2021-01-09_13h31.54.945,MetaAwareness,2020.1.2,Win32,60,3TKXBROM5UDIBF7BUK3X3U8LBGOIJ7,A3NQK6VK36A4GA,3I33IC7ZWG56LLOZ1DAUBYT9MDBA2M,ZI3I1,ZI3I1,3I33IC7ZWG56LLOZ1DAUBYT9MDBA2M,3I33IC7ZWG56LLOZ1DAUBYT9MDBA2M,268161,268161,,,,,,,,,,
,,,,5,8.18222,0,3,3,26,1,white water rafter with a purple life saving vest,white water rafter with a blue life saving vest,rensink,Kayak,7,43,A3NQK6VK36A4GA,2021-01-09_13h31.54.945,MetaAwareness,2020.1.2,Win32,60,3TKXBROM5UDIBF7BUK3X3U8LBGOIJ7,A3NQK6VK36A4GA,3I33IC7ZWG56LLOZ1DAUBYT9MDBA2M,ZI3I1,ZI3I1,3I33IC7ZWG56LLOZ1DAUBYT9MDBA2M,3I33IC7ZWG56LLOZ1DAUBYT9MDBA2M,268161,268161,,,,,,,,,,
,,,,3,10.11276,0,4,4,36,1,a train station with additional structures on the far end,just a train station with people on it,rensink,Station,3,43,A3NQK6VK36A4GA,2021-01-09_13h31.54.945,MetaAwareness,2020.1.2,Win32,60,3TKXBROM5UDIBF7BUK3X3U8LBGOIJ7,A3NQK6VK36A4GA,3I33IC7ZWG56LLOZ1DAUBYT9MDBA2M,ZI3I1,ZI3I1,3I33IC7ZWG56LLOZ1DAUBYT9MDBA2M,3I33IC7ZWG56LLOZ1DAUBYT9MDBA2M,268161,268161,,,,,,,,,,
,,,,5,12.399965,0,5,5,19,1,seaplane with red and blue decals floats on lake in the mountains,seaplane with cyan and blue decals floats on lake in the mountains,rensink,Floatplane,3,43,A3NQK6VK36A4GA,2021-01-09_13h31.54.945,MetaAwareness,2020.1.2,Win32,60,3TKXBROM5UDIBF7BUK3X3U8LBGOIJ7,A3NQK6VK36A4GA,3I33IC7ZWG56LLOZ1DAUBYT9MDBA2M,ZI3I1,ZI3I1,3I33IC7ZWG56LLOZ1DAUBYT9MDBA2M,3I33IC7ZWG56LLOZ1DAUBYT9MDBA2M,268161,268161,,,,,,,,,,
,,,,5,6.624635,0,6,6,0,1,an amish farmer on a hay wagon wearing a white shirt,an amish farmer on a hay wagon wearing a pink shirt,rensink,Amish,2,43,A3NQK6VK36A4GA,2021-01-09_13h31.54.945,MetaAwareness,2020.1.2,Win32,60,3TKXBROM5UDIBF7BUK3X3U8LBGOIJ7,A3NQK6VK36A4GA,3I33IC7ZWG56LLOZ1DAUBYT9MDBA2M,ZI3I1,ZI3I1,3I33IC7ZWG56LLOZ1DAUBYT9MDBA2M,3I33IC7ZWG56LLOZ1DAUBYT9MDBA2M,268161,268161,,,,,,,,,,
,,,,4,2.25208,0,7,7,7,1,boating dock with the reflection of building and people in the water,boating dock with no reflection of buildings or people in the water,rensink,CanalBridge,7,43,A3NQK6VK36A4GA,2021-01-09_13h31.54.945,MetaAwareness,2020.1.2,Win32,60,3TKXBROM5UDIBF7BUK3X3U8LBGOIJ7,A3NQK6VK36A4GA,3I33IC7ZWG56LLOZ1DAUBYT9MDBA2M,ZI3I1,ZI3I1,3I33IC7ZWG56LLOZ1DAUBYT9MDBA2M,3I33IC7ZWG56LLOZ1DAUBYT9MDBA2M,268161,268161,,,,,,,,,,
,,,,4,5.924555,0,8,8,20,1,an airplane floating on top of a lake with a red strip along the side of it.,an airplane floating on top of a lake with a blue strip along the side of it.,rensink,Floatplane,5,43,A3NQK6VK36A4GA,2021-01-09_13h31.54.945,MetaAwareness,2020.1.2,Win32,60,3TKXBROM5UDIBF7BUK3X3U8LBGOIJ7,A3NQK6VK36A4GA,3I33IC7ZWG56LLOZ1DAUBYT9MDBA2M,ZI3I1,ZI3I1,3I33IC7ZWG56LLOZ1DAUBYT9MDBA2M,3I33IC7ZWG56LLOZ1DAUBYT9MDBA2M,268161,268161,,,,,,,,,,
,,,,3,17.7272,0,9,9,17,1,a red farmhouse is reflected in the water of a small lake,"a red farmhouse is in view, and a different, squatter farmhouse, is across the lake, reflected in the water",rensink,FarmByPond,5,43,A3NQK6VK36A4GA,2021-01-09_13h31.54.945,MetaAwareness,2020.1.2,Win32,60,3TKXBROM5UDIBF7BUK3X3U8LBGOIJ7,A3NQK6VK36A4GA,3I33IC7ZWG56LLOZ1DAUBYT9MDBA2M,ZI3I1,ZI3I1,3I33IC7ZWG56LLOZ1DAUBYT9MDBA2M,3I33IC7ZWG56LLOZ1DAUBYT9MDBA2M,268161,268161,,,,,,,,,,
,,,,4,4.65242,0,10,10,2,1,a country side setting with a red barn,a country side setting with a green barn,rensink,Barns,5,43,A3NQK6VK36A4GA,2021-01-09_13h31.54.945,MetaAwareness,2020.1.2,Win32,60,3TKXBROM5UDIBF7BUK3X3U8LBGOIJ7,A3NQK6VK36A4GA,3I33IC7ZWG56LLOZ1DAUBYT9MDBA2M,ZI3I1,ZI3I1,3I33IC7ZWG56LLOZ1DAUBYT9MDBA2M,3I33IC7ZWG56LLOZ1DAUBYT9MDBA2M,268161,268161,,,,,,,,,,
,,,,5,7.192195,0,11,11,40,1,a piece of wood were kept in front of the window near dry leaves.,dry leaves were  near the windows.,rensink,Window,5,43,A3NQK6VK36A4GA,2021-01-09_13h31.54.945,MetaAwareness,2020.1.2,Win32,60,3TKXBROM5UDIBF7BUK3X3U8LBGOIJ7,A3NQK6VK36A4GA,3I33IC7ZWG56LLOZ1DAUBYT9MDBA2M,ZI3I1,ZI3I1,3I33IC7ZWG56LLOZ1DAUBYT9MDBA2M,3I33IC7ZWG56LLOZ1DAUBYT9MDBA2M,268161,268161,,,,,,,,,,
,,,,5,4.71515,0,12,12,10,1,the women behind the wall red colour,the women behind the wall green colour,rensink,Description,3,43,A3NQK6VK36A4GA,2021-01-09_13h31.54.945,MetaAwareness,2020.1.2,Win32,60,3TKXBROM5UDIBF7BUK3X3U8LBGOIJ7,A3NQK6VK36A4GA,3I33IC7ZWG56LLOZ1DAUBYT9MDBA2M,ZI3I1,ZI3I1,3I33IC7ZWG56LLOZ1DAUBYT9MDBA2M,3I33IC7ZWG56LLOZ1DAUBYT9MDBA2M,268161,268161,,,,,,,,,,
,,,,1,3.84136,0,13,13,30,1,prson standing in the yellow box,no person in the box,rensink,Lake,2,43,A3NQK6VK36A4GA,2021-01-09_13h31.54.945,MetaAwareness,2020.1.2,Win32,60,3TKXBROM5UDIBF7BUK3X3U8LBGOIJ7,A3NQK6VK36A4GA,3I33IC7ZWG56LLOZ1DAUBYT9MDBA2M,ZI3I1,ZI3I1,3I33IC7ZWG56LLOZ1DAUBYT9MDBA2M,3I33IC7ZWG56LLOZ1DAUBYT9MDBA2M,268161,268161,,,,,,,,,,
,,,,2,5.40785,0,14,14,5,1,a man standing beside his camel with large fence behind him,a man standing beside his canoe with a fence behind him,rensink,Camel,4,43,A3NQK6VK36A4GA,2021-01-09_13h31.54.945,MetaAwareness,2020.1.2,Win32,60,3TKXBROM5UDIBF7BUK3X3U8LBGOIJ7,A3NQK6VK36A4GA,3I33IC7ZWG56LLOZ1DAUBYT9MDBA2M,ZI3I1,ZI3I1,3I33IC7ZWG56LLOZ1DAUBYT9MDBA2M,3I33IC7ZWG56LLOZ1DAUBYT9MDBA2M,268161,268161,,,,,,,,,,
,,,,5,4.147535,0,15,15,33,1,three pilots standing in front of a helicoper that is in front of a grey building,three pilots standing in front of a helicopter that is in front of a yellow building,rensink,Pilots,2,43,A3NQK6VK36A4GA,2021-01-09_13h31.54.945,MetaAwareness,2020.1.2,Win32,60,3TKXBROM5UDIBF7BUK3X3U8LBGOIJ7,A3NQK6VK36A4GA,3I33IC7ZWG56LLOZ1DAUBYT9MDBA2M,ZI3I1,ZI3I1,3I33IC7ZWG56LLOZ1DAUBYT9MDBA2M,3I33IC7ZWG56LLOZ1DAUBYT9MDBA2M,268161,268161,,,,,,,,,,
,,,,5,5.56617,0,16,16,22,1,people are sailing in boats near the horizon,people are sailing in boats near the horizon but the water level is higher,rensink,Horizon,2,43,A3NQK6VK36A4GA,2021-01-09_13h31.54.945,MetaAwareness,2020.1.2,Win32,60,3TKXBROM5UDIBF7BUK3X3U8LBGOIJ7,A3NQK6VK36A4GA,3I33IC7ZWG56LLOZ1DAUBYT9MDBA2M,ZI3I1,ZI3I1,3I33IC7ZWG56LLOZ1DAUBYT9MDBA2M,3I33IC7ZWG56LLOZ1DAUBYT9MDBA2M,268161,268161,,,,,,,,,,
,,,,4,3.8436,0,17,17,11,1,three people in costumes standing next to a while light,three people in costumes standing next to a yellow light,rensink,Description,4,43,A3NQK6VK36A4GA,2021-01-09_13h31.54.945,MetaAwareness,2020.1.2,Win32,60,3TKXBROM5UDIBF7BUK3X3U8LBGOIJ7,A3NQK6VK36A4GA,3I33IC7ZWG56LLOZ1DAUBYT9MDBA2M,ZI3I1,ZI3I1,3I33IC7ZWG56LLOZ1DAUBYT9MDBA2M,3I33IC7ZWG56LLOZ1DAUBYT9MDBA2M,268161,268161,,,,,,,,,,
,,,,4,7.555865,0,18,18,9,1,a helicopter pilot looking down at a helicopter flying next to them,a helicopter pilot looking slightly up at the helicopter flying a little above them,rensink,Cockpit,3,43,A3NQK6VK36A4GA,2021-01-09_13h31.54.945,MetaAwareness,2020.1.2,Win32,60,3TKXBROM5UDIBF7BUK3X3U8LBGOIJ7,A3NQK6VK36A4GA,3I33IC7ZWG56LLOZ1DAUBYT9MDBA2M,ZI3I1,ZI3I1,3I33IC7ZWG56LLOZ1DAUBYT9MDBA2M,3I33IC7ZWG56LLOZ1DAUBYT9MDBA2M,268161,268161,,,,,,,,,,
,,,,2,6.229925,0,19,19,6,1,theres water with a hint of algae a few boats docked many people in the background there's a few cars and buildings as well,"water a few boats to the side buildings, cars, and people in the background as well as a light pole",rensink,CanalBridge,4,43,A3NQK6VK36A4GA,2021-01-09_13h31.54.945,MetaAwareness,2020.1.2,Win32,60,3TKXBROM5UDIBF7BUK3X3U8LBGOIJ7,A3NQK6VK36A4GA,3I33IC7ZWG56LLOZ1DAUBYT9MDBA2M,ZI3I1,ZI3I1,3I33IC7ZWG56LLOZ1DAUBYT9MDBA2M,3I33IC7ZWG56LLOZ1DAUBYT9MDBA2M,268161,268161,,,,,,,,,,
,,,,5,2.695315,0,20,20,1,1,a red barn sits in a cluster of buildings in a field,a green barn sits in a cluster of buildings in a field,rensink,Barns,4,43,A3NQK6VK36A4GA,2021-01-09_13h31.54.945,MetaAwareness,2020.1.2,Win32,60,3TKXBROM5UDIBF7BUK3X3U8LBGOIJ7,A3NQK6VK36A4GA,3I33IC7ZWG56LLOZ1DAUBYT9MDBA2M,ZI3I1,ZI3I1,3I33IC7ZWG56LLOZ1DAUBYT9MDBA2M,3I33IC7ZWG56LLOZ1DAUBYT9MDBA2M,268161,268161,,,,,,,,,,
,,,,5,5.55937,0,21,21,27,1,a female kayaker with a rocky and forest filled background at her side,a female kayaker with a rocky but no forest filled background at her side,rensink,Kayaker,5,43,A3NQK6VK36A4GA,2021-01-09_13h31.54.945,MetaAwareness,2020.1.2,Win32,60,3TKXBROM5UDIBF7BUK3X3U8LBGOIJ7,A3NQK6VK36A4GA,3I33IC7ZWG56LLOZ1DAUBYT9MDBA2M,ZI3I1,ZI3I1,3I33IC7ZWG56LLOZ1DAUBYT9MDBA2M,3I33IC7ZWG56LLOZ1DAUBYT9MDBA2M,268161,268161,,,,,,,,,,
,,,,5,4.879525,0,22,22,3,1,a rocky beach with a blue upside down boat,a rocky beach with a green upside down boat,rensink,Beach,3,43,A3NQK6VK36A4GA,2021-01-09_13h31.54.945,MetaAwareness,2020.1.2,Win32,60,3TKXBROM5UDIBF7BUK3X3U8LBGOIJ7,A3NQK6VK36A4GA,3I33IC7ZWG56LLOZ1DAUBYT9MDBA2M,ZI3I1,ZI3I1,3I33IC7ZWG56LLOZ1DAUBYT9MDBA2M,3I33IC7ZWG56LLOZ1DAUBYT9MDBA2M,268161,268161,,,,,,,,,,
,,,,5,5.672865,0,23,23,14,1,there is a woman scuba diving in front of a green mossy reef.,there is a woman scuba diving in front of a red mossy reef.,rensink,Diver,5,43,A3NQK6VK36A4GA,2021-01-09_13h31.54.945,MetaAwareness,2020.1.2,Win32,60,3TKXBROM5UDIBF7BUK3X3U8LBGOIJ7,A3NQK6VK36A4GA,3I33IC7ZWG56LLOZ1DAUBYT9MDBA2M,ZI3I1,ZI3I1,3I33IC7ZWG56LLOZ1DAUBYT9MDBA2M,3I33IC7ZWG56LLOZ1DAUBYT9MDBA2M,268161,268161,,,,,,,,,,
,,,,4,4.879065,0,24,24,28,1,five children are sitting around and one of them is sitting in a yellow metal chair,five children are sitting around and one of them is sitting in a pink chair,rensink,Kids,1,43,A3NQK6VK36A4GA,2021-01-09_13h31.54.945,MetaAwareness,2020.1.2,Win32,60,3TKXBROM5UDIBF7BUK3X3U8LBGOIJ7,A3NQK6VK36A4GA,3I33IC7ZWG56LLOZ1DAUBYT9MDBA2M,ZI3I1,ZI3I1,3I33IC7ZWG56LLOZ1DAUBYT9MDBA2M,3I33IC7ZWG56LLOZ1DAUBYT9MDBA2M,268161,268161,,,,,,,,,,
,,,,3,5.71679,0,25,25,32,1,side of an egyptian temple with statues and a cluster of trees inthe background,side of an egyptian temple with statues and low-lying buildings in the background,rensink,Obelisk,4,43,A3NQK6VK36A4GA,2021-01-09_13h31.54.945,MetaAwareness,2020.1.2,Win32,60,3TKXBROM5UDIBF7BUK3X3U8LBGOIJ7,A3NQK6VK36A4GA,3I33IC7ZWG56LLOZ1DAUBYT9MDBA2M,ZI3I1,ZI3I1,3I33IC7ZWG56LLOZ1DAUBYT9MDBA2M,3I33IC7ZWG56LLOZ1DAUBYT9MDBA2M,268161,268161,,,,,,,,,,
,,,,2,4.861425,0,26,26,16,1,reflection of  the house in the water near to land,reflection of the house in the water so far to land,rensink,FarmByPond,4,43,A3NQK6VK36A4GA,2021-01-09_13h31.54.945,MetaAwareness,2020.1.2,Win32,60,3TKXBROM5UDIBF7BUK3X3U8LBGOIJ7,A3NQK6VK36A4GA,3I33IC7ZWG56LLOZ1DAUBYT9MDBA2M,ZI3I1,ZI3I1,3I33IC7ZWG56LLOZ1DAUBYT9MDBA2M,3I33IC7ZWG56LLOZ1DAUBYT9MDBA2M,268161,268161,,,,,,,,,,
,,,,3,6.594025,0,27,27,38,1,the wooden boat near white boat,the whie boat don't near wooden boat,rensink,SummerLake,1,43,A3NQK6VK36A4GA,2021-01-09_13h31.54.945,MetaAwareness,2020.1.2,Win32,60,3TKXBROM5UDIBF7BUK3X3U8LBGOIJ7,A3NQK6VK36A4GA,3I33IC7ZWG56LLOZ1DAUBYT9MDBA2M,ZI3I1,ZI3I1,3I33IC7ZWG56LLOZ1DAUBYT9MDBA2M,3I33IC7ZWG56LLOZ1DAUBYT9MDBA2M,268161,268161,,,,,,,,,,
,,,,4,5.171985,0,28,28,29,1,a child in a group sits on a yellow chair,a child in a group sits on a pink chair,rensink,Kids,5,43,A3NQK6VK36A4GA,2021-01-09_13h31.54.945,MetaAwareness,2020.1.2,Win32,60,3TKXBROM5UDIBF7BUK3X3U8LBGOIJ7,A3NQK6VK36A4GA,3I33IC7ZWG56LLOZ1DAUBYT9MDBA2M,ZI3I1,ZI3I1,3I33IC7ZWG56LLOZ1DAUBYT9MDBA2M,3I33IC7ZWG56LLOZ1DAUBYT9MDBA2M,268161,268161,,,,,,,,,,
,,,,5,7.01715,0,29,29,15,1,a large sculpture of an egyption pharaoh with onlookers taking pictures.,a large and small sculpture of an egyption pharaoh with onlookers taking pictures.,rensink,Egypt,3,43,A3NQK6VK36A4GA,2021-01-09_13h31.54.945,MetaAwareness,2020.1.2,Win32,60,3TKXBROM5UDIBF7BUK3X3U8LBGOIJ7,A3NQK6VK36A4GA,3I33IC7ZWG56LLOZ1DAUBYT9MDBA2M,ZI3I1,ZI3I1,3I33IC7ZWG56LLOZ1DAUBYT9MDBA2M,3I33IC7ZWG56LLOZ1DAUBYT9MDBA2M,268161,268161,,,,,,,,,,
,,,,,,,,,,,,,,,,43,A3NQK6VK36A4GA,2021-01-09_13h31.54.945,MetaAwareness,2020.1.2,Win32,60,3TKXBROM5UDIBF7BUK3X3U8LBGOIJ7,A3NQK6VK36A4GA,3I33IC7ZWG56LLOZ1DAUBYT9MDBA2M,ZI3I1,ZI3I1,3I33IC7ZWG56LLOZ1DAUBYT9MDBA2M,3I33IC7ZWG56LLOZ1DAUBYT9MDBA2M,268161,268161,6,6.669455,someone laying underneath a blue beach umbrella on a crowded beach,someone laying underneath a blue beach umbrella on a crowded beach,same,1,5.27888,members of a marching band crossing a track that all have feather plumes at the front of their hats,a cluttered and rustic looking cafe with 10 hanging lights,different
