consent_response.keys,consent_response.rt,key_resp_2.keys,key_resp_2.rt,Airplane_resp.keys,Airplane_resp.rt,Boat_resp.keys,Boat_resp.rt,user_resp.keys,user_resp.rt,trials.thisRepN,trials.thisTrialN,trials.thisN,trials.thisIndex,trials.ran,workerId,trial_num,image_a,image_b,age,gender (m/f),worker_ID,date,expName,psychopyVersion,OS,frameRate,hitId,assignmentId,a,tp_a,b,tp_b,c,tp_c,Cow_resp.keys,Cow_resp.rt,Garden_resp.keys,Garden_resp.rt
space,4.057635,space,6.395005,5,2.99375,5,0.8303,4,11.31127,0,0,0,24,1,A15SJZQBR8I3B3,25,wolfe_image-030-a_w_outline.jpg,wolfe_image-030-b_w_outline.jpg,46,f,A15SJZQBR8I3B3,2020-10-26_18h58.28.762,MetaAwareness,2020.1.2,Win32,60,3J9L0X0VDGPB6YE7XPGZFR3QRQU9WZ,3M0BCWMB8WZXGBRYLBZXUGT3ZVMBW6,BC0M4,BC0M4,3M0BCWMB8WZXGBRYLBZXUGT3ZVMBW6,3M0BCWMB8WZXGBRYLBZXUGT3ZVMBW6,250984,250984,,,,
,,,,,,,,4,8.62483,0,1,1,1,1,A15SJZQBR8I3B3,2,wolfe_image-099-a_w_outline.jpg,wolfe_image-099-b_w_outline.jpg,46,f,A15SJZQBR8I3B3,2020-10-26_18h58.28.762,MetaAwareness,2020.1.2,Win32,60,3J9L0X0VDGPB6YE7XPGZFR3QRQU9WZ,3M0BCWMB8WZXGBRYLBZXUGT3ZVMBW6,BC0M4,BC0M4,3M0BCWMB8WZXGBRYLBZXUGT3ZVMBW6,3M0BCWMB8WZXGBRYLBZXUGT3ZVMBW6,250984,250984,,,,
,,,,,,,,1,3.82657,0,2,2,13,1,A15SJZQBR8I3B3,14,wolfe_image-096-a_w_outline.jpg,wolfe_image-096-b_w_outline.jpg,46,f,A15SJZQBR8I3B3,2020-10-26_18h58.28.762,MetaAwareness,2020.1.2,Win32,60,3J9L0X0VDGPB6YE7XPGZFR3QRQU9WZ,3M0BCWMB8WZXGBRYLBZXUGT3ZVMBW6,BC0M4,BC0M4,3M0BCWMB8WZXGBRYLBZXUGT3ZVMBW6,3M0BCWMB8WZXGBRYLBZXUGT3ZVMBW6,250984,250984,,,,
,,,,,,,,1,2.8735,0,3,3,14,1,A15SJZQBR8I3B3,15,wolfe_image-108-a_w_outline.jpg,wolfe_image-108-b_w_outline.jpg,46,f,A15SJZQBR8I3B3,2020-10-26_18h58.28.762,MetaAwareness,2020.1.2,Win32,60,3J9L0X0VDGPB6YE7XPGZFR3QRQU9WZ,3M0BCWMB8WZXGBRYLBZXUGT3ZVMBW6,BC0M4,BC0M4,3M0BCWMB8WZXGBRYLBZXUGT3ZVMBW6,3M0BCWMB8WZXGBRYLBZXUGT3ZVMBW6,250984,250984,,,,
,,,,,,,,4,3.47524,0,4,4,7,1,A15SJZQBR8I3B3,8,wolfe_image-045-a_w_outline.jpg,wolfe_image-045-b_w_outline.jpg,46,f,A15SJZQBR8I3B3,2020-10-26_18h58.28.762,MetaAwareness,2020.1.2,Win32,60,3J9L0X0VDGPB6YE7XPGZFR3QRQU9WZ,3M0BCWMB8WZXGBRYLBZXUGT3ZVMBW6,BC0M4,BC0M4,3M0BCWMB8WZXGBRYLBZXUGT3ZVMBW6,3M0BCWMB8WZXGBRYLBZXUGT3ZVMBW6,250984,250984,,,,
,,,,,,,,1,4.580795,0,5,5,27,1,A15SJZQBR8I3B3,28,wolfe_image-016-a_w_outline.jpg,wolfe_image-016-b_w_outline.jpg,46,f,A15SJZQBR8I3B3,2020-10-26_18h58.28.762,MetaAwareness,2020.1.2,Win32,60,3J9L0X0VDGPB6YE7XPGZFR3QRQU9WZ,3M0BCWMB8WZXGBRYLBZXUGT3ZVMBW6,BC0M4,BC0M4,3M0BCWMB8WZXGBRYLBZXUGT3ZVMBW6,3M0BCWMB8WZXGBRYLBZXUGT3ZVMBW6,250984,250984,,,,
,,,,,,,,5,3.694025,0,6,6,18,1,A15SJZQBR8I3B3,19,wolfe_image-081-a_w_outline.jpg,wolfe_image-081-b_w_outline.jpg,46,f,A15SJZQBR8I3B3,2020-10-26_18h58.28.762,MetaAwareness,2020.1.2,Win32,60,3J9L0X0VDGPB6YE7XPGZFR3QRQU9WZ,3M0BCWMB8WZXGBRYLBZXUGT3ZVMBW6,BC0M4,BC0M4,3M0BCWMB8WZXGBRYLBZXUGT3ZVMBW6,3M0BCWMB8WZXGBRYLBZXUGT3ZVMBW6,250984,250984,,,,
,,,,,,,,4,3.145895,0,7,7,22,1,A15SJZQBR8I3B3,23,wolfe_image-090-a_w_outline.jpg,wolfe_image-090-b_w_outline.jpg,46,f,A15SJZQBR8I3B3,2020-10-26_18h58.28.762,MetaAwareness,2020.1.2,Win32,60,3J9L0X0VDGPB6YE7XPGZFR3QRQU9WZ,3M0BCWMB8WZXGBRYLBZXUGT3ZVMBW6,BC0M4,BC0M4,3M0BCWMB8WZXGBRYLBZXUGT3ZVMBW6,3M0BCWMB8WZXGBRYLBZXUGT3ZVMBW6,250984,250984,,,,
,,,,,,,,4,3.73506,0,8,8,3,1,A15SJZQBR8I3B3,4,wolfe_image-032-a_w_outline.jpg,wolfe_image-032-b_w_outline.jpg,46,f,A15SJZQBR8I3B3,2020-10-26_18h58.28.762,MetaAwareness,2020.1.2,Win32,60,3J9L0X0VDGPB6YE7XPGZFR3QRQU9WZ,3M0BCWMB8WZXGBRYLBZXUGT3ZVMBW6,BC0M4,BC0M4,3M0BCWMB8WZXGBRYLBZXUGT3ZVMBW6,3M0BCWMB8WZXGBRYLBZXUGT3ZVMBW6,250984,250984,,,,
,,,,,,,,4,3.62676,0,9,9,19,1,A15SJZQBR8I3B3,20,wolfe_image-078-a_w_outline.jpg,wolfe_image-078-b_w_outline.jpg,46,f,A15SJZQBR8I3B3,2020-10-26_18h58.28.762,MetaAwareness,2020.1.2,Win32,60,3J9L0X0VDGPB6YE7XPGZFR3QRQU9WZ,3M0BCWMB8WZXGBRYLBZXUGT3ZVMBW6,BC0M4,BC0M4,3M0BCWMB8WZXGBRYLBZXUGT3ZVMBW6,3M0BCWMB8WZXGBRYLBZXUGT3ZVMBW6,250984,250984,,,,
,,,,,,,,4,6.37728,0,10,10,29,1,A15SJZQBR8I3B3,30,wolfe_image-084-a_w_outline.jpg,wolfe_image-084-b_w_outline.jpg,46,f,A15SJZQBR8I3B3,2020-10-26_18h58.28.762,MetaAwareness,2020.1.2,Win32,60,3J9L0X0VDGPB6YE7XPGZFR3QRQU9WZ,3M0BCWMB8WZXGBRYLBZXUGT3ZVMBW6,BC0M4,BC0M4,3M0BCWMB8WZXGBRYLBZXUGT3ZVMBW6,3M0BCWMB8WZXGBRYLBZXUGT3ZVMBW6,250984,250984,,,,
,,,,,,,,4,4.20442,0,11,11,12,1,A15SJZQBR8I3B3,13,wolfe_image-113-a_w_outline.jpg,wolfe_image-113-b_w_outline.jpg,46,f,A15SJZQBR8I3B3,2020-10-26_18h58.28.762,MetaAwareness,2020.1.2,Win32,60,3J9L0X0VDGPB6YE7XPGZFR3QRQU9WZ,3M0BCWMB8WZXGBRYLBZXUGT3ZVMBW6,BC0M4,BC0M4,3M0BCWMB8WZXGBRYLBZXUGT3ZVMBW6,3M0BCWMB8WZXGBRYLBZXUGT3ZVMBW6,250984,250984,,,,
,,,,,,,,5,6.54382,0,12,12,5,1,A15SJZQBR8I3B3,6,wolfe_image-082-a_w_outline.jpg,wolfe_image-082-b_w_outline.jpg,46,f,A15SJZQBR8I3B3,2020-10-26_18h58.28.762,MetaAwareness,2020.1.2,Win32,60,3J9L0X0VDGPB6YE7XPGZFR3QRQU9WZ,3M0BCWMB8WZXGBRYLBZXUGT3ZVMBW6,BC0M4,BC0M4,3M0BCWMB8WZXGBRYLBZXUGT3ZVMBW6,3M0BCWMB8WZXGBRYLBZXUGT3ZVMBW6,250984,250984,,,,
,,,,,,,,5,3.60578,0,13,13,15,1,A15SJZQBR8I3B3,16,wolfe_image-021-a_w_outline.jpg,wolfe_image-021-b_w_outline.jpg,46,f,A15SJZQBR8I3B3,2020-10-26_18h58.28.762,MetaAwareness,2020.1.2,Win32,60,3J9L0X0VDGPB6YE7XPGZFR3QRQU9WZ,3M0BCWMB8WZXGBRYLBZXUGT3ZVMBW6,BC0M4,BC0M4,3M0BCWMB8WZXGBRYLBZXUGT3ZVMBW6,3M0BCWMB8WZXGBRYLBZXUGT3ZVMBW6,250984,250984,,,,
,,,,,,,,4,4.78412,0,14,14,11,1,A15SJZQBR8I3B3,12,wolfe_image-020-a_w_outline.jpg,wolfe_image-020-b_w_outline.jpg,46,f,A15SJZQBR8I3B3,2020-10-26_18h58.28.762,MetaAwareness,2020.1.2,Win32,60,3J9L0X0VDGPB6YE7XPGZFR3QRQU9WZ,3M0BCWMB8WZXGBRYLBZXUGT3ZVMBW6,BC0M4,BC0M4,3M0BCWMB8WZXGBRYLBZXUGT3ZVMBW6,3M0BCWMB8WZXGBRYLBZXUGT3ZVMBW6,250984,250984,,,,
,,,,,,,,2,3.15107,0,15,15,26,1,A15SJZQBR8I3B3,27,wolfe_image-122-a_w_outline.jpg,wolfe_image-122-b_w_outline.jpg,46,f,A15SJZQBR8I3B3,2020-10-26_18h58.28.762,MetaAwareness,2020.1.2,Win32,60,3J9L0X0VDGPB6YE7XPGZFR3QRQU9WZ,3M0BCWMB8WZXGBRYLBZXUGT3ZVMBW6,BC0M4,BC0M4,3M0BCWMB8WZXGBRYLBZXUGT3ZVMBW6,3M0BCWMB8WZXGBRYLBZXUGT3ZVMBW6,250984,250984,,,,
,,,,,,,,4,2.9805,0,16,16,17,1,A15SJZQBR8I3B3,18,wolfe_image-034-a_w_outline.jpg,wolfe_image-034-b_w_outline.jpg,46,f,A15SJZQBR8I3B3,2020-10-26_18h58.28.762,MetaAwareness,2020.1.2,Win32,60,3J9L0X0VDGPB6YE7XPGZFR3QRQU9WZ,3M0BCWMB8WZXGBRYLBZXUGT3ZVMBW6,BC0M4,BC0M4,3M0BCWMB8WZXGBRYLBZXUGT3ZVMBW6,3M0BCWMB8WZXGBRYLBZXUGT3ZVMBW6,250984,250984,,,,
,,,,,,,,4,5.712975,0,17,17,0,1,A15SJZQBR8I3B3,1,wolfe_image-120-a_w_outline.jpg,wolfe_image-120-b_w_outline.jpg,46,f,A15SJZQBR8I3B3,2020-10-26_18h58.28.762,MetaAwareness,2020.1.2,Win32,60,3J9L0X0VDGPB6YE7XPGZFR3QRQU9WZ,3M0BCWMB8WZXGBRYLBZXUGT3ZVMBW6,BC0M4,BC0M4,3M0BCWMB8WZXGBRYLBZXUGT3ZVMBW6,3M0BCWMB8WZXGBRYLBZXUGT3ZVMBW6,250984,250984,,,,
,,,,,,,,2,3.40957,0,18,18,28,1,A15SJZQBR8I3B3,29,wolfe_image-085-a_w_outline.jpg,wolfe_image-085-b_w_outline.jpg,46,f,A15SJZQBR8I3B3,2020-10-26_18h58.28.762,MetaAwareness,2020.1.2,Win32,60,3J9L0X0VDGPB6YE7XPGZFR3QRQU9WZ,3M0BCWMB8WZXGBRYLBZXUGT3ZVMBW6,BC0M4,BC0M4,3M0BCWMB8WZXGBRYLBZXUGT3ZVMBW6,3M0BCWMB8WZXGBRYLBZXUGT3ZVMBW6,250984,250984,,,,
,,,,,,,,2,6.84711,0,19,19,6,1,A15SJZQBR8I3B3,7,wolfe_image-092-a_w_outline.jpg,wolfe_image-092-b_w_outline.jpg,46,f,A15SJZQBR8I3B3,2020-10-26_18h58.28.762,MetaAwareness,2020.1.2,Win32,60,3J9L0X0VDGPB6YE7XPGZFR3QRQU9WZ,3M0BCWMB8WZXGBRYLBZXUGT3ZVMBW6,BC0M4,BC0M4,3M0BCWMB8WZXGBRYLBZXUGT3ZVMBW6,3M0BCWMB8WZXGBRYLBZXUGT3ZVMBW6,250984,250984,,,,
,,,,,,,,2,3.150865,0,20,20,23,1,A15SJZQBR8I3B3,24,wolfe_image-010-a_w_outline.jpg,wolfe_image-010-b_w_outline.jpg,46,f,A15SJZQBR8I3B3,2020-10-26_18h58.28.762,MetaAwareness,2020.1.2,Win32,60,3J9L0X0VDGPB6YE7XPGZFR3QRQU9WZ,3M0BCWMB8WZXGBRYLBZXUGT3ZVMBW6,BC0M4,BC0M4,3M0BCWMB8WZXGBRYLBZXUGT3ZVMBW6,3M0BCWMB8WZXGBRYLBZXUGT3ZVMBW6,250984,250984,,,,
,,,,,,,,4,3.723915,0,21,21,25,1,A15SJZQBR8I3B3,26,wolfe_image-049-a_w_outline.jpg,wolfe_image-049-b_w_outline.jpg,46,f,A15SJZQBR8I3B3,2020-10-26_18h58.28.762,MetaAwareness,2020.1.2,Win32,60,3J9L0X0VDGPB6YE7XPGZFR3QRQU9WZ,3M0BCWMB8WZXGBRYLBZXUGT3ZVMBW6,BC0M4,BC0M4,3M0BCWMB8WZXGBRYLBZXUGT3ZVMBW6,3M0BCWMB8WZXGBRYLBZXUGT3ZVMBW6,250984,250984,,,,
,,,,,,,,4,6.614105,0,22,22,8,1,A15SJZQBR8I3B3,9,wolfe_image-115-a_w_outline.jpg,wolfe_image-115-b_w_outline.jpg,46,f,A15SJZQBR8I3B3,2020-10-26_18h58.28.762,MetaAwareness,2020.1.2,Win32,60,3J9L0X0VDGPB6YE7XPGZFR3QRQU9WZ,3M0BCWMB8WZXGBRYLBZXUGT3ZVMBW6,BC0M4,BC0M4,3M0BCWMB8WZXGBRYLBZXUGT3ZVMBW6,3M0BCWMB8WZXGBRYLBZXUGT3ZVMBW6,250984,250984,,,,
,,,,,,,,2,4.500625,0,23,23,20,1,A15SJZQBR8I3B3,21,wolfe_image-126-a_w_outline.jpg,wolfe_image-126-b_w_outline.jpg,46,f,A15SJZQBR8I3B3,2020-10-26_18h58.28.762,MetaAwareness,2020.1.2,Win32,60,3J9L0X0VDGPB6YE7XPGZFR3QRQU9WZ,3M0BCWMB8WZXGBRYLBZXUGT3ZVMBW6,BC0M4,BC0M4,3M0BCWMB8WZXGBRYLBZXUGT3ZVMBW6,3M0BCWMB8WZXGBRYLBZXUGT3ZVMBW6,250984,250984,,,,
,,,,,,,,5,5.085085,0,24,24,10,1,A15SJZQBR8I3B3,11,wolfe_image-100-a_w_outline.jpg,wolfe_image-100-b_w_outline.jpg,46,f,A15SJZQBR8I3B3,2020-10-26_18h58.28.762,MetaAwareness,2020.1.2,Win32,60,3J9L0X0VDGPB6YE7XPGZFR3QRQU9WZ,3M0BCWMB8WZXGBRYLBZXUGT3ZVMBW6,BC0M4,BC0M4,3M0BCWMB8WZXGBRYLBZXUGT3ZVMBW6,3M0BCWMB8WZXGBRYLBZXUGT3ZVMBW6,250984,250984,,,,
,,,,,,,,1,5.76354,0,25,25,2,1,A15SJZQBR8I3B3,3,wolfe_image-116-a_w_outline.jpg,wolfe_image-116-b_w_outline.jpg,46,f,A15SJZQBR8I3B3,2020-10-26_18h58.28.762,MetaAwareness,2020.1.2,Win32,60,3J9L0X0VDGPB6YE7XPGZFR3QRQU9WZ,3M0BCWMB8WZXGBRYLBZXUGT3ZVMBW6,BC0M4,BC0M4,3M0BCWMB8WZXGBRYLBZXUGT3ZVMBW6,3M0BCWMB8WZXGBRYLBZXUGT3ZVMBW6,250984,250984,,,,
,,,,,,,,2,7.80582,0,26,26,4,1,A15SJZQBR8I3B3,5,wolfe_image-093-a_w_outline.jpg,wolfe_image-093-b_w_outline.jpg,46,f,A15SJZQBR8I3B3,2020-10-26_18h58.28.762,MetaAwareness,2020.1.2,Win32,60,3J9L0X0VDGPB6YE7XPGZFR3QRQU9WZ,3M0BCWMB8WZXGBRYLBZXUGT3ZVMBW6,BC0M4,BC0M4,3M0BCWMB8WZXGBRYLBZXUGT3ZVMBW6,3M0BCWMB8WZXGBRYLBZXUGT3ZVMBW6,250984,250984,,,,
,,,,,,,,2,5.421255,0,27,27,16,1,A15SJZQBR8I3B3,17,wolfe_image-048-a_w_outline.jpg,wolfe_image-048-b_w_outline.jpg,46,f,A15SJZQBR8I3B3,2020-10-26_18h58.28.762,MetaAwareness,2020.1.2,Win32,60,3J9L0X0VDGPB6YE7XPGZFR3QRQU9WZ,3M0BCWMB8WZXGBRYLBZXUGT3ZVMBW6,BC0M4,BC0M4,3M0BCWMB8WZXGBRYLBZXUGT3ZVMBW6,3M0BCWMB8WZXGBRYLBZXUGT3ZVMBW6,250984,250984,,,,
,,,,,,,,5,4.742525,0,28,28,9,1,A15SJZQBR8I3B3,10,wolfe_image-019-a_w_outline.jpg,wolfe_image-019-b_w_outline.jpg,46,f,A15SJZQBR8I3B3,2020-10-26_18h58.28.762,MetaAwareness,2020.1.2,Win32,60,3J9L0X0VDGPB6YE7XPGZFR3QRQU9WZ,3M0BCWMB8WZXGBRYLBZXUGT3ZVMBW6,BC0M4,BC0M4,3M0BCWMB8WZXGBRYLBZXUGT3ZVMBW6,3M0BCWMB8WZXGBRYLBZXUGT3ZVMBW6,250984,250984,,,,
,,,,,,,,5,3.070915,0,29,29,21,1,A15SJZQBR8I3B3,22,wolfe_image-101-a_w_outline.jpg,wolfe_image-101-b_w_outline.jpg,46,f,A15SJZQBR8I3B3,2020-10-26_18h58.28.762,MetaAwareness,2020.1.2,Win32,60,3J9L0X0VDGPB6YE7XPGZFR3QRQU9WZ,3M0BCWMB8WZXGBRYLBZXUGT3ZVMBW6,BC0M4,BC0M4,3M0BCWMB8WZXGBRYLBZXUGT3ZVMBW6,3M0BCWMB8WZXGBRYLBZXUGT3ZVMBW6,250984,250984,,,,
,,,,,,,,,,,,,,,A15SJZQBR8I3B3,,,,46,f,A15SJZQBR8I3B3,2020-10-26_18h58.28.762,MetaAwareness,2020.1.2,Win32,60,3J9L0X0VDGPB6YE7XPGZFR3QRQU9WZ,3M0BCWMB8WZXGBRYLBZXUGT3ZVMBW6,BC0M4,BC0M4,3M0BCWMB8WZXGBRYLBZXUGT3ZVMBW6,3M0BCWMB8WZXGBRYLBZXUGT3ZVMBW6,250984,250984,5,0.978935,1,4.945665
