consent_response.keys,consent_response.rt,key_resp_2.keys,key_resp_2.rt,Airplane_resp.keys,Airplane_resp.rt,Boat_resp.keys,Boat_resp.rt,user_resp.keys,user_resp.rt,trials.thisRepN,trials.thisTrialN,trials.thisN,trials.thisIndex,trials.ran,workerId,trial_num,image_a,image_b,age,gender (m/f),worker_ID,date,expName,psychopyVersion,OS,frameRate,hitId,assignmentId,a,tp_a,b,tp_b,c,tp_c,Cow_resp.keys,Cow_resp.rt,Garden_resp.keys,Garden_resp.rt
space,8.677,space,27.723,5,7.524,5,2.077,4,10.401,0,0,0,20,1,A1CINWYLYY8SGL,21,wolfe_image-127-a_w_outline.jpg,wolfe_image-127-b_w_outline.jpg,46,m,A1CINWYLYY8SGL,2020-11-14_10h59.52.753,MetaAwareness,2020.1.2,Win32,60,3SSN80MU8DRACU2OBR3A7JVDDSLXKX,3EICBYG645ZUKWJ5SCCDGA5DHBUJCR,6BIE7,6BIE7,3EICBYG645ZUKWJ5SCCDGA5DHBUJCR,3EICBYG645ZUKWJ5SCCDGA5DHBUJCR,257567,257567,,,,
,,,,,,,,2,15.29,0,1,1,23,1,A1CINWYLYY8SGL,24,wolfe_image-047-a_w_outline.jpg,wolfe_image-047-b_w_outline.jpg,46,m,A1CINWYLYY8SGL,2020-11-14_10h59.52.753,MetaAwareness,2020.1.2,Win32,60,3SSN80MU8DRACU2OBR3A7JVDDSLXKX,3EICBYG645ZUKWJ5SCCDGA5DHBUJCR,6BIE7,6BIE7,3EICBYG645ZUKWJ5SCCDGA5DHBUJCR,3EICBYG645ZUKWJ5SCCDGA5DHBUJCR,257567,257567,,,,
,,,,,,,,3,13.82,0,2,2,24,1,A1CINWYLYY8SGL,25,wolfe_image-100-a_w_outline.jpg,wolfe_image-100-b_w_outline.jpg,46,m,A1CINWYLYY8SGL,2020-11-14_10h59.52.753,MetaAwareness,2020.1.2,Win32,60,3SSN80MU8DRACU2OBR3A7JVDDSLXKX,3EICBYG645ZUKWJ5SCCDGA5DHBUJCR,6BIE7,6BIE7,3EICBYG645ZUKWJ5SCCDGA5DHBUJCR,3EICBYG645ZUKWJ5SCCDGA5DHBUJCR,257567,257567,,,,
,,,,,,,,4,14.666,0,3,3,22,1,A1CINWYLYY8SGL,23,wolfe_image-110-a_w_outline.jpg,wolfe_image-110-b_w_outline.jpg,46,m,A1CINWYLYY8SGL,2020-11-14_10h59.52.753,MetaAwareness,2020.1.2,Win32,60,3SSN80MU8DRACU2OBR3A7JVDDSLXKX,3EICBYG645ZUKWJ5SCCDGA5DHBUJCR,6BIE7,6BIE7,3EICBYG645ZUKWJ5SCCDGA5DHBUJCR,3EICBYG645ZUKWJ5SCCDGA5DHBUJCR,257567,257567,,,,
,,,,,,,,4,5.107,0,4,4,16,1,A1CINWYLYY8SGL,17,wolfe_image-114-a_w_outline.jpg,wolfe_image-114-b_w_outline.jpg,46,m,A1CINWYLYY8SGL,2020-11-14_10h59.52.753,MetaAwareness,2020.1.2,Win32,60,3SSN80MU8DRACU2OBR3A7JVDDSLXKX,3EICBYG645ZUKWJ5SCCDGA5DHBUJCR,6BIE7,6BIE7,3EICBYG645ZUKWJ5SCCDGA5DHBUJCR,3EICBYG645ZUKWJ5SCCDGA5DHBUJCR,257567,257567,,,,
,,,,,,,,1,26.121,0,5,5,2,1,A1CINWYLYY8SGL,3,wolfe_image-079-a_w_outline.jpg,wolfe_image-079-b_w_outline.jpg,46,m,A1CINWYLYY8SGL,2020-11-14_10h59.52.753,MetaAwareness,2020.1.2,Win32,60,3SSN80MU8DRACU2OBR3A7JVDDSLXKX,3EICBYG645ZUKWJ5SCCDGA5DHBUJCR,6BIE7,6BIE7,3EICBYG645ZUKWJ5SCCDGA5DHBUJCR,3EICBYG645ZUKWJ5SCCDGA5DHBUJCR,257567,257567,,,,
,,,,,,,,4,38.936,0,6,6,8,1,A1CINWYLYY8SGL,9,wolfe_image-020-a_w_outline.jpg,wolfe_image-020-b_w_outline.jpg,46,m,A1CINWYLYY8SGL,2020-11-14_10h59.52.753,MetaAwareness,2020.1.2,Win32,60,3SSN80MU8DRACU2OBR3A7JVDDSLXKX,3EICBYG645ZUKWJ5SCCDGA5DHBUJCR,6BIE7,6BIE7,3EICBYG645ZUKWJ5SCCDGA5DHBUJCR,3EICBYG645ZUKWJ5SCCDGA5DHBUJCR,257567,257567,,,,
,,,,,,,,3,8.437,0,7,7,13,1,A1CINWYLYY8SGL,14,wolfe_image-125-a_w_outline.jpg,wolfe_image-125-b_w_outline.jpg,46,m,A1CINWYLYY8SGL,2020-11-14_10h59.52.753,MetaAwareness,2020.1.2,Win32,60,3SSN80MU8DRACU2OBR3A7JVDDSLXKX,3EICBYG645ZUKWJ5SCCDGA5DHBUJCR,6BIE7,6BIE7,3EICBYG645ZUKWJ5SCCDGA5DHBUJCR,3EICBYG645ZUKWJ5SCCDGA5DHBUJCR,257567,257567,,,,
,,,,,,,,4,12.338,0,8,8,15,1,A1CINWYLYY8SGL,16,wolfe_image-083-a_w_outline.jpg,wolfe_image-083-b_w_outline.jpg,46,m,A1CINWYLYY8SGL,2020-11-14_10h59.52.753,MetaAwareness,2020.1.2,Win32,60,3SSN80MU8DRACU2OBR3A7JVDDSLXKX,3EICBYG645ZUKWJ5SCCDGA5DHBUJCR,6BIE7,6BIE7,3EICBYG645ZUKWJ5SCCDGA5DHBUJCR,3EICBYG645ZUKWJ5SCCDGA5DHBUJCR,257567,257567,,,,
,,,,,,,,4,15.154,0,9,9,25,1,A1CINWYLYY8SGL,26,wolfe_image-034-a_w_outline.jpg,wolfe_image-034-b_w_outline.jpg,46,m,A1CINWYLYY8SGL,2020-11-14_10h59.52.753,MetaAwareness,2020.1.2,Win32,60,3SSN80MU8DRACU2OBR3A7JVDDSLXKX,3EICBYG645ZUKWJ5SCCDGA5DHBUJCR,6BIE7,6BIE7,3EICBYG645ZUKWJ5SCCDGA5DHBUJCR,3EICBYG645ZUKWJ5SCCDGA5DHBUJCR,257567,257567,,,,
,,,,,,,,3,9.155,0,10,10,5,1,A1CINWYLYY8SGL,6,wolfe_image-046-a_w_outline.jpg,wolfe_image-046-b_w_outline.jpg,46,m,A1CINWYLYY8SGL,2020-11-14_10h59.52.753,MetaAwareness,2020.1.2,Win32,60,3SSN80MU8DRACU2OBR3A7JVDDSLXKX,3EICBYG645ZUKWJ5SCCDGA5DHBUJCR,6BIE7,6BIE7,3EICBYG645ZUKWJ5SCCDGA5DHBUJCR,3EICBYG645ZUKWJ5SCCDGA5DHBUJCR,257567,257567,,,,
,,,,,,,,4,8.196,0,11,11,0,1,A1CINWYLYY8SGL,1,wolfe_image-081-a_w_outline.jpg,wolfe_image-081-b_w_outline.jpg,46,m,A1CINWYLYY8SGL,2020-11-14_10h59.52.753,MetaAwareness,2020.1.2,Win32,60,3SSN80MU8DRACU2OBR3A7JVDDSLXKX,3EICBYG645ZUKWJ5SCCDGA5DHBUJCR,6BIE7,6BIE7,3EICBYG645ZUKWJ5SCCDGA5DHBUJCR,3EICBYG645ZUKWJ5SCCDGA5DHBUJCR,257567,257567,,,,
,,,,,,,,4,6.829,0,12,12,1,1,A1CINWYLYY8SGL,2,wolfe_image-050-a_w_outline.jpg,wolfe_image-050-b_w_outline.jpg,46,m,A1CINWYLYY8SGL,2020-11-14_10h59.52.753,MetaAwareness,2020.1.2,Win32,60,3SSN80MU8DRACU2OBR3A7JVDDSLXKX,3EICBYG645ZUKWJ5SCCDGA5DHBUJCR,6BIE7,6BIE7,3EICBYG645ZUKWJ5SCCDGA5DHBUJCR,3EICBYG645ZUKWJ5SCCDGA5DHBUJCR,257567,257567,,,,
,,,,,,,,5,6.796,0,13,13,14,1,A1CINWYLYY8SGL,15,wolfe_image-111-a_w_outline.jpg,wolfe_image-111-b_w_outline.jpg,46,m,A1CINWYLYY8SGL,2020-11-14_10h59.52.753,MetaAwareness,2020.1.2,Win32,60,3SSN80MU8DRACU2OBR3A7JVDDSLXKX,3EICBYG645ZUKWJ5SCCDGA5DHBUJCR,6BIE7,6BIE7,3EICBYG645ZUKWJ5SCCDGA5DHBUJCR,3EICBYG645ZUKWJ5SCCDGA5DHBUJCR,257567,257567,,,,
,,,,,,,,4,5.903,0,14,14,21,1,A1CINWYLYY8SGL,22,wolfe_image-136-a_w_outline.jpg,wolfe_image-136-b_w_outline.jpg,46,m,A1CINWYLYY8SGL,2020-11-14_10h59.52.753,MetaAwareness,2020.1.2,Win32,60,3SSN80MU8DRACU2OBR3A7JVDDSLXKX,3EICBYG645ZUKWJ5SCCDGA5DHBUJCR,6BIE7,6BIE7,3EICBYG645ZUKWJ5SCCDGA5DHBUJCR,3EICBYG645ZUKWJ5SCCDGA5DHBUJCR,257567,257567,,,,
,,,,,,,,5,8.64,0,15,15,12,1,A1CINWYLYY8SGL,13,wolfe_image-089-a_w_outline.jpg,wolfe_image-089-b_w_outline.jpg,46,m,A1CINWYLYY8SGL,2020-11-14_10h59.52.753,MetaAwareness,2020.1.2,Win32,60,3SSN80MU8DRACU2OBR3A7JVDDSLXKX,3EICBYG645ZUKWJ5SCCDGA5DHBUJCR,6BIE7,6BIE7,3EICBYG645ZUKWJ5SCCDGA5DHBUJCR,3EICBYG645ZUKWJ5SCCDGA5DHBUJCR,257567,257567,,,,
,,,,,,,,1,9.749,0,16,16,3,1,A1CINWYLYY8SGL,4,wolfe_image-016-a_w_outline.jpg,wolfe_image-016-b_w_outline.jpg,46,m,A1CINWYLYY8SGL,2020-11-14_10h59.52.753,MetaAwareness,2020.1.2,Win32,60,3SSN80MU8DRACU2OBR3A7JVDDSLXKX,3EICBYG645ZUKWJ5SCCDGA5DHBUJCR,6BIE7,6BIE7,3EICBYG645ZUKWJ5SCCDGA5DHBUJCR,3EICBYG645ZUKWJ5SCCDGA5DHBUJCR,257567,257567,,,,
,,,,,,,,5,12.82,0,17,17,10,1,A1CINWYLYY8SGL,11,wolfe_image-004-a_w_outline.jpg,wolfe_image-004-b_w_outline.jpg,46,m,A1CINWYLYY8SGL,2020-11-14_10h59.52.753,MetaAwareness,2020.1.2,Win32,60,3SSN80MU8DRACU2OBR3A7JVDDSLXKX,3EICBYG645ZUKWJ5SCCDGA5DHBUJCR,6BIE7,6BIE7,3EICBYG645ZUKWJ5SCCDGA5DHBUJCR,3EICBYG645ZUKWJ5SCCDGA5DHBUJCR,257567,257567,,,,
,,,,,,,,2,9.207,0,18,18,27,1,A1CINWYLYY8SGL,28,wolfe_image-085-a_w_outline.jpg,wolfe_image-085-b_w_outline.jpg,46,m,A1CINWYLYY8SGL,2020-11-14_10h59.52.753,MetaAwareness,2020.1.2,Win32,60,3SSN80MU8DRACU2OBR3A7JVDDSLXKX,3EICBYG645ZUKWJ5SCCDGA5DHBUJCR,6BIE7,6BIE7,3EICBYG645ZUKWJ5SCCDGA5DHBUJCR,3EICBYG645ZUKWJ5SCCDGA5DHBUJCR,257567,257567,,,,
,,,,,,,,5,5.987,0,19,19,28,1,A1CINWYLYY8SGL,29,wolfe_image-120-a_w_outline.jpg,wolfe_image-120-b_w_outline.jpg,46,m,A1CINWYLYY8SGL,2020-11-14_10h59.52.753,MetaAwareness,2020.1.2,Win32,60,3SSN80MU8DRACU2OBR3A7JVDDSLXKX,3EICBYG645ZUKWJ5SCCDGA5DHBUJCR,6BIE7,6BIE7,3EICBYG645ZUKWJ5SCCDGA5DHBUJCR,3EICBYG645ZUKWJ5SCCDGA5DHBUJCR,257567,257567,,,,
,,,,,,,,3,12.453,0,20,20,7,1,A1CINWYLYY8SGL,8,wolfe_image-002-a_w_outline.jpg,wolfe_image-002-b_w_outline.jpg,46,m,A1CINWYLYY8SGL,2020-11-14_10h59.52.753,MetaAwareness,2020.1.2,Win32,60,3SSN80MU8DRACU2OBR3A7JVDDSLXKX,3EICBYG645ZUKWJ5SCCDGA5DHBUJCR,6BIE7,6BIE7,3EICBYG645ZUKWJ5SCCDGA5DHBUJCR,3EICBYG645ZUKWJ5SCCDGA5DHBUJCR,257567,257567,,,,
,,,,,,,,4,5.839,0,21,21,19,1,A1CINWYLYY8SGL,20,wolfe_image-077-a_w_outline.jpg,wolfe_image-077-b_w_outline.jpg,46,m,A1CINWYLYY8SGL,2020-11-14_10h59.52.753,MetaAwareness,2020.1.2,Win32,60,3SSN80MU8DRACU2OBR3A7JVDDSLXKX,3EICBYG645ZUKWJ5SCCDGA5DHBUJCR,6BIE7,6BIE7,3EICBYG645ZUKWJ5SCCDGA5DHBUJCR,3EICBYG645ZUKWJ5SCCDGA5DHBUJCR,257567,257567,,,,
,,,,,,,,2,9.493,0,22,22,9,1,A1CINWYLYY8SGL,10,wolfe_image-121-a_w_outline.jpg,wolfe_image-121-b_w_outline.jpg,46,m,A1CINWYLYY8SGL,2020-11-14_10h59.52.753,MetaAwareness,2020.1.2,Win32,60,3SSN80MU8DRACU2OBR3A7JVDDSLXKX,3EICBYG645ZUKWJ5SCCDGA5DHBUJCR,6BIE7,6BIE7,3EICBYG645ZUKWJ5SCCDGA5DHBUJCR,3EICBYG645ZUKWJ5SCCDGA5DHBUJCR,257567,257567,,,,
,,,,,,,,1,16.904,0,23,23,26,1,A1CINWYLYY8SGL,27,wolfe_image-128-a_w_outline.jpg,wolfe_image-128-b_w_outline.jpg,46,m,A1CINWYLYY8SGL,2020-11-14_10h59.52.753,MetaAwareness,2020.1.2,Win32,60,3SSN80MU8DRACU2OBR3A7JVDDSLXKX,3EICBYG645ZUKWJ5SCCDGA5DHBUJCR,6BIE7,6BIE7,3EICBYG645ZUKWJ5SCCDGA5DHBUJCR,3EICBYG645ZUKWJ5SCCDGA5DHBUJCR,257567,257567,,,,
,,,,,,,,2,7.492,0,24,24,6,1,A1CINWYLYY8SGL,7,wolfe_image-082-a_w_outline.jpg,wolfe_image-082-b_w_outline.jpg,46,m,A1CINWYLYY8SGL,2020-11-14_10h59.52.753,MetaAwareness,2020.1.2,Win32,60,3SSN80MU8DRACU2OBR3A7JVDDSLXKX,3EICBYG645ZUKWJ5SCCDGA5DHBUJCR,6BIE7,6BIE7,3EICBYG645ZUKWJ5SCCDGA5DHBUJCR,3EICBYG645ZUKWJ5SCCDGA5DHBUJCR,257567,257567,,,,
,,,,,,,,5,22.521,0,25,25,17,1,A1CINWYLYY8SGL,18,wolfe_image-019-a_w_outline.jpg,wolfe_image-019-b_w_outline.jpg,46,m,A1CINWYLYY8SGL,2020-11-14_10h59.52.753,MetaAwareness,2020.1.2,Win32,60,3SSN80MU8DRACU2OBR3A7JVDDSLXKX,3EICBYG645ZUKWJ5SCCDGA5DHBUJCR,6BIE7,6BIE7,3EICBYG645ZUKWJ5SCCDGA5DHBUJCR,3EICBYG645ZUKWJ5SCCDGA5DHBUJCR,257567,257567,,,,
,,,,,,,,5,6.171,0,26,26,29,1,A1CINWYLYY8SGL,30,wolfe_image-012-a_w_outline.jpg,wolfe_image-012-b_w_outline.jpg,46,m,A1CINWYLYY8SGL,2020-11-14_10h59.52.753,MetaAwareness,2020.1.2,Win32,60,3SSN80MU8DRACU2OBR3A7JVDDSLXKX,3EICBYG645ZUKWJ5SCCDGA5DHBUJCR,6BIE7,6BIE7,3EICBYG645ZUKWJ5SCCDGA5DHBUJCR,3EICBYG645ZUKWJ5SCCDGA5DHBUJCR,257567,257567,,,,
,,,,,,,,3,15.969,0,27,27,18,1,A1CINWYLYY8SGL,19,wolfe_image-030-a_w_outline.jpg,wolfe_image-030-b_w_outline.jpg,46,m,A1CINWYLYY8SGL,2020-11-14_10h59.52.753,MetaAwareness,2020.1.2,Win32,60,3SSN80MU8DRACU2OBR3A7JVDDSLXKX,3EICBYG645ZUKWJ5SCCDGA5DHBUJCR,6BIE7,6BIE7,3EICBYG645ZUKWJ5SCCDGA5DHBUJCR,3EICBYG645ZUKWJ5SCCDGA5DHBUJCR,257567,257567,,,,
,,,,,,,,5,6.37,0,28,28,4,1,A1CINWYLYY8SGL,5,wolfe_image-109-a_w_outline.jpg,wolfe_image-109-b_w_outline.jpg,46,m,A1CINWYLYY8SGL,2020-11-14_10h59.52.753,MetaAwareness,2020.1.2,Win32,60,3SSN80MU8DRACU2OBR3A7JVDDSLXKX,3EICBYG645ZUKWJ5SCCDGA5DHBUJCR,6BIE7,6BIE7,3EICBYG645ZUKWJ5SCCDGA5DHBUJCR,3EICBYG645ZUKWJ5SCCDGA5DHBUJCR,257567,257567,,,,
,,,,,,,,4,16.161,0,29,29,11,1,A1CINWYLYY8SGL,12,wolfe_image-003-a_w_outline.jpg,wolfe_image-003-b_w_outline.jpg,46,m,A1CINWYLYY8SGL,2020-11-14_10h59.52.753,MetaAwareness,2020.1.2,Win32,60,3SSN80MU8DRACU2OBR3A7JVDDSLXKX,3EICBYG645ZUKWJ5SCCDGA5DHBUJCR,6BIE7,6BIE7,3EICBYG645ZUKWJ5SCCDGA5DHBUJCR,3EICBYG645ZUKWJ5SCCDGA5DHBUJCR,257567,257567,,,,
,,,,,,,,,,,,,,,A1CINWYLYY8SGL,,,,46,m,A1CINWYLYY8SGL,2020-11-14_10h59.52.753,MetaAwareness,2020.1.2,Win32,60,3SSN80MU8DRACU2OBR3A7JVDDSLXKX,3EICBYG645ZUKWJ5SCCDGA5DHBUJCR,6BIE7,6BIE7,3EICBYG645ZUKWJ5SCCDGA5DHBUJCR,3EICBYG645ZUKWJ5SCCDGA5DHBUJCR,257567,257567,5,2.182,2,6.981
