consent_response.keys,consent_response.rt,key_resp_2.keys,key_resp_2.rt,Airplane_resp.keys,Airplane_resp.rt,Boat_resp.keys,Boat_resp.rt,user_resp.keys,user_resp.rt,trials.thisRepN,trials.thisTrialN,trials.thisN,trials.thisIndex,trials.ran,workerId,trial_num,image_a,image_b,age,gender (m/f),worker_ID,date,expName,psychopyVersion,OS,frameRate,hitId,assignmentId,a,tp_a,b,tp_b,c,tp_c,Cow_resp.keys,Cow_resp.rt,Garden_resp.keys,Garden_resp.rt
space,5.49874,space,12.081855,5,3.565545,5,1.425255,3,4.600665,0,0,0,27,1,A3MF31JQ350ABS,28,wolfe_image-015-a_w_outline.jpg,wolfe_image-015-b_w_outline.jpg,49,f,A3MF31JQ350ABS,2020-10-26_11h18.14.767,MetaAwareness,2020.1.2,Win32,60,3J9L0X0VDGPB6YE7XPGZFR3QRQU9WZ,3NAPMVF0ZXIO2JQ1UAYA17RIBTH27Z,0MAN4,0MAN4,3NAPMVF0ZXIO2JQ1UAYA17RIBTH27Z,3NAPMVF0ZXIO2JQ1UAYA17RIBTH27Z,250984,250984,,,,
,,,,,,,,2,5.89038,0,1,1,14,1,A3MF31JQ350ABS,15,wolfe_image-027-a_w_outline.jpg,wolfe_image-027-b_w_outline.jpg,49,f,A3MF31JQ350ABS,2020-10-26_11h18.14.767,MetaAwareness,2020.1.2,Win32,60,3J9L0X0VDGPB6YE7XPGZFR3QRQU9WZ,3NAPMVF0ZXIO2JQ1UAYA17RIBTH27Z,0MAN4,0MAN4,3NAPMVF0ZXIO2JQ1UAYA17RIBTH27Z,3NAPMVF0ZXIO2JQ1UAYA17RIBTH27Z,250984,250984,,,,
,,,,,,,,5,7.56082,0,2,2,8,1,A3MF31JQ350ABS,9,wolfe_image-085-a_w_outline.jpg,wolfe_image-085-b_w_outline.jpg,49,f,A3MF31JQ350ABS,2020-10-26_11h18.14.767,MetaAwareness,2020.1.2,Win32,60,3J9L0X0VDGPB6YE7XPGZFR3QRQU9WZ,3NAPMVF0ZXIO2JQ1UAYA17RIBTH27Z,0MAN4,0MAN4,3NAPMVF0ZXIO2JQ1UAYA17RIBTH27Z,3NAPMVF0ZXIO2JQ1UAYA17RIBTH27Z,250984,250984,,,,
,,,,,,,,3,10.862115,0,3,3,3,1,A3MF31JQ350ABS,4,wolfe_image-093-a_w_outline.jpg,wolfe_image-093-b_w_outline.jpg,49,f,A3MF31JQ350ABS,2020-10-26_11h18.14.767,MetaAwareness,2020.1.2,Win32,60,3J9L0X0VDGPB6YE7XPGZFR3QRQU9WZ,3NAPMVF0ZXIO2JQ1UAYA17RIBTH27Z,0MAN4,0MAN4,3NAPMVF0ZXIO2JQ1UAYA17RIBTH27Z,3NAPMVF0ZXIO2JQ1UAYA17RIBTH27Z,250984,250984,,,,
,,,,,,,,4,4.231125,0,4,4,9,1,A3MF31JQ350ABS,10,wolfe_image-124-a_w_outline.jpg,wolfe_image-124-b_w_outline.jpg,49,f,A3MF31JQ350ABS,2020-10-26_11h18.14.767,MetaAwareness,2020.1.2,Win32,60,3J9L0X0VDGPB6YE7XPGZFR3QRQU9WZ,3NAPMVF0ZXIO2JQ1UAYA17RIBTH27Z,0MAN4,0MAN4,3NAPMVF0ZXIO2JQ1UAYA17RIBTH27Z,3NAPMVF0ZXIO2JQ1UAYA17RIBTH27Z,250984,250984,,,,
,,,,,,,,3,47.68451,0,5,5,6,1,A3MF31JQ350ABS,7,wolfe_image-033-a_w_outline.jpg,wolfe_image-033-b_w_outline.jpg,49,f,A3MF31JQ350ABS,2020-10-26_11h18.14.767,MetaAwareness,2020.1.2,Win32,60,3J9L0X0VDGPB6YE7XPGZFR3QRQU9WZ,3NAPMVF0ZXIO2JQ1UAYA17RIBTH27Z,0MAN4,0MAN4,3NAPMVF0ZXIO2JQ1UAYA17RIBTH27Z,3NAPMVF0ZXIO2JQ1UAYA17RIBTH27Z,250984,250984,,,,
,,,,,,,,2,3.10152,0,6,6,17,1,A3MF31JQ350ABS,18,wolfe_image-039-a_w_outline.jpg,wolfe_image-039-b_w_outline.jpg,49,f,A3MF31JQ350ABS,2020-10-26_11h18.14.767,MetaAwareness,2020.1.2,Win32,60,3J9L0X0VDGPB6YE7XPGZFR3QRQU9WZ,3NAPMVF0ZXIO2JQ1UAYA17RIBTH27Z,0MAN4,0MAN4,3NAPMVF0ZXIO2JQ1UAYA17RIBTH27Z,3NAPMVF0ZXIO2JQ1UAYA17RIBTH27Z,250984,250984,,,,
,,,,,,,,2,7.12315,0,7,7,25,1,A3MF31JQ350ABS,26,wolfe_image-129-a_w_outline.jpg,wolfe_image-129-b_w_outline.jpg,49,f,A3MF31JQ350ABS,2020-10-26_11h18.14.767,MetaAwareness,2020.1.2,Win32,60,3J9L0X0VDGPB6YE7XPGZFR3QRQU9WZ,3NAPMVF0ZXIO2JQ1UAYA17RIBTH27Z,0MAN4,0MAN4,3NAPMVF0ZXIO2JQ1UAYA17RIBTH27Z,3NAPMVF0ZXIO2JQ1UAYA17RIBTH27Z,250984,250984,,,,
,,,,,,,,3,0.00282,0,8,8,26,1,A3MF31JQ350ABS,27,wolfe_image-047-a_w_outline.jpg,wolfe_image-047-b_w_outline.jpg,49,f,A3MF31JQ350ABS,2020-10-26_11h18.14.767,MetaAwareness,2020.1.2,Win32,60,3J9L0X0VDGPB6YE7XPGZFR3QRQU9WZ,3NAPMVF0ZXIO2JQ1UAYA17RIBTH27Z,0MAN4,0MAN4,3NAPMVF0ZXIO2JQ1UAYA17RIBTH27Z,3NAPMVF0ZXIO2JQ1UAYA17RIBTH27Z,250984,250984,,,,
,,,,,,,,2,3.416125,0,9,9,2,1,A3MF31JQ350ABS,3,wolfe_image-115-a_w_outline.jpg,wolfe_image-115-b_w_outline.jpg,49,f,A3MF31JQ350ABS,2020-10-26_11h18.14.767,MetaAwareness,2020.1.2,Win32,60,3J9L0X0VDGPB6YE7XPGZFR3QRQU9WZ,3NAPMVF0ZXIO2JQ1UAYA17RIBTH27Z,0MAN4,0MAN4,3NAPMVF0ZXIO2JQ1UAYA17RIBTH27Z,3NAPMVF0ZXIO2JQ1UAYA17RIBTH27Z,250984,250984,,,,
,,,,,,,,5,2.999935,0,10,10,11,1,A3MF31JQ350ABS,12,wolfe_image-116-a_w_outline.jpg,wolfe_image-116-b_w_outline.jpg,49,f,A3MF31JQ350ABS,2020-10-26_11h18.14.767,MetaAwareness,2020.1.2,Win32,60,3J9L0X0VDGPB6YE7XPGZFR3QRQU9WZ,3NAPMVF0ZXIO2JQ1UAYA17RIBTH27Z,0MAN4,0MAN4,3NAPMVF0ZXIO2JQ1UAYA17RIBTH27Z,3NAPMVF0ZXIO2JQ1UAYA17RIBTH27Z,250984,250984,,,,
,,,,,,,,4,2.304905,0,11,11,5,1,A3MF31JQ350ABS,6,wolfe_image-108-a_w_outline.jpg,wolfe_image-108-b_w_outline.jpg,49,f,A3MF31JQ350ABS,2020-10-26_11h18.14.767,MetaAwareness,2020.1.2,Win32,60,3J9L0X0VDGPB6YE7XPGZFR3QRQU9WZ,3NAPMVF0ZXIO2JQ1UAYA17RIBTH27Z,0MAN4,0MAN4,3NAPMVF0ZXIO2JQ1UAYA17RIBTH27Z,3NAPMVF0ZXIO2JQ1UAYA17RIBTH27Z,250984,250984,,,,
,,,,,,,,3,2.485615,0,12,12,20,1,A3MF31JQ350ABS,21,wolfe_image-088-a_w_outline.jpg,wolfe_image-088-b_w_outline.jpg,49,f,A3MF31JQ350ABS,2020-10-26_11h18.14.767,MetaAwareness,2020.1.2,Win32,60,3J9L0X0VDGPB6YE7XPGZFR3QRQU9WZ,3NAPMVF0ZXIO2JQ1UAYA17RIBTH27Z,0MAN4,0MAN4,3NAPMVF0ZXIO2JQ1UAYA17RIBTH27Z,3NAPMVF0ZXIO2JQ1UAYA17RIBTH27Z,250984,250984,,,,
,,,,,,,,2,12.905745,0,13,13,4,1,A3MF31JQ350ABS,5,wolfe_image-096-a_w_outline.jpg,wolfe_image-096-b_w_outline.jpg,49,f,A3MF31JQ350ABS,2020-10-26_11h18.14.767,MetaAwareness,2020.1.2,Win32,60,3J9L0X0VDGPB6YE7XPGZFR3QRQU9WZ,3NAPMVF0ZXIO2JQ1UAYA17RIBTH27Z,0MAN4,0MAN4,3NAPMVF0ZXIO2JQ1UAYA17RIBTH27Z,3NAPMVF0ZXIO2JQ1UAYA17RIBTH27Z,250984,250984,,,,
,,,,,,,,4,3.45501,0,14,14,15,1,A3MF31JQ350ABS,16,wolfe_image-098-a_w_outline.jpg,wolfe_image-098-b_w_outline.jpg,49,f,A3MF31JQ350ABS,2020-10-26_11h18.14.767,MetaAwareness,2020.1.2,Win32,60,3J9L0X0VDGPB6YE7XPGZFR3QRQU9WZ,3NAPMVF0ZXIO2JQ1UAYA17RIBTH27Z,0MAN4,0MAN4,3NAPMVF0ZXIO2JQ1UAYA17RIBTH27Z,3NAPMVF0ZXIO2JQ1UAYA17RIBTH27Z,250984,250984,,,,
,,,,,,,,5,3.1153,0,15,15,13,1,A3MF31JQ350ABS,14,wolfe_image-095-a_w_outline.jpg,wolfe_image-095-b_w_outline.jpg,49,f,A3MF31JQ350ABS,2020-10-26_11h18.14.767,MetaAwareness,2020.1.2,Win32,60,3J9L0X0VDGPB6YE7XPGZFR3QRQU9WZ,3NAPMVF0ZXIO2JQ1UAYA17RIBTH27Z,0MAN4,0MAN4,3NAPMVF0ZXIO2JQ1UAYA17RIBTH27Z,3NAPMVF0ZXIO2JQ1UAYA17RIBTH27Z,250984,250984,,,,
,,,,,,,,5,4.100525,0,16,16,10,1,A3MF31JQ350ABS,11,wolfe_image-136-a_w_outline.jpg,wolfe_image-136-b_w_outline.jpg,49,f,A3MF31JQ350ABS,2020-10-26_11h18.14.767,MetaAwareness,2020.1.2,Win32,60,3J9L0X0VDGPB6YE7XPGZFR3QRQU9WZ,3NAPMVF0ZXIO2JQ1UAYA17RIBTH27Z,0MAN4,0MAN4,3NAPMVF0ZXIO2JQ1UAYA17RIBTH27Z,3NAPMVF0ZXIO2JQ1UAYA17RIBTH27Z,250984,250984,,,,
,,,,,,,,2,5.071225,0,17,17,22,1,A3MF31JQ350ABS,23,wolfe_image-125-a_w_outline.jpg,wolfe_image-125-b_w_outline.jpg,49,f,A3MF31JQ350ABS,2020-10-26_11h18.14.767,MetaAwareness,2020.1.2,Win32,60,3J9L0X0VDGPB6YE7XPGZFR3QRQU9WZ,3NAPMVF0ZXIO2JQ1UAYA17RIBTH27Z,0MAN4,0MAN4,3NAPMVF0ZXIO2JQ1UAYA17RIBTH27Z,3NAPMVF0ZXIO2JQ1UAYA17RIBTH27Z,250984,250984,,,,
,,,,,,,,2,3.877295,0,18,18,1,1,A3MF31JQ350ABS,2,wolfe_image-030-a_w_outline.jpg,wolfe_image-030-b_w_outline.jpg,49,f,A3MF31JQ350ABS,2020-10-26_11h18.14.767,MetaAwareness,2020.1.2,Win32,60,3J9L0X0VDGPB6YE7XPGZFR3QRQU9WZ,3NAPMVF0ZXIO2JQ1UAYA17RIBTH27Z,0MAN4,0MAN4,3NAPMVF0ZXIO2JQ1UAYA17RIBTH27Z,3NAPMVF0ZXIO2JQ1UAYA17RIBTH27Z,250984,250984,,,,
,,,,,,,,4,3.402595,0,19,19,29,1,A3MF31JQ350ABS,30,wolfe_image-094-a_w_outline.jpg,wolfe_image-094-b_w_outline.jpg,49,f,A3MF31JQ350ABS,2020-10-26_11h18.14.767,MetaAwareness,2020.1.2,Win32,60,3J9L0X0VDGPB6YE7XPGZFR3QRQU9WZ,3NAPMVF0ZXIO2JQ1UAYA17RIBTH27Z,0MAN4,0MAN4,3NAPMVF0ZXIO2JQ1UAYA17RIBTH27Z,3NAPMVF0ZXIO2JQ1UAYA17RIBTH27Z,250984,250984,,,,
,,,,,,,,1,3.963785,0,20,20,28,1,A3MF31JQ350ABS,29,wolfe_image-024-a_w_outline.jpg,wolfe_image-024-b_w_outline.jpg,49,f,A3MF31JQ350ABS,2020-10-26_11h18.14.767,MetaAwareness,2020.1.2,Win32,60,3J9L0X0VDGPB6YE7XPGZFR3QRQU9WZ,3NAPMVF0ZXIO2JQ1UAYA17RIBTH27Z,0MAN4,0MAN4,3NAPMVF0ZXIO2JQ1UAYA17RIBTH27Z,3NAPMVF0ZXIO2JQ1UAYA17RIBTH27Z,250984,250984,,,,
,,,,,,,,1,2.80336,0,21,21,24,1,A3MF31JQ350ABS,25,wolfe_image-022-a_w_outline.jpg,wolfe_image-022-b_w_outline.jpg,49,f,A3MF31JQ350ABS,2020-10-26_11h18.14.767,MetaAwareness,2020.1.2,Win32,60,3J9L0X0VDGPB6YE7XPGZFR3QRQU9WZ,3NAPMVF0ZXIO2JQ1UAYA17RIBTH27Z,0MAN4,0MAN4,3NAPMVF0ZXIO2JQ1UAYA17RIBTH27Z,3NAPMVF0ZXIO2JQ1UAYA17RIBTH27Z,250984,250984,,,,
,,,,,,,,2,9.767255,0,22,22,16,1,A3MF31JQ350ABS,17,wolfe_image-026-a_w_outline.jpg,wolfe_image-026-b_w_outline.jpg,49,f,A3MF31JQ350ABS,2020-10-26_11h18.14.767,MetaAwareness,2020.1.2,Win32,60,3J9L0X0VDGPB6YE7XPGZFR3QRQU9WZ,3NAPMVF0ZXIO2JQ1UAYA17RIBTH27Z,0MAN4,0MAN4,3NAPMVF0ZXIO2JQ1UAYA17RIBTH27Z,3NAPMVF0ZXIO2JQ1UAYA17RIBTH27Z,250984,250984,,,,
,,,,,,,,4,6.450635,0,23,23,21,1,A3MF31JQ350ABS,22,wolfe_image-099-a_w_outline.jpg,wolfe_image-099-b_w_outline.jpg,49,f,A3MF31JQ350ABS,2020-10-26_11h18.14.767,MetaAwareness,2020.1.2,Win32,60,3J9L0X0VDGPB6YE7XPGZFR3QRQU9WZ,3NAPMVF0ZXIO2JQ1UAYA17RIBTH27Z,0MAN4,0MAN4,3NAPMVF0ZXIO2JQ1UAYA17RIBTH27Z,3NAPMVF0ZXIO2JQ1UAYA17RIBTH27Z,250984,250984,,,,
,,,,,,,,2,4.487765,0,24,24,0,1,A3MF31JQ350ABS,1,wolfe_image-076-a_w_outline.jpg,wolfe_image-076-b_w_outline.jpg,49,f,A3MF31JQ350ABS,2020-10-26_11h18.14.767,MetaAwareness,2020.1.2,Win32,60,3J9L0X0VDGPB6YE7XPGZFR3QRQU9WZ,3NAPMVF0ZXIO2JQ1UAYA17RIBTH27Z,0MAN4,0MAN4,3NAPMVF0ZXIO2JQ1UAYA17RIBTH27Z,3NAPMVF0ZXIO2JQ1UAYA17RIBTH27Z,250984,250984,,,,
,,,,,,,,3,3.855785,0,25,25,19,1,A3MF31JQ350ABS,20,wolfe_image-041-a_w_outline.jpg,wolfe_image-041-b_w_outline.jpg,49,f,A3MF31JQ350ABS,2020-10-26_11h18.14.767,MetaAwareness,2020.1.2,Win32,60,3J9L0X0VDGPB6YE7XPGZFR3QRQU9WZ,3NAPMVF0ZXIO2JQ1UAYA17RIBTH27Z,0MAN4,0MAN4,3NAPMVF0ZXIO2JQ1UAYA17RIBTH27Z,3NAPMVF0ZXIO2JQ1UAYA17RIBTH27Z,250984,250984,,,,
,,,,,,,,4,5.638765,0,26,26,18,1,A3MF31JQ350ABS,19,wolfe_image-080-a_w_outline.jpg,wolfe_image-080-b_w_outline.jpg,49,f,A3MF31JQ350ABS,2020-10-26_11h18.14.767,MetaAwareness,2020.1.2,Win32,60,3J9L0X0VDGPB6YE7XPGZFR3QRQU9WZ,3NAPMVF0ZXIO2JQ1UAYA17RIBTH27Z,0MAN4,0MAN4,3NAPMVF0ZXIO2JQ1UAYA17RIBTH27Z,3NAPMVF0ZXIO2JQ1UAYA17RIBTH27Z,250984,250984,,,,
,,,,,,,,5,4.85876,0,27,27,7,1,A3MF31JQ350ABS,8,wolfe_image-012-a_w_outline.jpg,wolfe_image-012-b_w_outline.jpg,49,f,A3MF31JQ350ABS,2020-10-26_11h18.14.767,MetaAwareness,2020.1.2,Win32,60,3J9L0X0VDGPB6YE7XPGZFR3QRQU9WZ,3NAPMVF0ZXIO2JQ1UAYA17RIBTH27Z,0MAN4,0MAN4,3NAPMVF0ZXIO2JQ1UAYA17RIBTH27Z,3NAPMVF0ZXIO2JQ1UAYA17RIBTH27Z,250984,250984,,,,
,,,,,,,,1,5.95455,0,28,28,12,1,A3MF31JQ350ABS,13,wolfe_image-081-a_w_outline.jpg,wolfe_image-081-b_w_outline.jpg,49,f,A3MF31JQ350ABS,2020-10-26_11h18.14.767,MetaAwareness,2020.1.2,Win32,60,3J9L0X0VDGPB6YE7XPGZFR3QRQU9WZ,3NAPMVF0ZXIO2JQ1UAYA17RIBTH27Z,0MAN4,0MAN4,3NAPMVF0ZXIO2JQ1UAYA17RIBTH27Z,3NAPMVF0ZXIO2JQ1UAYA17RIBTH27Z,250984,250984,,,,
,,,,,,,,4,4.999875,0,29,29,23,1,A3MF31JQ350ABS,24,wolfe_image-083-a_w_outline.jpg,wolfe_image-083-b_w_outline.jpg,49,f,A3MF31JQ350ABS,2020-10-26_11h18.14.767,MetaAwareness,2020.1.2,Win32,60,3J9L0X0VDGPB6YE7XPGZFR3QRQU9WZ,3NAPMVF0ZXIO2JQ1UAYA17RIBTH27Z,0MAN4,0MAN4,3NAPMVF0ZXIO2JQ1UAYA17RIBTH27Z,3NAPMVF0ZXIO2JQ1UAYA17RIBTH27Z,250984,250984,,,,
,,,,,,,,,,,,,,,A3MF31JQ350ABS,,,,49,f,A3MF31JQ350ABS,2020-10-26_11h18.14.767,MetaAwareness,2020.1.2,Win32,60,3J9L0X0VDGPB6YE7XPGZFR3QRQU9WZ,3NAPMVF0ZXIO2JQ1UAYA17RIBTH27Z,0MAN4,0MAN4,3NAPMVF0ZXIO2JQ1UAYA17RIBTH27Z,3NAPMVF0ZXIO2JQ1UAYA17RIBTH27Z,250984,250984,5,1.90712,1,6.77162
