consent_response.keys,consent_response.rt,key_resp_2.keys,key_resp_2.rt,Airplane_resp.keys,Airplane_resp.rt,Boat_resp.keys,Boat_resp.rt,user_resp.keys,user_resp.rt,trials.thisRepN,trials.thisTrialN,trials.thisN,trials.thisIndex,trials.ran,workerId,trial_num,image_a,image_b,age,gender (m/f),worker_ID,date,expName,psychopyVersion,OS,frameRate,hitId,assignmentId,a,tp_a,b,tp_b,c,tp_c,Cow_resp.keys,Cow_resp.rt,Garden_resp.keys,Garden_resp.rt
space,6.993,space,13.394,5,2.55,5,1.617,4,4.081,0,0,0,11,1,A3UN1F1EOHKKE6,12,wolfe_image-136-a_w_outline.jpg,wolfe_image-136-b_w_outline.jpg,39,m,A3UN1F1EOHKKE6,2020-10-26_17h56.31.116,MetaAwareness,2020.1.2,Win32,60,3J9L0X0VDGPB6YE7XPGZFR3QRQU9WZ,3B2X28YI3XIZMWCSUTMTWMUQAS76BB,I22B4,I22B4,3B2X28YI3XIZMWCSUTMTWMUQAS76BB,3B2X28YI3XIZMWCSUTMTWMUQAS76BB,250984,250984,,,,
,,,,,,,,3,6.369,0,1,1,27,1,A3UN1F1EOHKKE6,28,wolfe_image-134-a_w_outline.jpg,wolfe_image-134-b_w_outline.jpg,39,m,A3UN1F1EOHKKE6,2020-10-26_17h56.31.116,MetaAwareness,2020.1.2,Win32,60,3J9L0X0VDGPB6YE7XPGZFR3QRQU9WZ,3B2X28YI3XIZMWCSUTMTWMUQAS76BB,I22B4,I22B4,3B2X28YI3XIZMWCSUTMTWMUQAS76BB,3B2X28YI3XIZMWCSUTMTWMUQAS76BB,250984,250984,,,,
,,,,,,,,3,5.667,0,2,2,7,1,A3UN1F1EOHKKE6,8,wolfe_image-130-a_w_outline.jpg,wolfe_image-130-b_w_outline.jpg,39,m,A3UN1F1EOHKKE6,2020-10-26_17h56.31.116,MetaAwareness,2020.1.2,Win32,60,3J9L0X0VDGPB6YE7XPGZFR3QRQU9WZ,3B2X28YI3XIZMWCSUTMTWMUQAS76BB,I22B4,I22B4,3B2X28YI3XIZMWCSUTMTWMUQAS76BB,3B2X28YI3XIZMWCSUTMTWMUQAS76BB,250984,250984,,,,
,,,,,,,,3,4.52,0,3,3,13,1,A3UN1F1EOHKKE6,14,wolfe_image-022-a_w_outline.jpg,wolfe_image-022-b_w_outline.jpg,39,m,A3UN1F1EOHKKE6,2020-10-26_17h56.31.116,MetaAwareness,2020.1.2,Win32,60,3J9L0X0VDGPB6YE7XPGZFR3QRQU9WZ,3B2X28YI3XIZMWCSUTMTWMUQAS76BB,I22B4,I22B4,3B2X28YI3XIZMWCSUTMTWMUQAS76BB,3B2X28YI3XIZMWCSUTMTWMUQAS76BB,250984,250984,,,,
,,,,,,,,4,3.221,0,4,4,29,1,A3UN1F1EOHKKE6,30,wolfe_image-111-a_w_outline.jpg,wolfe_image-111-b_w_outline.jpg,39,m,A3UN1F1EOHKKE6,2020-10-26_17h56.31.116,MetaAwareness,2020.1.2,Win32,60,3J9L0X0VDGPB6YE7XPGZFR3QRQU9WZ,3B2X28YI3XIZMWCSUTMTWMUQAS76BB,I22B4,I22B4,3B2X28YI3XIZMWCSUTMTWMUQAS76BB,3B2X28YI3XIZMWCSUTMTWMUQAS76BB,250984,250984,,,,
,,,,,,,,2,4.184,0,5,5,18,1,A3UN1F1EOHKKE6,19,wolfe_image-131-a_w_outline.jpg,wolfe_image-131-b_w_outline.jpg,39,m,A3UN1F1EOHKKE6,2020-10-26_17h56.31.116,MetaAwareness,2020.1.2,Win32,60,3J9L0X0VDGPB6YE7XPGZFR3QRQU9WZ,3B2X28YI3XIZMWCSUTMTWMUQAS76BB,I22B4,I22B4,3B2X28YI3XIZMWCSUTMTWMUQAS76BB,3B2X28YI3XIZMWCSUTMTWMUQAS76BB,250984,250984,,,,
,,,,,,,,1,6.569,0,6,6,21,1,A3UN1F1EOHKKE6,22,wolfe_image-126-a_w_outline.jpg,wolfe_image-126-b_w_outline.jpg,39,m,A3UN1F1EOHKKE6,2020-10-26_17h56.31.116,MetaAwareness,2020.1.2,Win32,60,3J9L0X0VDGPB6YE7XPGZFR3QRQU9WZ,3B2X28YI3XIZMWCSUTMTWMUQAS76BB,I22B4,I22B4,3B2X28YI3XIZMWCSUTMTWMUQAS76BB,3B2X28YI3XIZMWCSUTMTWMUQAS76BB,250984,250984,,,,
,,,,,,,,1,9.954,0,7,7,10,1,A3UN1F1EOHKKE6,11,wolfe_image-079-a_w_outline.jpg,wolfe_image-079-b_w_outline.jpg,39,m,A3UN1F1EOHKKE6,2020-10-26_17h56.31.116,MetaAwareness,2020.1.2,Win32,60,3J9L0X0VDGPB6YE7XPGZFR3QRQU9WZ,3B2X28YI3XIZMWCSUTMTWMUQAS76BB,I22B4,I22B4,3B2X28YI3XIZMWCSUTMTWMUQAS76BB,3B2X28YI3XIZMWCSUTMTWMUQAS76BB,250984,250984,,,,
,,,,,,,,4,3.421,0,8,8,14,1,A3UN1F1EOHKKE6,15,wolfe_image-015-a_w_outline.jpg,wolfe_image-015-b_w_outline.jpg,39,m,A3UN1F1EOHKKE6,2020-10-26_17h56.31.116,MetaAwareness,2020.1.2,Win32,60,3J9L0X0VDGPB6YE7XPGZFR3QRQU9WZ,3B2X28YI3XIZMWCSUTMTWMUQAS76BB,I22B4,I22B4,3B2X28YI3XIZMWCSUTMTWMUQAS76BB,3B2X28YI3XIZMWCSUTMTWMUQAS76BB,250984,250984,,,,
,,,,,,,,4,4.601,0,9,9,3,1,A3UN1F1EOHKKE6,4,wolfe_image-120-a_w_outline.jpg,wolfe_image-120-b_w_outline.jpg,39,m,A3UN1F1EOHKKE6,2020-10-26_17h56.31.116,MetaAwareness,2020.1.2,Win32,60,3J9L0X0VDGPB6YE7XPGZFR3QRQU9WZ,3B2X28YI3XIZMWCSUTMTWMUQAS76BB,I22B4,I22B4,3B2X28YI3XIZMWCSUTMTWMUQAS76BB,3B2X28YI3XIZMWCSUTMTWMUQAS76BB,250984,250984,,,,
,,,,,,,,4,4.057,0,10,10,17,1,A3UN1F1EOHKKE6,18,wolfe_image-050-a_w_outline.jpg,wolfe_image-050-b_w_outline.jpg,39,m,A3UN1F1EOHKKE6,2020-10-26_17h56.31.116,MetaAwareness,2020.1.2,Win32,60,3J9L0X0VDGPB6YE7XPGZFR3QRQU9WZ,3B2X28YI3XIZMWCSUTMTWMUQAS76BB,I22B4,I22B4,3B2X28YI3XIZMWCSUTMTWMUQAS76BB,3B2X28YI3XIZMWCSUTMTWMUQAS76BB,250984,250984,,,,
,,,,,,,,2,3.735,0,11,11,4,1,A3UN1F1EOHKKE6,5,wolfe_image-031-a_w_outline.jpg,wolfe_image-031-b_w_outline.jpg,39,m,A3UN1F1EOHKKE6,2020-10-26_17h56.31.116,MetaAwareness,2020.1.2,Win32,60,3J9L0X0VDGPB6YE7XPGZFR3QRQU9WZ,3B2X28YI3XIZMWCSUTMTWMUQAS76BB,I22B4,I22B4,3B2X28YI3XIZMWCSUTMTWMUQAS76BB,3B2X28YI3XIZMWCSUTMTWMUQAS76BB,250984,250984,,,,
,,,,,,,,2,3.58,0,12,12,0,1,A3UN1F1EOHKKE6,1,wolfe_image-090-a_w_outline.jpg,wolfe_image-090-b_w_outline.jpg,39,m,A3UN1F1EOHKKE6,2020-10-26_17h56.31.116,MetaAwareness,2020.1.2,Win32,60,3J9L0X0VDGPB6YE7XPGZFR3QRQU9WZ,3B2X28YI3XIZMWCSUTMTWMUQAS76BB,I22B4,I22B4,3B2X28YI3XIZMWCSUTMTWMUQAS76BB,3B2X28YI3XIZMWCSUTMTWMUQAS76BB,250984,250984,,,,
,,,,,,,,1,4.041,0,13,13,1,1,A3UN1F1EOHKKE6,2,wolfe_image-108-a_w_outline.jpg,wolfe_image-108-b_w_outline.jpg,39,m,A3UN1F1EOHKKE6,2020-10-26_17h56.31.116,MetaAwareness,2020.1.2,Win32,60,3J9L0X0VDGPB6YE7XPGZFR3QRQU9WZ,3B2X28YI3XIZMWCSUTMTWMUQAS76BB,I22B4,I22B4,3B2X28YI3XIZMWCSUTMTWMUQAS76BB,3B2X28YI3XIZMWCSUTMTWMUQAS76BB,250984,250984,,,,
,,,,,,,,3,4.889,0,14,14,12,1,A3UN1F1EOHKKE6,13,wolfe_image-132-a_w_outline.jpg,wolfe_image-132-b_w_outline.jpg,39,m,A3UN1F1EOHKKE6,2020-10-26_17h56.31.116,MetaAwareness,2020.1.2,Win32,60,3J9L0X0VDGPB6YE7XPGZFR3QRQU9WZ,3B2X28YI3XIZMWCSUTMTWMUQAS76BB,I22B4,I22B4,3B2X28YI3XIZMWCSUTMTWMUQAS76BB,3B2X28YI3XIZMWCSUTMTWMUQAS76BB,250984,250984,,,,
,,,,,,,,3,3.369,0,15,15,22,1,A3UN1F1EOHKKE6,23,wolfe_image-100-a_w_outline.jpg,wolfe_image-100-b_w_outline.jpg,39,m,A3UN1F1EOHKKE6,2020-10-26_17h56.31.116,MetaAwareness,2020.1.2,Win32,60,3J9L0X0VDGPB6YE7XPGZFR3QRQU9WZ,3B2X28YI3XIZMWCSUTMTWMUQAS76BB,I22B4,I22B4,3B2X28YI3XIZMWCSUTMTWMUQAS76BB,3B2X28YI3XIZMWCSUTMTWMUQAS76BB,250984,250984,,,,
,,,,,,,,3,5.769,0,16,16,28,1,A3UN1F1EOHKKE6,29,wolfe_image-104-a_w_outline.jpg,wolfe_image-104-b_w_outline.jpg,39,m,A3UN1F1EOHKKE6,2020-10-26_17h56.31.116,MetaAwareness,2020.1.2,Win32,60,3J9L0X0VDGPB6YE7XPGZFR3QRQU9WZ,3B2X28YI3XIZMWCSUTMTWMUQAS76BB,I22B4,I22B4,3B2X28YI3XIZMWCSUTMTWMUQAS76BB,3B2X28YI3XIZMWCSUTMTWMUQAS76BB,250984,250984,,,,
,,,,,,,,2,2.955,0,17,17,23,1,A3UN1F1EOHKKE6,24,wolfe_image-119-a_w_outline.jpg,wolfe_image-119-b_w_outline.jpg,39,m,A3UN1F1EOHKKE6,2020-10-26_17h56.31.116,MetaAwareness,2020.1.2,Win32,60,3J9L0X0VDGPB6YE7XPGZFR3QRQU9WZ,3B2X28YI3XIZMWCSUTMTWMUQAS76BB,I22B4,I22B4,3B2X28YI3XIZMWCSUTMTWMUQAS76BB,3B2X28YI3XIZMWCSUTMTWMUQAS76BB,250984,250984,,,,
,,,,,,,,4,3.05,0,18,18,20,1,A3UN1F1EOHKKE6,21,wolfe_image-041-a_w_outline.jpg,wolfe_image-041-b_w_outline.jpg,39,m,A3UN1F1EOHKKE6,2020-10-26_17h56.31.116,MetaAwareness,2020.1.2,Win32,60,3J9L0X0VDGPB6YE7XPGZFR3QRQU9WZ,3B2X28YI3XIZMWCSUTMTWMUQAS76BB,I22B4,I22B4,3B2X28YI3XIZMWCSUTMTWMUQAS76BB,3B2X28YI3XIZMWCSUTMTWMUQAS76BB,250984,250984,,,,
,,,,,,,,4,5.803,0,19,19,26,1,A3UN1F1EOHKKE6,27,wolfe_image-021-a_w_outline.jpg,wolfe_image-021-b_w_outline.jpg,39,m,A3UN1F1EOHKKE6,2020-10-26_17h56.31.116,MetaAwareness,2020.1.2,Win32,60,3J9L0X0VDGPB6YE7XPGZFR3QRQU9WZ,3B2X28YI3XIZMWCSUTMTWMUQAS76BB,I22B4,I22B4,3B2X28YI3XIZMWCSUTMTWMUQAS76BB,3B2X28YI3XIZMWCSUTMTWMUQAS76BB,250984,250984,,,,
,,,,,,,,3,3.587,0,20,20,25,1,A3UN1F1EOHKKE6,26,wolfe_image-124-a_w_outline.jpg,wolfe_image-124-b_w_outline.jpg,39,m,A3UN1F1EOHKKE6,2020-10-26_17h56.31.116,MetaAwareness,2020.1.2,Win32,60,3J9L0X0VDGPB6YE7XPGZFR3QRQU9WZ,3B2X28YI3XIZMWCSUTMTWMUQAS76BB,I22B4,I22B4,3B2X28YI3XIZMWCSUTMTWMUQAS76BB,3B2X28YI3XIZMWCSUTMTWMUQAS76BB,250984,250984,,,,
,,,,,,,,4,3.607,0,21,21,9,1,A3UN1F1EOHKKE6,10,wolfe_image-109-a_w_outline.jpg,wolfe_image-109-b_w_outline.jpg,39,m,A3UN1F1EOHKKE6,2020-10-26_17h56.31.116,MetaAwareness,2020.1.2,Win32,60,3J9L0X0VDGPB6YE7XPGZFR3QRQU9WZ,3B2X28YI3XIZMWCSUTMTWMUQAS76BB,I22B4,I22B4,3B2X28YI3XIZMWCSUTMTWMUQAS76BB,3B2X28YI3XIZMWCSUTMTWMUQAS76BB,250984,250984,,,,
,,,,,,,,4,2.861,0,22,22,2,1,A3UN1F1EOHKKE6,3,wolfe_image-080-a_w_outline.jpg,wolfe_image-080-b_w_outline.jpg,39,m,A3UN1F1EOHKKE6,2020-10-26_17h56.31.116,MetaAwareness,2020.1.2,Win32,60,3J9L0X0VDGPB6YE7XPGZFR3QRQU9WZ,3B2X28YI3XIZMWCSUTMTWMUQAS76BB,I22B4,I22B4,3B2X28YI3XIZMWCSUTMTWMUQAS76BB,3B2X28YI3XIZMWCSUTMTWMUQAS76BB,250984,250984,,,,
,,,,,,,,3,12.453,0,23,23,5,1,A3UN1F1EOHKKE6,6,wolfe_image-039-a_w_outline.jpg,wolfe_image-039-b_w_outline.jpg,39,m,A3UN1F1EOHKKE6,2020-10-26_17h56.31.116,MetaAwareness,2020.1.2,Win32,60,3J9L0X0VDGPB6YE7XPGZFR3QRQU9WZ,3B2X28YI3XIZMWCSUTMTWMUQAS76BB,I22B4,I22B4,3B2X28YI3XIZMWCSUTMTWMUQAS76BB,3B2X28YI3XIZMWCSUTMTWMUQAS76BB,250984,250984,,,,
,,,,,,,,4,3.22,0,24,24,6,1,A3UN1F1EOHKKE6,7,wolfe_image-117-a_w_outline.jpg,wolfe_image-117-b_w_outline.jpg,39,m,A3UN1F1EOHKKE6,2020-10-26_17h56.31.116,MetaAwareness,2020.1.2,Win32,60,3J9L0X0VDGPB6YE7XPGZFR3QRQU9WZ,3B2X28YI3XIZMWCSUTMTWMUQAS76BB,I22B4,I22B4,3B2X28YI3XIZMWCSUTMTWMUQAS76BB,3B2X28YI3XIZMWCSUTMTWMUQAS76BB,250984,250984,,,,
,,,,,,,,4,4.531,0,25,25,8,1,A3UN1F1EOHKKE6,9,wolfe_image-110-a_w_outline.jpg,wolfe_image-110-b_w_outline.jpg,39,m,A3UN1F1EOHKKE6,2020-10-26_17h56.31.116,MetaAwareness,2020.1.2,Win32,60,3J9L0X0VDGPB6YE7XPGZFR3QRQU9WZ,3B2X28YI3XIZMWCSUTMTWMUQAS76BB,I22B4,I22B4,3B2X28YI3XIZMWCSUTMTWMUQAS76BB,3B2X28YI3XIZMWCSUTMTWMUQAS76BB,250984,250984,,,,
,,,,,,,,3,6.522,0,26,26,16,1,A3UN1F1EOHKKE6,17,wolfe_image-105-a_w_outline.jpg,wolfe_image-105-b_w_outline.jpg,39,m,A3UN1F1EOHKKE6,2020-10-26_17h56.31.116,MetaAwareness,2020.1.2,Win32,60,3J9L0X0VDGPB6YE7XPGZFR3QRQU9WZ,3B2X28YI3XIZMWCSUTMTWMUQAS76BB,I22B4,I22B4,3B2X28YI3XIZMWCSUTMTWMUQAS76BB,3B2X28YI3XIZMWCSUTMTWMUQAS76BB,250984,250984,,,,
,,,,,,,,2,3.555,0,27,27,15,1,A3UN1F1EOHKKE6,16,wolfe_image-107-a_w_outline.jpg,wolfe_image-107-b_w_outline.jpg,39,m,A3UN1F1EOHKKE6,2020-10-26_17h56.31.116,MetaAwareness,2020.1.2,Win32,60,3J9L0X0VDGPB6YE7XPGZFR3QRQU9WZ,3B2X28YI3XIZMWCSUTMTWMUQAS76BB,I22B4,I22B4,3B2X28YI3XIZMWCSUTMTWMUQAS76BB,3B2X28YI3XIZMWCSUTMTWMUQAS76BB,250984,250984,,,,
,,,,,,,,4,3.776,0,28,28,24,1,A3UN1F1EOHKKE6,25,wolfe_image-001-a_w_outline.jpg,wolfe_image-001-b_w_outline.jpg,39,m,A3UN1F1EOHKKE6,2020-10-26_17h56.31.116,MetaAwareness,2020.1.2,Win32,60,3J9L0X0VDGPB6YE7XPGZFR3QRQU9WZ,3B2X28YI3XIZMWCSUTMTWMUQAS76BB,I22B4,I22B4,3B2X28YI3XIZMWCSUTMTWMUQAS76BB,3B2X28YI3XIZMWCSUTMTWMUQAS76BB,250984,250984,,,,
,,,,,,,,2,3.418,0,29,29,19,1,A3UN1F1EOHKKE6,20,wolfe_image-016-a_w_outline.jpg,wolfe_image-016-b_w_outline.jpg,39,m,A3UN1F1EOHKKE6,2020-10-26_17h56.31.116,MetaAwareness,2020.1.2,Win32,60,3J9L0X0VDGPB6YE7XPGZFR3QRQU9WZ,3B2X28YI3XIZMWCSUTMTWMUQAS76BB,I22B4,I22B4,3B2X28YI3XIZMWCSUTMTWMUQAS76BB,3B2X28YI3XIZMWCSUTMTWMUQAS76BB,250984,250984,,,,
,,,,,,,,,,,,,,,A3UN1F1EOHKKE6,,,,39,m,A3UN1F1EOHKKE6,2020-10-26_17h56.31.116,MetaAwareness,2020.1.2,Win32,60,3J9L0X0VDGPB6YE7XPGZFR3QRQU9WZ,3B2X28YI3XIZMWCSUTMTWMUQAS76BB,I22B4,I22B4,3B2X28YI3XIZMWCSUTMTWMUQAS76BB,3B2X28YI3XIZMWCSUTMTWMUQAS76BB,250984,250984,5,2.09,2,5.731
