consent_response.keys,consent_response.rt,key_resp_2.keys,key_resp_2.rt,Airplane_resp.keys,Airplane_resp.rt,Boat_resp.keys,Boat_resp.rt,user_resp.keys,user_resp.rt,trials.thisRepN,trials.thisTrialN,trials.thisN,trials.thisIndex,trials.ran,workerId,trial_num,image_a,image_b,age,gender (m/f),worker_ID,date,expName,psychopyVersion,OS,frameRate,hitId,assignmentId,a,tp_a,b,tp_b,c,tp_c,Cow_resp.keys,Cow_resp.rt,Garden_resp.keys,Garden_resp.rt
space,3.0154,space,24.91671,5,2.027545,5,0.93177,3,6.153535,0,0,0,28,1,AETIZKQNUSBLB,29,wolfe_image-003-a_w_outline.jpg,wolfe_image-003-b_w_outline.jpg,30,m,AETIZKQNUSBLB,2020-11-14_17h48.10.132,MetaAwareness,2020.1.2,Win32,60,3SSN80MU8DRACU2OBR3A7JVDDSLXKX,3RKNTXVS3N1GOZ3M5RTI4DQ6ZCK4AM,STKR7,STKR7,3RKNTXVS3N1GOZ3M5RTI4DQ6ZCK4AM,3RKNTXVS3N1GOZ3M5RTI4DQ6ZCK4AM,257567,257567,,,,
,,,,,,,,2,4.587185,0,1,1,18,1,AETIZKQNUSBLB,19,wolfe_image-010-a_w_outline.jpg,wolfe_image-010-b_w_outline.jpg,30,m,AETIZKQNUSBLB,2020-11-14_17h48.10.132,MetaAwareness,2020.1.2,Win32,60,3SSN80MU8DRACU2OBR3A7JVDDSLXKX,3RKNTXVS3N1GOZ3M5RTI4DQ6ZCK4AM,STKR7,STKR7,3RKNTXVS3N1GOZ3M5RTI4DQ6ZCK4AM,3RKNTXVS3N1GOZ3M5RTI4DQ6ZCK4AM,257567,257567,,,,
,,,,,,,,2,5.78199,0,2,2,15,1,AETIZKQNUSBLB,16,wolfe_image-001-a_w_outline.jpg,wolfe_image-001-b_w_outline.jpg,30,m,AETIZKQNUSBLB,2020-11-14_17h48.10.132,MetaAwareness,2020.1.2,Win32,60,3SSN80MU8DRACU2OBR3A7JVDDSLXKX,3RKNTXVS3N1GOZ3M5RTI4DQ6ZCK4AM,STKR7,STKR7,3RKNTXVS3N1GOZ3M5RTI4DQ6ZCK4AM,3RKNTXVS3N1GOZ3M5RTI4DQ6ZCK4AM,257567,257567,,,,
,,,,,,,,4,2.767655,0,3,3,27,1,AETIZKQNUSBLB,28,wolfe_image-004-a_w_outline.jpg,wolfe_image-004-b_w_outline.jpg,30,m,AETIZKQNUSBLB,2020-11-14_17h48.10.132,MetaAwareness,2020.1.2,Win32,60,3SSN80MU8DRACU2OBR3A7JVDDSLXKX,3RKNTXVS3N1GOZ3M5RTI4DQ6ZCK4AM,STKR7,STKR7,3RKNTXVS3N1GOZ3M5RTI4DQ6ZCK4AM,3RKNTXVS3N1GOZ3M5RTI4DQ6ZCK4AM,257567,257567,,,,
,,,,,,,,3,10.85401,0,4,4,21,1,AETIZKQNUSBLB,22,wolfe_image-020-a_w_outline.jpg,wolfe_image-020-b_w_outline.jpg,30,m,AETIZKQNUSBLB,2020-11-14_17h48.10.132,MetaAwareness,2020.1.2,Win32,60,3SSN80MU8DRACU2OBR3A7JVDDSLXKX,3RKNTXVS3N1GOZ3M5RTI4DQ6ZCK4AM,STKR7,STKR7,3RKNTXVS3N1GOZ3M5RTI4DQ6ZCK4AM,3RKNTXVS3N1GOZ3M5RTI4DQ6ZCK4AM,257567,257567,,,,
,,,,,,,,5,3.278115,0,5,5,8,1,AETIZKQNUSBLB,9,wolfe_image-025-a_w_outline.jpg,wolfe_image-025-b_w_outline.jpg,30,m,AETIZKQNUSBLB,2020-11-14_17h48.10.132,MetaAwareness,2020.1.2,Win32,60,3SSN80MU8DRACU2OBR3A7JVDDSLXKX,3RKNTXVS3N1GOZ3M5RTI4DQ6ZCK4AM,STKR7,STKR7,3RKNTXVS3N1GOZ3M5RTI4DQ6ZCK4AM,3RKNTXVS3N1GOZ3M5RTI4DQ6ZCK4AM,257567,257567,,,,
,,,,,,,,4,3.8614,0,6,6,2,1,AETIZKQNUSBLB,3,wolfe_image-002-a_w_outline.jpg,wolfe_image-002-b_w_outline.jpg,30,m,AETIZKQNUSBLB,2020-11-14_17h48.10.132,MetaAwareness,2020.1.2,Win32,60,3SSN80MU8DRACU2OBR3A7JVDDSLXKX,3RKNTXVS3N1GOZ3M5RTI4DQ6ZCK4AM,STKR7,STKR7,3RKNTXVS3N1GOZ3M5RTI4DQ6ZCK4AM,3RKNTXVS3N1GOZ3M5RTI4DQ6ZCK4AM,257567,257567,,,,
,,,,,,,,5,2.750415,0,7,7,16,1,AETIZKQNUSBLB,17,wolfe_image-018-a_w_outline.jpg,wolfe_image-018-b_w_outline.jpg,30,m,AETIZKQNUSBLB,2020-11-14_17h48.10.132,MetaAwareness,2020.1.2,Win32,60,3SSN80MU8DRACU2OBR3A7JVDDSLXKX,3RKNTXVS3N1GOZ3M5RTI4DQ6ZCK4AM,STKR7,STKR7,3RKNTXVS3N1GOZ3M5RTI4DQ6ZCK4AM,3RKNTXVS3N1GOZ3M5RTI4DQ6ZCK4AM,257567,257567,,,,
,,,,,,,,2,4.75717,0,8,8,13,1,AETIZKQNUSBLB,14,wolfe_image-030-a_w_outline.jpg,wolfe_image-030-b_w_outline.jpg,30,m,AETIZKQNUSBLB,2020-11-14_17h48.10.132,MetaAwareness,2020.1.2,Win32,60,3SSN80MU8DRACU2OBR3A7JVDDSLXKX,3RKNTXVS3N1GOZ3M5RTI4DQ6ZCK4AM,STKR7,STKR7,3RKNTXVS3N1GOZ3M5RTI4DQ6ZCK4AM,3RKNTXVS3N1GOZ3M5RTI4DQ6ZCK4AM,257567,257567,,,,
,,,,,,,,5,2.951695,0,9,9,24,1,AETIZKQNUSBLB,25,wolfe_image-012-a_w_outline.jpg,wolfe_image-012-b_w_outline.jpg,30,m,AETIZKQNUSBLB,2020-11-14_17h48.10.132,MetaAwareness,2020.1.2,Win32,60,3SSN80MU8DRACU2OBR3A7JVDDSLXKX,3RKNTXVS3N1GOZ3M5RTI4DQ6ZCK4AM,STKR7,STKR7,3RKNTXVS3N1GOZ3M5RTI4DQ6ZCK4AM,3RKNTXVS3N1GOZ3M5RTI4DQ6ZCK4AM,257567,257567,,,,
,,,,,,,,5,4.8336,0,10,10,4,1,AETIZKQNUSBLB,5,wolfe_image-029-a_w_outline.jpg,wolfe_image-029-b_w_outline.jpg,30,m,AETIZKQNUSBLB,2020-11-14_17h48.10.132,MetaAwareness,2020.1.2,Win32,60,3SSN80MU8DRACU2OBR3A7JVDDSLXKX,3RKNTXVS3N1GOZ3M5RTI4DQ6ZCK4AM,STKR7,STKR7,3RKNTXVS3N1GOZ3M5RTI4DQ6ZCK4AM,3RKNTXVS3N1GOZ3M5RTI4DQ6ZCK4AM,257567,257567,,,,
,,,,,,,,4,4.264135,0,11,11,5,1,AETIZKQNUSBLB,6,wolfe_image-023-a_w_outline.jpg,wolfe_image-023-b_w_outline.jpg,30,m,AETIZKQNUSBLB,2020-11-14_17h48.10.132,MetaAwareness,2020.1.2,Win32,60,3SSN80MU8DRACU2OBR3A7JVDDSLXKX,3RKNTXVS3N1GOZ3M5RTI4DQ6ZCK4AM,STKR7,STKR7,3RKNTXVS3N1GOZ3M5RTI4DQ6ZCK4AM,3RKNTXVS3N1GOZ3M5RTI4DQ6ZCK4AM,257567,257567,,,,
,,,,,,,,2,3.528125,0,12,12,23,1,AETIZKQNUSBLB,24,wolfe_image-024-a_w_outline.jpg,wolfe_image-024-b_w_outline.jpg,30,m,AETIZKQNUSBLB,2020-11-14_17h48.10.132,MetaAwareness,2020.1.2,Win32,60,3SSN80MU8DRACU2OBR3A7JVDDSLXKX,3RKNTXVS3N1GOZ3M5RTI4DQ6ZCK4AM,STKR7,STKR7,3RKNTXVS3N1GOZ3M5RTI4DQ6ZCK4AM,3RKNTXVS3N1GOZ3M5RTI4DQ6ZCK4AM,257567,257567,,,,
,,,,,,,,1,3.38917,0,13,13,11,1,AETIZKQNUSBLB,12,wolfe_image-026-a_w_outline.jpg,wolfe_image-026-b_w_outline.jpg,30,m,AETIZKQNUSBLB,2020-11-14_17h48.10.132,MetaAwareness,2020.1.2,Win32,60,3SSN80MU8DRACU2OBR3A7JVDDSLXKX,3RKNTXVS3N1GOZ3M5RTI4DQ6ZCK4AM,STKR7,STKR7,3RKNTXVS3N1GOZ3M5RTI4DQ6ZCK4AM,3RKNTXVS3N1GOZ3M5RTI4DQ6ZCK4AM,257567,257567,,,,
,,,,,,,,1,3.340525,0,14,14,19,1,AETIZKQNUSBLB,20,wolfe_image-027-a_w_outline.jpg,wolfe_image-027-b_w_outline.jpg,30,m,AETIZKQNUSBLB,2020-11-14_17h48.10.132,MetaAwareness,2020.1.2,Win32,60,3SSN80MU8DRACU2OBR3A7JVDDSLXKX,3RKNTXVS3N1GOZ3M5RTI4DQ6ZCK4AM,STKR7,STKR7,3RKNTXVS3N1GOZ3M5RTI4DQ6ZCK4AM,3RKNTXVS3N1GOZ3M5RTI4DQ6ZCK4AM,257567,257567,,,,
,,,,,,,,5,3.236395,0,15,15,29,1,AETIZKQNUSBLB,30,wolfe_image-008-a_w_outline.jpg,wolfe_image-008-b_w_outline.jpg,30,m,AETIZKQNUSBLB,2020-11-14_17h48.10.132,MetaAwareness,2020.1.2,Win32,60,3SSN80MU8DRACU2OBR3A7JVDDSLXKX,3RKNTXVS3N1GOZ3M5RTI4DQ6ZCK4AM,STKR7,STKR7,3RKNTXVS3N1GOZ3M5RTI4DQ6ZCK4AM,3RKNTXVS3N1GOZ3M5RTI4DQ6ZCK4AM,257567,257567,,,,
,,,,,,,,2,3.514275,0,16,16,10,1,AETIZKQNUSBLB,11,wolfe_image-022-a_w_outline.jpg,wolfe_image-022-b_w_outline.jpg,30,m,AETIZKQNUSBLB,2020-11-14_17h48.10.132,MetaAwareness,2020.1.2,Win32,60,3SSN80MU8DRACU2OBR3A7JVDDSLXKX,3RKNTXVS3N1GOZ3M5RTI4DQ6ZCK4AM,STKR7,STKR7,3RKNTXVS3N1GOZ3M5RTI4DQ6ZCK4AM,3RKNTXVS3N1GOZ3M5RTI4DQ6ZCK4AM,257567,257567,,,,
,,,,,,,,1,2.576685,0,17,17,26,1,AETIZKQNUSBLB,27,wolfe_image-017-a_w_outline.jpg,wolfe_image-017-b_w_outline.jpg,30,m,AETIZKQNUSBLB,2020-11-14_17h48.10.132,MetaAwareness,2020.1.2,Win32,60,3SSN80MU8DRACU2OBR3A7JVDDSLXKX,3RKNTXVS3N1GOZ3M5RTI4DQ6ZCK4AM,STKR7,STKR7,3RKNTXVS3N1GOZ3M5RTI4DQ6ZCK4AM,3RKNTXVS3N1GOZ3M5RTI4DQ6ZCK4AM,257567,257567,,,,
,,,,,,,,3,5.243325,0,18,18,1,1,AETIZKQNUSBLB,2,wolfe_image-013-a_w_outline.jpg,wolfe_image-013-b_w_outline.jpg,30,m,AETIZKQNUSBLB,2020-11-14_17h48.10.132,MetaAwareness,2020.1.2,Win32,60,3SSN80MU8DRACU2OBR3A7JVDDSLXKX,3RKNTXVS3N1GOZ3M5RTI4DQ6ZCK4AM,STKR7,STKR7,3RKNTXVS3N1GOZ3M5RTI4DQ6ZCK4AM,3RKNTXVS3N1GOZ3M5RTI4DQ6ZCK4AM,257567,257567,,,,
,,,,,,,,4,5.264075,0,19,19,3,1,AETIZKQNUSBLB,4,wolfe_image-009-a_w_outline.jpg,wolfe_image-009-b_w_outline.jpg,30,m,AETIZKQNUSBLB,2020-11-14_17h48.10.132,MetaAwareness,2020.1.2,Win32,60,3SSN80MU8DRACU2OBR3A7JVDDSLXKX,3RKNTXVS3N1GOZ3M5RTI4DQ6ZCK4AM,STKR7,STKR7,3RKNTXVS3N1GOZ3M5RTI4DQ6ZCK4AM,3RKNTXVS3N1GOZ3M5RTI4DQ6ZCK4AM,257567,257567,,,,
,,,,,,,,4,4.389155,0,20,20,22,1,AETIZKQNUSBLB,23,wolfe_image-011-a_w_outline.jpg,wolfe_image-011-b_w_outline.jpg,30,m,AETIZKQNUSBLB,2020-11-14_17h48.10.132,MetaAwareness,2020.1.2,Win32,60,3SSN80MU8DRACU2OBR3A7JVDDSLXKX,3RKNTXVS3N1GOZ3M5RTI4DQ6ZCK4AM,STKR7,STKR7,3RKNTXVS3N1GOZ3M5RTI4DQ6ZCK4AM,3RKNTXVS3N1GOZ3M5RTI4DQ6ZCK4AM,257567,257567,,,,
,,,,,,,,4,4.521295,0,21,21,25,1,AETIZKQNUSBLB,26,wolfe_image-006-a_w_outline.jpg,wolfe_image-006-b_w_outline.jpg,30,m,AETIZKQNUSBLB,2020-11-14_17h48.10.132,MetaAwareness,2020.1.2,Win32,60,3SSN80MU8DRACU2OBR3A7JVDDSLXKX,3RKNTXVS3N1GOZ3M5RTI4DQ6ZCK4AM,STKR7,STKR7,3RKNTXVS3N1GOZ3M5RTI4DQ6ZCK4AM,3RKNTXVS3N1GOZ3M5RTI4DQ6ZCK4AM,257567,257567,,,,
,,,,,,,,5,2.47252,0,22,22,7,1,AETIZKQNUSBLB,8,wolfe_image-019-a_w_outline.jpg,wolfe_image-019-b_w_outline.jpg,30,m,AETIZKQNUSBLB,2020-11-14_17h48.10.132,MetaAwareness,2020.1.2,Win32,60,3SSN80MU8DRACU2OBR3A7JVDDSLXKX,3RKNTXVS3N1GOZ3M5RTI4DQ6ZCK4AM,STKR7,STKR7,3RKNTXVS3N1GOZ3M5RTI4DQ6ZCK4AM,3RKNTXVS3N1GOZ3M5RTI4DQ6ZCK4AM,257567,257567,,,,
,,,,,,,,3,5.72258,0,23,23,14,1,AETIZKQNUSBLB,15,wolfe_image-028-a_w_outline.jpg,wolfe_image-028-b_w_outline.jpg,30,m,AETIZKQNUSBLB,2020-11-14_17h48.10.132,MetaAwareness,2020.1.2,Win32,60,3SSN80MU8DRACU2OBR3A7JVDDSLXKX,3RKNTXVS3N1GOZ3M5RTI4DQ6ZCK4AM,STKR7,STKR7,3RKNTXVS3N1GOZ3M5RTI4DQ6ZCK4AM,3RKNTXVS3N1GOZ3M5RTI4DQ6ZCK4AM,257567,257567,,,,
,,,,,,,,3,6.500295,0,24,24,17,1,AETIZKQNUSBLB,18,wolfe_image-005-a_w_outline.jpg,wolfe_image-005-b_w_outline.jpg,30,m,AETIZKQNUSBLB,2020-11-14_17h48.10.132,MetaAwareness,2020.1.2,Win32,60,3SSN80MU8DRACU2OBR3A7JVDDSLXKX,3RKNTXVS3N1GOZ3M5RTI4DQ6ZCK4AM,STKR7,STKR7,3RKNTXVS3N1GOZ3M5RTI4DQ6ZCK4AM,3RKNTXVS3N1GOZ3M5RTI4DQ6ZCK4AM,257567,257567,,,,
,,,,,,,,5,4.56279,0,25,25,12,1,AETIZKQNUSBLB,13,wolfe_image-015-a_w_outline.jpg,wolfe_image-015-b_w_outline.jpg,30,m,AETIZKQNUSBLB,2020-11-14_17h48.10.132,MetaAwareness,2020.1.2,Win32,60,3SSN80MU8DRACU2OBR3A7JVDDSLXKX,3RKNTXVS3N1GOZ3M5RTI4DQ6ZCK4AM,STKR7,STKR7,3RKNTXVS3N1GOZ3M5RTI4DQ6ZCK4AM,3RKNTXVS3N1GOZ3M5RTI4DQ6ZCK4AM,257567,257567,,,,
,,,,,,,,4,5.80594,0,26,26,6,1,AETIZKQNUSBLB,7,wolfe_image-007-a_w_outline.jpg,wolfe_image-007-b_w_outline.jpg,30,m,AETIZKQNUSBLB,2020-11-14_17h48.10.132,MetaAwareness,2020.1.2,Win32,60,3SSN80MU8DRACU2OBR3A7JVDDSLXKX,3RKNTXVS3N1GOZ3M5RTI4DQ6ZCK4AM,STKR7,STKR7,3RKNTXVS3N1GOZ3M5RTI4DQ6ZCK4AM,3RKNTXVS3N1GOZ3M5RTI4DQ6ZCK4AM,257567,257567,,,,
,,,,,,,,1,2.50022,0,27,27,9,1,AETIZKQNUSBLB,10,wolfe_image-016-a_w_outline.jpg,wolfe_image-016-b_w_outline.jpg,30,m,AETIZKQNUSBLB,2020-11-14_17h48.10.132,MetaAwareness,2020.1.2,Win32,60,3SSN80MU8DRACU2OBR3A7JVDDSLXKX,3RKNTXVS3N1GOZ3M5RTI4DQ6ZCK4AM,STKR7,STKR7,3RKNTXVS3N1GOZ3M5RTI4DQ6ZCK4AM,3RKNTXVS3N1GOZ3M5RTI4DQ6ZCK4AM,257567,257567,,,,
,,,,,,,,2,3.32667,0,28,28,0,1,AETIZKQNUSBLB,1,wolfe_image-021-a_w_outline.jpg,wolfe_image-021-b_w_outline.jpg,30,m,AETIZKQNUSBLB,2020-11-14_17h48.10.132,MetaAwareness,2020.1.2,Win32,60,3SSN80MU8DRACU2OBR3A7JVDDSLXKX,3RKNTXVS3N1GOZ3M5RTI4DQ6ZCK4AM,STKR7,STKR7,3RKNTXVS3N1GOZ3M5RTI4DQ6ZCK4AM,3RKNTXVS3N1GOZ3M5RTI4DQ6ZCK4AM,257567,257567,,,,
,,,,,,,,4,3.29891,0,29,29,20,1,AETIZKQNUSBLB,21,wolfe_image-014-a_w_outline.jpg,wolfe_image-014-b_w_outline.jpg,30,m,AETIZKQNUSBLB,2020-11-14_17h48.10.132,MetaAwareness,2020.1.2,Win32,60,3SSN80MU8DRACU2OBR3A7JVDDSLXKX,3RKNTXVS3N1GOZ3M5RTI4DQ6ZCK4AM,STKR7,STKR7,3RKNTXVS3N1GOZ3M5RTI4DQ6ZCK4AM,3RKNTXVS3N1GOZ3M5RTI4DQ6ZCK4AM,257567,257567,,,,
,,,,,,,,,,,,,,,AETIZKQNUSBLB,,,,30,m,AETIZKQNUSBLB,2020-11-14_17h48.10.132,MetaAwareness,2020.1.2,Win32,60,3SSN80MU8DRACU2OBR3A7JVDDSLXKX,3RKNTXVS3N1GOZ3M5RTI4DQ6ZCK4AM,STKR7,STKR7,3RKNTXVS3N1GOZ3M5RTI4DQ6ZCK4AM,3RKNTXVS3N1GOZ3M5RTI4DQ6ZCK4AM,257567,257567,5,0.90194,1,5.81459
