consent_response.keys,consent_response.rt,key_resp_2.keys,key_resp_2.rt,Airplane_resp.keys,Airplane_resp.rt,Boat_resp.keys,Boat_resp.rt,user_resp.keys,user_resp.rt,trials.thisRepN,trials.thisTrialN,trials.thisN,trials.thisIndex,trials.ran,workerId,trial_num,image_a,image_b,age,gender (m/f),worker_ID,date,expName,psychopyVersion,OS,frameRate,hitId,assignmentId,a,tp_a,b,tp_b,c,tp_c,Cow_resp.keys,Cow_resp.rt
space,9.511425,space,37.25568,5,4.48443,5,3.12178,4,6.919855,0,0,0,4,1,AYW62R027PUT1,6,wolfe_image-028-a_w_outline.jpg,wolfe_image-028-b_w_outline.jpg,45,m,AYW62R027PUT1,2020-10-13_18h06.05.023,MetaAwareness,2020.1.2,Win32,60,3J9L0X0VDGPB6YE7XPGZFR3QRQU9WZ,3ZV9H2YQQEASDGNL6IKRCXVR8DG3WV,QHVZ4,QHVZ4,3ZV9H2YQQEASDGNL6IKRCXVR8DG3WV,3ZV9H2YQQEASDGNL6IKRCXVR8DG3WV,250984,250984,,
,,,,,,,,2,10.6768,0,1,1,9,1,AYW62R027PUT1,11,wolfe_image-079-a_w_outline.jpg,wolfe_image-079-b_w_outline.jpg,45,m,AYW62R027PUT1,2020-10-13_18h06.05.023,MetaAwareness,2020.1.2,Win32,60,3J9L0X0VDGPB6YE7XPGZFR3QRQU9WZ,3ZV9H2YQQEASDGNL6IKRCXVR8DG3WV,QHVZ4,QHVZ4,3ZV9H2YQQEASDGNL6IKRCXVR8DG3WV,3ZV9H2YQQEASDGNL6IKRCXVR8DG3WV,250984,250984,,
,,,,,,,,3,7.26337,0,2,2,13,1,AYW62R027PUT1,16,wolfe_image-013-a_w_outline.jpg,wolfe_image-013-b_w_outline.jpg,45,m,AYW62R027PUT1,2020-10-13_18h06.05.023,MetaAwareness,2020.1.2,Win32,60,3J9L0X0VDGPB6YE7XPGZFR3QRQU9WZ,3ZV9H2YQQEASDGNL6IKRCXVR8DG3WV,QHVZ4,QHVZ4,3ZV9H2YQQEASDGNL6IKRCXVR8DG3WV,3ZV9H2YQQEASDGNL6IKRCXVR8DG3WV,250984,250984,,
,,,,,,,,3,7.82868,0,3,3,22,1,AYW62R027PUT1,24,wolfe_image-020-a_w_outline.jpg,wolfe_image-020-b_w_outline.jpg,45,m,AYW62R027PUT1,2020-10-13_18h06.05.023,MetaAwareness,2020.1.2,Win32,60,3J9L0X0VDGPB6YE7XPGZFR3QRQU9WZ,3ZV9H2YQQEASDGNL6IKRCXVR8DG3WV,QHVZ4,QHVZ4,3ZV9H2YQQEASDGNL6IKRCXVR8DG3WV,3ZV9H2YQQEASDGNL6IKRCXVR8DG3WV,250984,250984,,
,,,,,,,,2,6.63579,0,4,4,14,1,AYW62R027PUT1,17,wolfe_image-126-a_w_outline.jpg,wolfe_image-126-b_w_outline.jpg,45,m,AYW62R027PUT1,2020-10-13_18h06.05.023,MetaAwareness,2020.1.2,Win32,60,3J9L0X0VDGPB6YE7XPGZFR3QRQU9WZ,3ZV9H2YQQEASDGNL6IKRCXVR8DG3WV,QHVZ4,QHVZ4,3ZV9H2YQQEASDGNL6IKRCXVR8DG3WV,3ZV9H2YQQEASDGNL6IKRCXVR8DG3WV,250984,250984,,
,,,,,,,,4,7.84779,0,5,5,12,1,AYW62R027PUT1,15,wolfe_image-025-a_w_outline.jpg,wolfe_image-025-b_w_outline.jpg,45,m,AYW62R027PUT1,2020-10-13_18h06.05.023,MetaAwareness,2020.1.2,Win32,60,3J9L0X0VDGPB6YE7XPGZFR3QRQU9WZ,3ZV9H2YQQEASDGNL6IKRCXVR8DG3WV,QHVZ4,QHVZ4,3ZV9H2YQQEASDGNL6IKRCXVR8DG3WV,3ZV9H2YQQEASDGNL6IKRCXVR8DG3WV,250984,250984,,
,,,,,,,,2,7.80303,0,6,6,6,1,AYW62R027PUT1,8,wolfe_image-017-a_w_outline.jpg,wolfe_image-017-b_w_outline.jpg,45,m,AYW62R027PUT1,2020-10-13_18h06.05.023,MetaAwareness,2020.1.2,Win32,60,3J9L0X0VDGPB6YE7XPGZFR3QRQU9WZ,3ZV9H2YQQEASDGNL6IKRCXVR8DG3WV,QHVZ4,QHVZ4,3ZV9H2YQQEASDGNL6IKRCXVR8DG3WV,3ZV9H2YQQEASDGNL6IKRCXVR8DG3WV,250984,250984,,
,,,,,,,,3,8.382525,0,7,7,28,1,AYW62R027PUT1,30,wolfe_image-081-a_w_outline.jpg,wolfe_image-081-b_w_outline.jpg,45,m,AYW62R027PUT1,2020-10-13_18h06.05.023,MetaAwareness,2020.1.2,Win32,60,3J9L0X0VDGPB6YE7XPGZFR3QRQU9WZ,3ZV9H2YQQEASDGNL6IKRCXVR8DG3WV,QHVZ4,QHVZ4,3ZV9H2YQQEASDGNL6IKRCXVR8DG3WV,3ZV9H2YQQEASDGNL6IKRCXVR8DG3WV,250984,250984,,
,,,,,,,,3,5.823685,0,8,8,23,1,AYW62R027PUT1,25,wolfe_image-082-a_w_outline.jpg,wolfe_image-082-b_w_outline.jpg,45,m,AYW62R027PUT1,2020-10-13_18h06.05.023,MetaAwareness,2020.1.2,Win32,60,3J9L0X0VDGPB6YE7XPGZFR3QRQU9WZ,3ZV9H2YQQEASDGNL6IKRCXVR8DG3WV,QHVZ4,QHVZ4,3ZV9H2YQQEASDGNL6IKRCXVR8DG3WV,3ZV9H2YQQEASDGNL6IKRCXVR8DG3WV,250984,250984,,
,,,,,,,,3,7.004105,0,9,9,18,1,AYW62R027PUT1,20,wolfe_image-101-a_w_outline.jpg,wolfe_image-101-b_w_outline.jpg,45,m,AYW62R027PUT1,2020-10-13_18h06.05.023,MetaAwareness,2020.1.2,Win32,60,3J9L0X0VDGPB6YE7XPGZFR3QRQU9WZ,3ZV9H2YQQEASDGNL6IKRCXVR8DG3WV,QHVZ4,QHVZ4,3ZV9H2YQQEASDGNL6IKRCXVR8DG3WV,3ZV9H2YQQEASDGNL6IKRCXVR8DG3WV,250984,250984,,
,,,,,,,,3,5.9672,0,10,10,24,1,AYW62R027PUT1,26,wolfe_image-122-a_w_outline.jpg,wolfe_image-122-b_w_outline.jpg,45,m,AYW62R027PUT1,2020-10-13_18h06.05.023,MetaAwareness,2020.1.2,Win32,60,3J9L0X0VDGPB6YE7XPGZFR3QRQU9WZ,3ZV9H2YQQEASDGNL6IKRCXVR8DG3WV,QHVZ4,QHVZ4,3ZV9H2YQQEASDGNL6IKRCXVR8DG3WV,3ZV9H2YQQEASDGNL6IKRCXVR8DG3WV,250984,250984,,
,,,,,,,,5,5.676435,0,11,11,0,1,AYW62R027PUT1,1,wolfe_image-033-a_w_outline.jpg,wolfe_image-033-b_w_outline.jpg,45,m,AYW62R027PUT1,2020-10-13_18h06.05.023,MetaAwareness,2020.1.2,Win32,60,3J9L0X0VDGPB6YE7XPGZFR3QRQU9WZ,3ZV9H2YQQEASDGNL6IKRCXVR8DG3WV,QHVZ4,QHVZ4,3ZV9H2YQQEASDGNL6IKRCXVR8DG3WV,3ZV9H2YQQEASDGNL6IKRCXVR8DG3WV,250984,250984,,
,,,,,,,,1,6.860815,0,12,12,3,1,AYW62R027PUT1,5,wolfe_image-016-a_w_outline.jpg,wolfe_image-016-b_w_outline.jpg,45,m,AYW62R027PUT1,2020-10-13_18h06.05.023,MetaAwareness,2020.1.2,Win32,60,3J9L0X0VDGPB6YE7XPGZFR3QRQU9WZ,3ZV9H2YQQEASDGNL6IKRCXVR8DG3WV,QHVZ4,QHVZ4,3ZV9H2YQQEASDGNL6IKRCXVR8DG3WV,3ZV9H2YQQEASDGNL6IKRCXVR8DG3WV,250984,250984,,
,,,,,,,,3,7.18867,0,13,13,11,1,AYW62R027PUT1,14,wolfe_image-039-a_w_outline.jpg,wolfe_image-039-b_w_outline.jpg,45,m,AYW62R027PUT1,2020-10-13_18h06.05.023,MetaAwareness,2020.1.2,Win32,60,3J9L0X0VDGPB6YE7XPGZFR3QRQU9WZ,3ZV9H2YQQEASDGNL6IKRCXVR8DG3WV,QHVZ4,QHVZ4,3ZV9H2YQQEASDGNL6IKRCXVR8DG3WV,3ZV9H2YQQEASDGNL6IKRCXVR8DG3WV,250984,250984,,
,,,,,,,,4,4.969055,0,14,14,19,1,AYW62R027PUT1,21,wolfe_image-088-a_w_outline.jpg,wolfe_image-088-b_w_outline.jpg,45,m,AYW62R027PUT1,2020-10-13_18h06.05.023,MetaAwareness,2020.1.2,Win32,60,3J9L0X0VDGPB6YE7XPGZFR3QRQU9WZ,3ZV9H2YQQEASDGNL6IKRCXVR8DG3WV,QHVZ4,QHVZ4,3ZV9H2YQQEASDGNL6IKRCXVR8DG3WV,3ZV9H2YQQEASDGNL6IKRCXVR8DG3WV,250984,250984,,
,,,,,,,,2,5.803275,0,15,15,2,1,AYW62R027PUT1,4,wolfe_image-027-a_w_outline.jpg,wolfe_image-027-b_w_outline.jpg,45,m,AYW62R027PUT1,2020-10-13_18h06.05.023,MetaAwareness,2020.1.2,Win32,60,3J9L0X0VDGPB6YE7XPGZFR3QRQU9WZ,3ZV9H2YQQEASDGNL6IKRCXVR8DG3WV,QHVZ4,QHVZ4,3ZV9H2YQQEASDGNL6IKRCXVR8DG3WV,3ZV9H2YQQEASDGNL6IKRCXVR8DG3WV,250984,250984,,
,,,,,,,,3,4.196095,0,16,16,15,1,AYW62R027PUT1,18,wolfe_image-119-a_w_outline.jpg,wolfe_image-119-b_w_outline.jpg,45,m,AYW62R027PUT1,2020-10-13_18h06.05.023,MetaAwareness,2020.1.2,Win32,60,3J9L0X0VDGPB6YE7XPGZFR3QRQU9WZ,3ZV9H2YQQEASDGNL6IKRCXVR8DG3WV,QHVZ4,QHVZ4,3ZV9H2YQQEASDGNL6IKRCXVR8DG3WV,3ZV9H2YQQEASDGNL6IKRCXVR8DG3WV,250984,250984,,
,,,,,,,,4,5.24992,0,17,17,20,1,AYW62R027PUT1,22,wolfe_image-006-a_w_outline.jpg,wolfe_image-006-b_w_outline.jpg,45,m,AYW62R027PUT1,2020-10-13_18h06.05.023,MetaAwareness,2020.1.2,Win32,60,3J9L0X0VDGPB6YE7XPGZFR3QRQU9WZ,3ZV9H2YQQEASDGNL6IKRCXVR8DG3WV,QHVZ4,QHVZ4,3ZV9H2YQQEASDGNL6IKRCXVR8DG3WV,3ZV9H2YQQEASDGNL6IKRCXVR8DG3WV,250984,250984,,
,,,,,,,,4,6.87481,0,18,18,25,1,AYW62R027PUT1,27,wolfe_image-038-a_w_outline.jpg,wolfe_image-038-b_w_outline.jpg,45,m,AYW62R027PUT1,2020-10-13_18h06.05.023,MetaAwareness,2020.1.2,Win32,60,3J9L0X0VDGPB6YE7XPGZFR3QRQU9WZ,3ZV9H2YQQEASDGNL6IKRCXVR8DG3WV,QHVZ4,QHVZ4,3ZV9H2YQQEASDGNL6IKRCXVR8DG3WV,3ZV9H2YQQEASDGNL6IKRCXVR8DG3WV,250984,250984,,
,,,,,,,,2,8.773085,0,19,19,10,1,AYW62R027PUT1,13,wolfe_image-086-a_w_outline.jpg,wolfe_image-086-b_w_outline.jpg,45,m,AYW62R027PUT1,2020-10-13_18h06.05.023,MetaAwareness,2020.1.2,Win32,60,3J9L0X0VDGPB6YE7XPGZFR3QRQU9WZ,3ZV9H2YQQEASDGNL6IKRCXVR8DG3WV,QHVZ4,QHVZ4,3ZV9H2YQQEASDGNL6IKRCXVR8DG3WV,3ZV9H2YQQEASDGNL6IKRCXVR8DG3WV,250984,250984,,
,,,,,,,,4,4.850345,0,20,20,7,1,AYW62R027PUT1,9,wolfe_image-045-a_w_outline.jpg,wolfe_image-045-b_w_outline.jpg,45,m,AYW62R027PUT1,2020-10-13_18h06.05.023,MetaAwareness,2020.1.2,Win32,60,3J9L0X0VDGPB6YE7XPGZFR3QRQU9WZ,3ZV9H2YQQEASDGNL6IKRCXVR8DG3WV,QHVZ4,QHVZ4,3ZV9H2YQQEASDGNL6IKRCXVR8DG3WV,3ZV9H2YQQEASDGNL6IKRCXVR8DG3WV,250984,250984,,
,,,,,,,,4,5.31711,0,21,21,1,1,AYW62R027PUT1,3,wolfe_image-046-a_w_outline.jpg,wolfe_image-046-b_w_outline.jpg,45,m,AYW62R027PUT1,2020-10-13_18h06.05.023,MetaAwareness,2020.1.2,Win32,60,3J9L0X0VDGPB6YE7XPGZFR3QRQU9WZ,3ZV9H2YQQEASDGNL6IKRCXVR8DG3WV,QHVZ4,QHVZ4,3ZV9H2YQQEASDGNL6IKRCXVR8DG3WV,3ZV9H2YQQEASDGNL6IKRCXVR8DG3WV,250984,250984,,
,,,,,,,,3,5.35269,0,22,22,27,1,AYW62R027PUT1,29,wolfe_image-118-a_w_outline.jpg,wolfe_image-118-b_w_outline.jpg,45,m,AYW62R027PUT1,2020-10-13_18h06.05.023,MetaAwareness,2020.1.2,Win32,60,3J9L0X0VDGPB6YE7XPGZFR3QRQU9WZ,3ZV9H2YQQEASDGNL6IKRCXVR8DG3WV,QHVZ4,QHVZ4,3ZV9H2YQQEASDGNL6IKRCXVR8DG3WV,3ZV9H2YQQEASDGNL6IKRCXVR8DG3WV,250984,250984,,
,,,,,,,,5,6.377425,0,23,23,8,1,AYW62R027PUT1,10,wolfe_image-077-a_w_outline.jpg,wolfe_image-077-b_w_outline.jpg,45,m,AYW62R027PUT1,2020-10-13_18h06.05.023,MetaAwareness,2020.1.2,Win32,60,3J9L0X0VDGPB6YE7XPGZFR3QRQU9WZ,3ZV9H2YQQEASDGNL6IKRCXVR8DG3WV,QHVZ4,QHVZ4,3ZV9H2YQQEASDGNL6IKRCXVR8DG3WV,3ZV9H2YQQEASDGNL6IKRCXVR8DG3WV,250984,250984,,
,,,,,,,,5,3.390095,0,24,24,5,1,AYW62R027PUT1,7,wolfe_image-004-a_w_outline.jpg,wolfe_image-004-b_w_outline.jpg,45,m,AYW62R027PUT1,2020-10-13_18h06.05.023,MetaAwareness,2020.1.2,Win32,60,3J9L0X0VDGPB6YE7XPGZFR3QRQU9WZ,3ZV9H2YQQEASDGNL6IKRCXVR8DG3WV,QHVZ4,QHVZ4,3ZV9H2YQQEASDGNL6IKRCXVR8DG3WV,3ZV9H2YQQEASDGNL6IKRCXVR8DG3WV,250984,250984,,
,,,,,,,,4,4.77766,0,25,25,26,1,AYW62R027PUT1,28,wolfe_image-125-a_w_outline.jpg,wolfe_image-125-b_w_outline.jpg,45,m,AYW62R027PUT1,2020-10-13_18h06.05.023,MetaAwareness,2020.1.2,Win32,60,3J9L0X0VDGPB6YE7XPGZFR3QRQU9WZ,3ZV9H2YQQEASDGNL6IKRCXVR8DG3WV,QHVZ4,QHVZ4,3ZV9H2YQQEASDGNL6IKRCXVR8DG3WV,3ZV9H2YQQEASDGNL6IKRCXVR8DG3WV,250984,250984,,
,,,,,,,,4,4.407665,0,26,26,16,1,AYW62R027PUT1,19,wolfe_image-095-a_w_outline.jpg,wolfe_image-095-b_w_outline.jpg,45,m,AYW62R027PUT1,2020-10-13_18h06.05.023,MetaAwareness,2020.1.2,Win32,60,3J9L0X0VDGPB6YE7XPGZFR3QRQU9WZ,3ZV9H2YQQEASDGNL6IKRCXVR8DG3WV,QHVZ4,QHVZ4,3ZV9H2YQQEASDGNL6IKRCXVR8DG3WV,3ZV9H2YQQEASDGNL6IKRCXVR8DG3WV,250984,250984,,
,,,,,,,,4,4.49944,0,27,27,21,1,AYW62R027PUT1,23,wolfe_image-098-a_w_outline.jpg,wolfe_image-098-b_w_outline.jpg,45,m,AYW62R027PUT1,2020-10-13_18h06.05.023,MetaAwareness,2020.1.2,Win32,60,3J9L0X0VDGPB6YE7XPGZFR3QRQU9WZ,3ZV9H2YQQEASDGNL6IKRCXVR8DG3WV,QHVZ4,QHVZ4,3ZV9H2YQQEASDGNL6IKRCXVR8DG3WV,3ZV9H2YQQEASDGNL6IKRCXVR8DG3WV,250984,250984,,
,,,,,,,,3,4.20593,0,28,28,17,1,AYW62R027PUT1,12,wolfe_image-096-a_w_outline.jpg,wolfe_image-096-b_w_outline.jpg,45,m,AYW62R027PUT1,2020-10-13_18h06.05.023,MetaAwareness,2020.1.2,Win32,60,3J9L0X0VDGPB6YE7XPGZFR3QRQU9WZ,3ZV9H2YQQEASDGNL6IKRCXVR8DG3WV,QHVZ4,QHVZ4,3ZV9H2YQQEASDGNL6IKRCXVR8DG3WV,3ZV9H2YQQEASDGNL6IKRCXVR8DG3WV,250984,250984,,
,,,,,,,,,,,,,,,AYW62R027PUT1,,,,45,m,AYW62R027PUT1,2020-10-13_18h06.05.023,MetaAwareness,2020.1.2,Win32,60,3J9L0X0VDGPB6YE7XPGZFR3QRQU9WZ,3ZV9H2YQQEASDGNL6IKRCXVR8DG3WV,QHVZ4,QHVZ4,3ZV9H2YQQEASDGNL6IKRCXVR8DG3WV,3ZV9H2YQQEASDGNL6IKRCXVR8DG3WV,250984,250984,5,2.866095
