consent_response.keys,consent_response.rt,key_resp_2.keys,key_resp_2.rt,user_resp.keys,user_resp.rt,trials.thisRepN,trials.thisTrialN,trials.thisN,trials.thisIndex,trials.ran,image_1_text,image_2_text,database,image,number,age,worker_ID,date,expName,psychopyVersion,OS,frameRate,hitId,workerId,assignmentId,a,tp_a,b,tp_b,c,tp_c,catch_same_resp.keys,catch_same_resp.rt,image_1_text_catch_same,image_2_text_catch_same,image_catch_same,catch_different_resp.keys,catch_different_resp.rt,image_1_text_catch_different,image_2_text_catch_different,image_catch_different
space,3.976145,space,17.41855,5,16.57629,0,0,0,28,1,a volley ball game in a wooded park setting with a group of three people watching a ball about to be volleyed back,a volleyball game with a group of three players watching on the right watching one person about to hit the ball across in a park setting,wolfe1,image-126,1,40,A2196WCNDZULFS,2021-02-18_10h11.11.464,MetaAwareness,2020.1.2,Win32,60,3WRKFXQBOCA8642AGK40DHN9Q4YYIO,A2196WCNDZULFS,326O153BMJ1WE83RE7WX30A48AVEDD,B1623,B1623,326O153BMJ1WE83RE7WX30A48AVEDD,326O153BMJ1WE83RE7WX30A48AVEDD,276373,276373,,,,,,,,,,
,,,,5,16.7351,0,1,1,33,1,"there are two women walking on a beach and there are several umbrellas, there is a blue umbrella and a yellow umbrella behind them.","there are two women walking on a beach, and there are several umbrellas. there are two yellow umbrellas behind them.",wolfe1,image-137,1,40,A2196WCNDZULFS,2021-02-18_10h11.11.464,MetaAwareness,2020.1.2,Win32,60,3WRKFXQBOCA8642AGK40DHN9Q4YYIO,A2196WCNDZULFS,326O153BMJ1WE83RE7WX30A48AVEDD,B1623,B1623,326O153BMJ1WE83RE7WX30A48AVEDD,326O153BMJ1WE83RE7WX30A48AVEDD,276373,276373,,,,,,,,,,
,,,,5,15.034105,0,2,2,20,1,two men one in yellow shirt watch motorcross biking,two men one in a green shirt watch motorcross biking,wolfe1,image-076,7,40,A2196WCNDZULFS,2021-02-18_10h11.11.464,MetaAwareness,2020.1.2,Win32,60,3WRKFXQBOCA8642AGK40DHN9Q4YYIO,A2196WCNDZULFS,326O153BMJ1WE83RE7WX30A48AVEDD,B1623,B1623,326O153BMJ1WE83RE7WX30A48AVEDD,326O153BMJ1WE83RE7WX30A48AVEDD,276373,276373,,,,,,,,,,
,,,,6,20.70287,0,3,3,14,1,a group of young men playing basketball in front of garage doors that have overhanging lights,"a group of young men playing basketball in front of garage doors, of which one has an overhanging light",wolfe1,image-040,4,40,A2196WCNDZULFS,2021-02-18_10h11.11.464,MetaAwareness,2020.1.2,Win32,60,3WRKFXQBOCA8642AGK40DHN9Q4YYIO,A2196WCNDZULFS,326O153BMJ1WE83RE7WX30A48AVEDD,B1623,B1623,326O153BMJ1WE83RE7WX30A48AVEDD,326O153BMJ1WE83RE7WX30A48AVEDD,276373,276373,,,,,,,,,,
,,,,5,7.935675,0,4,4,23,1,a hiker on a dusty mountain trail passes red wildflowers on his left,a hiker on a dusty mauntain trail passes yellow wildflowers on his left.,wolfe1,image-095,4,40,A2196WCNDZULFS,2021-02-18_10h11.11.464,MetaAwareness,2020.1.2,Win32,60,3WRKFXQBOCA8642AGK40DHN9Q4YYIO,A2196WCNDZULFS,326O153BMJ1WE83RE7WX30A48AVEDD,B1623,B1623,326O153BMJ1WE83RE7WX30A48AVEDD,326O153BMJ1WE83RE7WX30A48AVEDD,276373,276373,,,,,,,,,,
,,,,5,8.668335,0,5,5,8,1,"an outdoor festival with various tents, two trees can be seen in the background","an outdoor festival with various tents, a tree can be seen in  the background",wolfe1,image-025,1,40,A2196WCNDZULFS,2021-02-18_10h11.11.464,MetaAwareness,2020.1.2,Win32,60,3WRKFXQBOCA8642AGK40DHN9Q4YYIO,A2196WCNDZULFS,326O153BMJ1WE83RE7WX30A48AVEDD,B1623,B1623,326O153BMJ1WE83RE7WX30A48AVEDD,326O153BMJ1WE83RE7WX30A48AVEDD,276373,276373,,,,,,,,,,
,,,,5,18.435165,0,6,6,2,1,"a group of four men stand on a golf course, and one of them is getting ready to swing, and there is a peg in the ground behind him","a group of four men stand on a gold course, and one of them is getting ready to swing",wolfe1,image-017,4,40,A2196WCNDZULFS,2021-02-18_10h11.11.464,MetaAwareness,2020.1.2,Win32,60,3WRKFXQBOCA8642AGK40DHN9Q4YYIO,A2196WCNDZULFS,326O153BMJ1WE83RE7WX30A48AVEDD,B1623,B1623,326O153BMJ1WE83RE7WX30A48AVEDD,326O153BMJ1WE83RE7WX30A48AVEDD,276373,276373,,,,,,,,,,
,,,,5,6.534215,0,7,7,13,1,a collection of boats and ten people on jet skis in an open body of water,a collection of boats and nine people on jet skis in an open body of water,wolfe1,image-035,4,40,A2196WCNDZULFS,2021-02-18_10h11.11.464,MetaAwareness,2020.1.2,Win32,60,3WRKFXQBOCA8642AGK40DHN9Q4YYIO,A2196WCNDZULFS,326O153BMJ1WE83RE7WX30A48AVEDD,B1623,B1623,326O153BMJ1WE83RE7WX30A48AVEDD,326O153BMJ1WE83RE7WX30A48AVEDD,276373,276373,,,,,,,,,,
,,,,4,14.85445,0,8,8,4,1,an outdoor event with many people and a white tent. there is a pink and white striped bag on the grass,"an outdoor event with many people and a whitee tent, there is no pink and white striped bag on the grass in this image",wolfe1,image-020,6,40,A2196WCNDZULFS,2021-02-18_10h11.11.464,MetaAwareness,2020.1.2,Win32,60,3WRKFXQBOCA8642AGK40DHN9Q4YYIO,A2196WCNDZULFS,326O153BMJ1WE83RE7WX30A48AVEDD,B1623,B1623,326O153BMJ1WE83RE7WX30A48AVEDD,326O153BMJ1WE83RE7WX30A48AVEDD,276373,276373,,,,,,,,,,
,,,,5,15.11854,0,9,9,19,1,a group of young black children pose for a group photo. behind them is a river that leads to a lake.,a group of you black children pose for a group photo. behind them is a lake,wolfe1,image-048,1,40,A2196WCNDZULFS,2021-02-18_10h11.11.464,MetaAwareness,2020.1.2,Win32,60,3WRKFXQBOCA8642AGK40DHN9Q4YYIO,A2196WCNDZULFS,326O153BMJ1WE83RE7WX30A48AVEDD,B1623,B1623,326O153BMJ1WE83RE7WX30A48AVEDD,326O153BMJ1WE83RE7WX30A48AVEDD,276373,276373,,,,,,,,,,
,,,,6,19.07393,0,10,10,7,1,large car festival with multiple cars on display. the cars have their hoods and trucks open. one red car in particular has a red and white barrol in front of it.,large car festival with mulitple cars on display. the cars have their hoods and trucks open.,wolfe1,image-024,3,40,A2196WCNDZULFS,2021-02-18_10h11.11.464,MetaAwareness,2020.1.2,Win32,60,3WRKFXQBOCA8642AGK40DHN9Q4YYIO,A2196WCNDZULFS,326O153BMJ1WE83RE7WX30A48AVEDD,B1623,B1623,326O153BMJ1WE83RE7WX30A48AVEDD,326O153BMJ1WE83RE7WX30A48AVEDD,276373,276373,,,,,,,,,,
,,,,5,8.468905,0,11,11,18,1,a decorated room with a vase on the right side on the floor,a decorated room with no small vase on the right side on the floor.,wolfe1,image-043,4,40,A2196WCNDZULFS,2021-02-18_10h11.11.464,MetaAwareness,2020.1.2,Win32,60,3WRKFXQBOCA8642AGK40DHN9Q4YYIO,A2196WCNDZULFS,326O153BMJ1WE83RE7WX30A48AVEDD,B1623,B1623,326O153BMJ1WE83RE7WX30A48AVEDD,326O153BMJ1WE83RE7WX30A48AVEDD,276373,276373,,,,,,,,,,
,,,,4,7.691085,0,12,12,22,1,there is some red color flowers,there is some yellow color flowers,wolfe1,image-095,3,40,A2196WCNDZULFS,2021-02-18_10h11.11.464,MetaAwareness,2020.1.2,Win32,60,3WRKFXQBOCA8642AGK40DHN9Q4YYIO,A2196WCNDZULFS,326O153BMJ1WE83RE7WX30A48AVEDD,B1623,B1623,326O153BMJ1WE83RE7WX30A48AVEDD,326O153BMJ1WE83RE7WX30A48AVEDD,276373,276373,,,,,,,,,,
,,,,4,10.06332,0,13,13,15,1,a factory near a lake with rocks,a factory near a lake with no rocks in it,wolfe1,image-041,7,40,A2196WCNDZULFS,2021-02-18_10h11.11.464,MetaAwareness,2020.1.2,Win32,60,3WRKFXQBOCA8642AGK40DHN9Q4YYIO,A2196WCNDZULFS,326O153BMJ1WE83RE7WX30A48AVEDD,B1623,B1623,326O153BMJ1WE83RE7WX30A48AVEDD,326O153BMJ1WE83RE7WX30A48AVEDD,276373,276373,,,,,,,,,,
,,,,5,9.595625,0,14,14,11,1,a scout troop marches in a parade. one of the scouts in front has badges on both sides of her uniform.,a scout troop marches in a parade. one of the scouts in front has badges on one side of her uniform.,wolfe1,image-031,7,40,A2196WCNDZULFS,2021-02-18_10h11.11.464,MetaAwareness,2020.1.2,Win32,60,3WRKFXQBOCA8642AGK40DHN9Q4YYIO,A2196WCNDZULFS,326O153BMJ1WE83RE7WX30A48AVEDD,B1623,B1623,326O153BMJ1WE83RE7WX30A48AVEDD,326O153BMJ1WE83RE7WX30A48AVEDD,276373,276373,,,,,,,,,,
,,,,5,10.412415,0,15,15,31,1,"a group of five people walking together, one of the people in front have a red shirt on","a group of five people walking together, one of the people in front have a blue shirt on",wolfe1,image-134,4,40,A2196WCNDZULFS,2021-02-18_10h11.11.464,MetaAwareness,2020.1.2,Win32,60,3WRKFXQBOCA8642AGK40DHN9Q4YYIO,A2196WCNDZULFS,326O153BMJ1WE83RE7WX30A48AVEDD,B1623,B1623,326O153BMJ1WE83RE7WX30A48AVEDD,326O153BMJ1WE83RE7WX30A48AVEDD,276373,276373,,,,,,,,,,
,,,,5,14.76686,0,16,16,12,1,a man in a yellow sportscoat and two women and a child feeding pigeons infront of a castle. there are birds to the right of the boys feet,"a man , two women and a child feeding pigeons in front of a castle, there are no birds to the right of the boys feet.",wolfe1,image-032,2,40,A2196WCNDZULFS,2021-02-18_10h11.11.464,MetaAwareness,2020.1.2,Win32,60,3WRKFXQBOCA8642AGK40DHN9Q4YYIO,A2196WCNDZULFS,326O153BMJ1WE83RE7WX30A48AVEDD,B1623,B1623,326O153BMJ1WE83RE7WX30A48AVEDD,326O153BMJ1WE83RE7WX30A48AVEDD,276373,276373,,,,,,,,,,
,,,,5,9.018915,0,17,17,10,1,a parade of people are on the stree and the girl has a badge on her right chest,a parade of people are on the street and the girl has no badge on her right chest,wolfe1,image-031,4,40,A2196WCNDZULFS,2021-02-18_10h11.11.464,MetaAwareness,2020.1.2,Win32,60,3WRKFXQBOCA8642AGK40DHN9Q4YYIO,A2196WCNDZULFS,326O153BMJ1WE83RE7WX30A48AVEDD,B1623,B1623,326O153BMJ1WE83RE7WX30A48AVEDD,326O153BMJ1WE83RE7WX30A48AVEDD,276373,276373,,,,,,,,,,
,,,,5,5.36772,0,18,18,30,1,living room with red pillows,living room with green pillows,wolfe1,image-132,3,40,A2196WCNDZULFS,2021-02-18_10h11.11.464,MetaAwareness,2020.1.2,Win32,60,3WRKFXQBOCA8642AGK40DHN9Q4YYIO,A2196WCNDZULFS,326O153BMJ1WE83RE7WX30A48AVEDD,B1623,B1623,326O153BMJ1WE83RE7WX30A48AVEDD,326O153BMJ1WE83RE7WX30A48AVEDD,276373,276373,,,,,,,,,,
,,,,5,13.23544,0,19,19,17,1,a crowd is in front of an ornate church with statues at the top of each arch on its facade,a crowd is in front of an ornate church with statues at the top of each arch on its facade except for the leftmost arch,wolfe1,image-042,6,40,A2196WCNDZULFS,2021-02-18_10h11.11.464,MetaAwareness,2020.1.2,Win32,60,3WRKFXQBOCA8642AGK40DHN9Q4YYIO,A2196WCNDZULFS,326O153BMJ1WE83RE7WX30A48AVEDD,B1623,B1623,326O153BMJ1WE83RE7WX30A48AVEDD,326O153BMJ1WE83RE7WX30A48AVEDD,276373,276373,,,,,,,,,,
,,,,5,4.56904,0,20,20,25,1,airplanes next to yellow truck,airplanes next to red truck,wolfe1,image-111,3,40,A2196WCNDZULFS,2021-02-18_10h11.11.464,MetaAwareness,2020.1.2,Win32,60,3WRKFXQBOCA8642AGK40DHN9Q4YYIO,A2196WCNDZULFS,326O153BMJ1WE83RE7WX30A48AVEDD,B1623,B1623,326O153BMJ1WE83RE7WX30A48AVEDD,326O153BMJ1WE83RE7WX30A48AVEDD,276373,276373,,,,,,,,,,
,,,,5,5.68265,0,21,21,32,1,a rooftop lounge area overlooking a light blue building,a rooftop lounge area overlooking a pink building,wolfe1,image-136,4,40,A2196WCNDZULFS,2021-02-18_10h11.11.464,MetaAwareness,2020.1.2,Win32,60,3WRKFXQBOCA8642AGK40DHN9Q4YYIO,A2196WCNDZULFS,326O153BMJ1WE83RE7WX30A48AVEDD,B1623,B1623,326O153BMJ1WE83RE7WX30A48AVEDD,326O153BMJ1WE83RE7WX30A48AVEDD,276373,276373,,,,,,,,,,
,,,,5,7.517865,0,22,22,16,1,each of the arches at the top of the building have spires above them,each of the arches at the top of the building have spires above them except one.,wolfe1,image-042,1,40,A2196WCNDZULFS,2021-02-18_10h11.11.464,MetaAwareness,2020.1.2,Win32,60,3WRKFXQBOCA8642AGK40DHN9Q4YYIO,A2196WCNDZULFS,326O153BMJ1WE83RE7WX30A48AVEDD,B1623,B1623,326O153BMJ1WE83RE7WX30A48AVEDD,326O153BMJ1WE83RE7WX30A48AVEDD,276373,276373,,,,,,,,,,
,,,,5,7.27335,0,23,23,1,1,"a band plaing music outdoors on a sidewalk, there is a small sign on the wall behind them.","a band playing music outdoors on a sidewalk, there is no sign on the wall behind them.",wolfe1,image-013,3,40,A2196WCNDZULFS,2021-02-18_10h11.11.464,MetaAwareness,2020.1.2,Win32,60,3WRKFXQBOCA8642AGK40DHN9Q4YYIO,A2196WCNDZULFS,326O153BMJ1WE83RE7WX30A48AVEDD,B1623,B1623,326O153BMJ1WE83RE7WX30A48AVEDD,326O153BMJ1WE83RE7WX30A48AVEDD,276373,276373,,,,,,,,,,
,,,,5,10.773795,0,24,24,29,1,dance instructor teaches a group of young children how to dance. one child wearing a red plaid skirt seems to have mastered the form better than the rest of her class,dance instructor teaches a group of young children how to dance. one child wearing a purple plaid skirt seems to have mastered the form better than the rest of her class,wolfe1,image-131,4,40,A2196WCNDZULFS,2021-02-18_10h11.11.464,MetaAwareness,2020.1.2,Win32,60,3WRKFXQBOCA8642AGK40DHN9Q4YYIO,A2196WCNDZULFS,326O153BMJ1WE83RE7WX30A48AVEDD,B1623,B1623,326O153BMJ1WE83RE7WX30A48AVEDD,326O153BMJ1WE83RE7WX30A48AVEDD,276373,276373,,,,,,,,,,
,,,,6,7.261135,0,25,25,21,1,students walking with backpacks,students walking with backpacks and a blue decoration on the backpack,wolfe1,image-094,7,40,A2196WCNDZULFS,2021-02-18_10h11.11.464,MetaAwareness,2020.1.2,Win32,60,3WRKFXQBOCA8642AGK40DHN9Q4YYIO,A2196WCNDZULFS,326O153BMJ1WE83RE7WX30A48AVEDD,B1623,B1623,326O153BMJ1WE83RE7WX30A48AVEDD,326O153BMJ1WE83RE7WX30A48AVEDD,276373,276373,,,,,,,,,,
,,,,5,7.22691,0,26,26,26,1,"a group of people hang around some playground equipment, including someone with a red backpack","a group of people hang around some playground equipment, including someone wwith an orange backpack.",wolfe1,image-118,2,40,A2196WCNDZULFS,2021-02-18_10h11.11.464,MetaAwareness,2020.1.2,Win32,60,3WRKFXQBOCA8642AGK40DHN9Q4YYIO,A2196WCNDZULFS,326O153BMJ1WE83RE7WX30A48AVEDD,B1623,B1623,326O153BMJ1WE83RE7WX30A48AVEDD,326O153BMJ1WE83RE7WX30A48AVEDD,276373,276373,,,,,,,,,,
,,,,6,9.684035,0,27,27,0,1,a street in milwaukee close to se water with a solar panel nearby,a street in milwaukee close to se water,wolfe1,image-007,5,40,A2196WCNDZULFS,2021-02-18_10h11.11.464,MetaAwareness,2020.1.2,Win32,60,3WRKFXQBOCA8642AGK40DHN9Q4YYIO,A2196WCNDZULFS,326O153BMJ1WE83RE7WX30A48AVEDD,B1623,B1623,326O153BMJ1WE83RE7WX30A48AVEDD,326O153BMJ1WE83RE7WX30A48AVEDD,276373,276373,,,,,,,,,,
,,,,5,13.438235,0,28,28,5,1,"a group of archers practices their shots, with every archer having a quiver and arrows at their feet.","a group of archers practices their shots, with the last archer's quiver and arrows being missing.",wolfe1,image-021,4,40,A2196WCNDZULFS,2021-02-18_10h11.11.464,MetaAwareness,2020.1.2,Win32,60,3WRKFXQBOCA8642AGK40DHN9Q4YYIO,A2196WCNDZULFS,326O153BMJ1WE83RE7WX30A48AVEDD,B1623,B1623,326O153BMJ1WE83RE7WX30A48AVEDD,326O153BMJ1WE83RE7WX30A48AVEDD,276373,276373,,,,,,,,,,
,,,,5,7.65976,0,29,29,6,1,a mother and child walking in to a glass building thats a clinic with two bushes outside,a mother and child walking in to a glass building thats a clinic that has only 1 bush,wolfe1,image-023,1,40,A2196WCNDZULFS,2021-02-18_10h11.11.464,MetaAwareness,2020.1.2,Win32,60,3WRKFXQBOCA8642AGK40DHN9Q4YYIO,A2196WCNDZULFS,326O153BMJ1WE83RE7WX30A48AVEDD,B1623,B1623,326O153BMJ1WE83RE7WX30A48AVEDD,326O153BMJ1WE83RE7WX30A48AVEDD,276373,276373,,,,,,,,,,
,,,,,,,,,,,,,,,,40,A2196WCNDZULFS,2021-02-18_10h11.11.464,MetaAwareness,2020.1.2,Win32,60,3WRKFXQBOCA8642AGK40DHN9Q4YYIO,A2196WCNDZULFS,326O153BMJ1WE83RE7WX30A48AVEDD,B1623,B1623,326O153BMJ1WE83RE7WX30A48AVEDD,326O153BMJ1WE83RE7WX30A48AVEDD,276373,276373,6,11.801995,someone laying underneath a blue beach umbrella on a crowded beach,someone laying underneath a blue beach umbrella on a crowded beach,same,1,9.223405,members of a marching band crossing a track that all have feather plumes at the front of their hats,a cluttered and rustic looking cafe with 10 hanging lights,different
