consent_response.keys,consent_response.rt,key_resp_2.keys,key_resp_2.rt,user_resp.keys,user_resp.rt,trials.thisRepN,trials.thisTrialN,trials.thisN,trials.thisIndex,trials.ran,image_1_text,image_2_text,database,image,number,age,worker_ID,date,expName,psychopyVersion,OS,frameRate,hitId,workerId,assignmentId,a,tp_a,b,tp_b,c,tp_c,catch_same_resp.keys,catch_same_resp.rt,image_1_text_catch_same,image_2_text_catch_same,image_catch_same,catch_different_resp.keys,catch_different_resp.rt,image_1_text_catch_different,image_2_text_catch_different,image_catch_different
space,42.788,space,21.615,1,45.535,0,0,0,30,1,living room with red pillows,living room with green pillows,wolfe1,image-132,3,32,AYFDV2LUUE7LY,2021-02-18_11h54.01.748,MetaAwareness,2020.1.2,Win32,60,3Y7LTZE0YUPDKL7F6NVXARKMQTOUZI,AYFDV2LUUE7LY,3VE8AYVF8N0C3R7WSA5NZQH39KA8FG,FAEV3,FAEV3,3VE8AYVF8N0C3R7WSA5NZQH39KA8FG,3VE8AYVF8N0C3R7WSA5NZQH39KA8FG,276373,276373,,,,,,,,,,
,,,,1,13.224,0,1,1,1,1,"a band plaing music outdoors on a sidewalk, there is a small sign on the wall behind them.","a band playing music outdoors on a sidewalk, there is no sign on the wall behind them.",wolfe1,image-013,3,32,AYFDV2LUUE7LY,2021-02-18_11h54.01.748,MetaAwareness,2020.1.2,Win32,60,3Y7LTZE0YUPDKL7F6NVXARKMQTOUZI,AYFDV2LUUE7LY,3VE8AYVF8N0C3R7WSA5NZQH39KA8FG,FAEV3,FAEV3,3VE8AYVF8N0C3R7WSA5NZQH39KA8FG,3VE8AYVF8N0C3R7WSA5NZQH39KA8FG,276373,276373,,,,,,,,,,
,,,,3,25.603,0,2,2,5,1,"a group of archers practices their shots, with every archer having a quiver and arrows at their feet.","a group of archers practices their shots, with the last archer's quiver and arrows being missing.",wolfe1,image-021,4,32,AYFDV2LUUE7LY,2021-02-18_11h54.01.748,MetaAwareness,2020.1.2,Win32,60,3Y7LTZE0YUPDKL7F6NVXARKMQTOUZI,AYFDV2LUUE7LY,3VE8AYVF8N0C3R7WSA5NZQH39KA8FG,FAEV3,FAEV3,3VE8AYVF8N0C3R7WSA5NZQH39KA8FG,3VE8AYVF8N0C3R7WSA5NZQH39KA8FG,276373,276373,,,,,,,,,,
,,,,6,11.447,0,3,3,10,1,a parade of people are on the stree and the girl has a badge on her right chest,a parade of people are on the street and the girl has no badge on her right chest,wolfe1,image-031,4,32,AYFDV2LUUE7LY,2021-02-18_11h54.01.748,MetaAwareness,2020.1.2,Win32,60,3Y7LTZE0YUPDKL7F6NVXARKMQTOUZI,AYFDV2LUUE7LY,3VE8AYVF8N0C3R7WSA5NZQH39KA8FG,FAEV3,FAEV3,3VE8AYVF8N0C3R7WSA5NZQH39KA8FG,3VE8AYVF8N0C3R7WSA5NZQH39KA8FG,276373,276373,,,,,,,,,,
,,,,1,20.287,0,4,4,11,1,a scout troop marches in a parade. one of the scouts in front has badges on both sides of her uniform.,a scout troop marches in a parade. one of the scouts in front has badges on one side of her uniform.,wolfe1,image-031,7,32,AYFDV2LUUE7LY,2021-02-18_11h54.01.748,MetaAwareness,2020.1.2,Win32,60,3Y7LTZE0YUPDKL7F6NVXARKMQTOUZI,AYFDV2LUUE7LY,3VE8AYVF8N0C3R7WSA5NZQH39KA8FG,FAEV3,FAEV3,3VE8AYVF8N0C3R7WSA5NZQH39KA8FG,3VE8AYVF8N0C3R7WSA5NZQH39KA8FG,276373,276373,,,,,,,,,,
,,,,4,22.597,0,5,5,7,1,large car festival with multiple cars on display. the cars have their hoods and trucks open. one red car in particular has a red and white barrol in front of it.,large car festival with mulitple cars on display. the cars have their hoods and trucks open.,wolfe1,image-024,3,32,AYFDV2LUUE7LY,2021-02-18_11h54.01.748,MetaAwareness,2020.1.2,Win32,60,3Y7LTZE0YUPDKL7F6NVXARKMQTOUZI,AYFDV2LUUE7LY,3VE8AYVF8N0C3R7WSA5NZQH39KA8FG,FAEV3,FAEV3,3VE8AYVF8N0C3R7WSA5NZQH39KA8FG,3VE8AYVF8N0C3R7WSA5NZQH39KA8FG,276373,276373,,,,,,,,,,
,,,,4,44.863,0,6,6,17,1,a crowd is in front of an ornate church with statues at the top of each arch on its facade,a crowd is in front of an ornate church with statues at the top of each arch on its facade except for the leftmost arch,wolfe1,image-042,6,32,AYFDV2LUUE7LY,2021-02-18_11h54.01.748,MetaAwareness,2020.1.2,Win32,60,3Y7LTZE0YUPDKL7F6NVXARKMQTOUZI,AYFDV2LUUE7LY,3VE8AYVF8N0C3R7WSA5NZQH39KA8FG,FAEV3,FAEV3,3VE8AYVF8N0C3R7WSA5NZQH39KA8FG,3VE8AYVF8N0C3R7WSA5NZQH39KA8FG,276373,276373,,,,,,,,,,
,,,,4,15.125,0,7,7,8,1,"an outdoor festival with various tents, two trees can be seen in the background","an outdoor festival with various tents, a tree can be seen in  the background",wolfe1,image-025,1,32,AYFDV2LUUE7LY,2021-02-18_11h54.01.748,MetaAwareness,2020.1.2,Win32,60,3Y7LTZE0YUPDKL7F6NVXARKMQTOUZI,AYFDV2LUUE7LY,3VE8AYVF8N0C3R7WSA5NZQH39KA8FG,FAEV3,FAEV3,3VE8AYVF8N0C3R7WSA5NZQH39KA8FG,3VE8AYVF8N0C3R7WSA5NZQH39KA8FG,276373,276373,,,,,,,,,,
,,,,3,28.294,0,8,8,4,1,an outdoor event with many people and a white tent. there is a pink and white striped bag on the grass,"an outdoor event with many people and a whitee tent, there is no pink and white striped bag on the grass in this image",wolfe1,image-020,6,32,AYFDV2LUUE7LY,2021-02-18_11h54.01.748,MetaAwareness,2020.1.2,Win32,60,3Y7LTZE0YUPDKL7F6NVXARKMQTOUZI,AYFDV2LUUE7LY,3VE8AYVF8N0C3R7WSA5NZQH39KA8FG,FAEV3,FAEV3,3VE8AYVF8N0C3R7WSA5NZQH39KA8FG,3VE8AYVF8N0C3R7WSA5NZQH39KA8FG,276373,276373,,,,,,,,,,
,,,,2,29.482,0,9,9,32,1,a rooftop lounge area overlooking a light blue building,a rooftop lounge area overlooking a pink building,wolfe1,image-136,4,32,AYFDV2LUUE7LY,2021-02-18_11h54.01.748,MetaAwareness,2020.1.2,Win32,60,3Y7LTZE0YUPDKL7F6NVXARKMQTOUZI,AYFDV2LUUE7LY,3VE8AYVF8N0C3R7WSA5NZQH39KA8FG,FAEV3,FAEV3,3VE8AYVF8N0C3R7WSA5NZQH39KA8FG,3VE8AYVF8N0C3R7WSA5NZQH39KA8FG,276373,276373,,,,,,,,,,
,,,,1,55.476,0,10,10,18,1,a decorated room with a vase on the right side on the floor,a decorated room with no small vase on the right side on the floor.,wolfe1,image-043,4,32,AYFDV2LUUE7LY,2021-02-18_11h54.01.748,MetaAwareness,2020.1.2,Win32,60,3Y7LTZE0YUPDKL7F6NVXARKMQTOUZI,AYFDV2LUUE7LY,3VE8AYVF8N0C3R7WSA5NZQH39KA8FG,FAEV3,FAEV3,3VE8AYVF8N0C3R7WSA5NZQH39KA8FG,3VE8AYVF8N0C3R7WSA5NZQH39KA8FG,276373,276373,,,,,,,,,,
,,,,3,11.882,0,11,11,24,1,people walking to a  catheral with one person wearing green shorts.,people walking to a  catheral with one person wearing brown shorts.,wolfe1,image-098,2,32,AYFDV2LUUE7LY,2021-02-18_11h54.01.748,MetaAwareness,2020.1.2,Win32,60,3Y7LTZE0YUPDKL7F6NVXARKMQTOUZI,AYFDV2LUUE7LY,3VE8AYVF8N0C3R7WSA5NZQH39KA8FG,FAEV3,FAEV3,3VE8AYVF8N0C3R7WSA5NZQH39KA8FG,3VE8AYVF8N0C3R7WSA5NZQH39KA8FG,276373,276373,,,,,,,,,,
,,,,2,7.636,0,12,12,25,1,airplanes next to yellow truck,airplanes next to red truck,wolfe1,image-111,3,32,AYFDV2LUUE7LY,2021-02-18_11h54.01.748,MetaAwareness,2020.1.2,Win32,60,3Y7LTZE0YUPDKL7F6NVXARKMQTOUZI,AYFDV2LUUE7LY,3VE8AYVF8N0C3R7WSA5NZQH39KA8FG,FAEV3,FAEV3,3VE8AYVF8N0C3R7WSA5NZQH39KA8FG,3VE8AYVF8N0C3R7WSA5NZQH39KA8FG,276373,276373,,,,,,,,,,
,,,,1,32.957,0,13,13,28,1,a volley ball game in a wooded park setting with a group of three people watching a ball about to be volleyed back,a volleyball game with a group of three players watching on the right watching one person about to hit the ball across in a park setting,wolfe1,image-126,1,32,AYFDV2LUUE7LY,2021-02-18_11h54.01.748,MetaAwareness,2020.1.2,Win32,60,3Y7LTZE0YUPDKL7F6NVXARKMQTOUZI,AYFDV2LUUE7LY,3VE8AYVF8N0C3R7WSA5NZQH39KA8FG,FAEV3,FAEV3,3VE8AYVF8N0C3R7WSA5NZQH39KA8FG,3VE8AYVF8N0C3R7WSA5NZQH39KA8FG,276373,276373,,,,,,,,,,
,,,,4,14.97,0,14,14,26,1,"a group of people hang around some playground equipment, including someone with a red backpack","a group of people hang around some playground equipment, including someone wwith an orange backpack.",wolfe1,image-118,2,32,AYFDV2LUUE7LY,2021-02-18_11h54.01.748,MetaAwareness,2020.1.2,Win32,60,3Y7LTZE0YUPDKL7F6NVXARKMQTOUZI,AYFDV2LUUE7LY,3VE8AYVF8N0C3R7WSA5NZQH39KA8FG,FAEV3,FAEV3,3VE8AYVF8N0C3R7WSA5NZQH39KA8FG,3VE8AYVF8N0C3R7WSA5NZQH39KA8FG,276373,276373,,,,,,,,,,
,,,,1,43.115,0,15,15,12,1,a man in a yellow sportscoat and two women and a child feeding pigeons infront of a castle. there are birds to the right of the boys feet,"a man , two women and a child feeding pigeons in front of a castle, there are no birds to the right of the boys feet.",wolfe1,image-032,2,32,AYFDV2LUUE7LY,2021-02-18_11h54.01.748,MetaAwareness,2020.1.2,Win32,60,3Y7LTZE0YUPDKL7F6NVXARKMQTOUZI,AYFDV2LUUE7LY,3VE8AYVF8N0C3R7WSA5NZQH39KA8FG,FAEV3,FAEV3,3VE8AYVF8N0C3R7WSA5NZQH39KA8FG,3VE8AYVF8N0C3R7WSA5NZQH39KA8FG,276373,276373,,,,,,,,,,
,,,,3,33.357,0,16,16,29,1,dance instructor teaches a group of young children how to dance. one child wearing a red plaid skirt seems to have mastered the form better than the rest of her class,dance instructor teaches a group of young children how to dance. one child wearing a purple plaid skirt seems to have mastered the form better than the rest of her class,wolfe1,image-131,4,32,AYFDV2LUUE7LY,2021-02-18_11h54.01.748,MetaAwareness,2020.1.2,Win32,60,3Y7LTZE0YUPDKL7F6NVXARKMQTOUZI,AYFDV2LUUE7LY,3VE8AYVF8N0C3R7WSA5NZQH39KA8FG,FAEV3,FAEV3,3VE8AYVF8N0C3R7WSA5NZQH39KA8FG,3VE8AYVF8N0C3R7WSA5NZQH39KA8FG,276373,276373,,,,,,,,,,
,,,,5,31.458,0,17,17,14,1,a group of young men playing basketball in front of garage doors that have overhanging lights,"a group of young men playing basketball in front of garage doors, of which one has an overhanging light",wolfe1,image-040,4,32,AYFDV2LUUE7LY,2021-02-18_11h54.01.748,MetaAwareness,2020.1.2,Win32,60,3Y7LTZE0YUPDKL7F6NVXARKMQTOUZI,AYFDV2LUUE7LY,3VE8AYVF8N0C3R7WSA5NZQH39KA8FG,FAEV3,FAEV3,3VE8AYVF8N0C3R7WSA5NZQH39KA8FG,3VE8AYVF8N0C3R7WSA5NZQH39KA8FG,276373,276373,,,,,,,,,,
,,,,4,19.13,0,18,18,23,1,a hiker on a dusty mountain trail passes red wildflowers on his left,a hiker on a dusty mauntain trail passes yellow wildflowers on his left.,wolfe1,image-095,4,32,AYFDV2LUUE7LY,2021-02-18_11h54.01.748,MetaAwareness,2020.1.2,Win32,60,3Y7LTZE0YUPDKL7F6NVXARKMQTOUZI,AYFDV2LUUE7LY,3VE8AYVF8N0C3R7WSA5NZQH39KA8FG,FAEV3,FAEV3,3VE8AYVF8N0C3R7WSA5NZQH39KA8FG,3VE8AYVF8N0C3R7WSA5NZQH39KA8FG,276373,276373,,,,,,,,,,
,,,,4,16.994,0,19,19,0,1,a street in milwaukee close to se water with a solar panel nearby,a street in milwaukee close to se water,wolfe1,image-007,5,32,AYFDV2LUUE7LY,2021-02-18_11h54.01.748,MetaAwareness,2020.1.2,Win32,60,3Y7LTZE0YUPDKL7F6NVXARKMQTOUZI,AYFDV2LUUE7LY,3VE8AYVF8N0C3R7WSA5NZQH39KA8FG,FAEV3,FAEV3,3VE8AYVF8N0C3R7WSA5NZQH39KA8FG,3VE8AYVF8N0C3R7WSA5NZQH39KA8FG,276373,276373,,,,,,,,,,
,,,,3,17.863,0,20,20,6,1,a mother and child walking in to a glass building thats a clinic with two bushes outside,a mother and child walking in to a glass building thats a clinic that has only 1 bush,wolfe1,image-023,1,32,AYFDV2LUUE7LY,2021-02-18_11h54.01.748,MetaAwareness,2020.1.2,Win32,60,3Y7LTZE0YUPDKL7F6NVXARKMQTOUZI,AYFDV2LUUE7LY,3VE8AYVF8N0C3R7WSA5NZQH39KA8FG,FAEV3,FAEV3,3VE8AYVF8N0C3R7WSA5NZQH39KA8FG,3VE8AYVF8N0C3R7WSA5NZQH39KA8FG,276373,276373,,,,,,,,,,
,,,,4,33.257,0,21,21,33,1,"there are two women walking on a beach and there are several umbrellas, there is a blue umbrella and a yellow umbrella behind them.","there are two women walking on a beach, and there are several umbrellas. there are two yellow umbrellas behind them.",wolfe1,image-137,1,32,AYFDV2LUUE7LY,2021-02-18_11h54.01.748,MetaAwareness,2020.1.2,Win32,60,3Y7LTZE0YUPDKL7F6NVXARKMQTOUZI,AYFDV2LUUE7LY,3VE8AYVF8N0C3R7WSA5NZQH39KA8FG,FAEV3,FAEV3,3VE8AYVF8N0C3R7WSA5NZQH39KA8FG,3VE8AYVF8N0C3R7WSA5NZQH39KA8FG,276373,276373,,,,,,,,,,
,,,,3,10.17,0,22,22,22,1,there is some red color flowers,there is some yellow color flowers,wolfe1,image-095,3,32,AYFDV2LUUE7LY,2021-02-18_11h54.01.748,MetaAwareness,2020.1.2,Win32,60,3Y7LTZE0YUPDKL7F6NVXARKMQTOUZI,AYFDV2LUUE7LY,3VE8AYVF8N0C3R7WSA5NZQH39KA8FG,FAEV3,FAEV3,3VE8AYVF8N0C3R7WSA5NZQH39KA8FG,3VE8AYVF8N0C3R7WSA5NZQH39KA8FG,276373,276373,,,,,,,,,,
,,,,2,28.006,0,23,23,3,1,a man in a blue shirt sits next to a pink and white striped sack at an outdoor festival with many other people.,a  man in a blue shirt sits at an outdoor festival with many other people.,wolfe1,image-020,3,32,AYFDV2LUUE7LY,2021-02-18_11h54.01.748,MetaAwareness,2020.1.2,Win32,60,3Y7LTZE0YUPDKL7F6NVXARKMQTOUZI,AYFDV2LUUE7LY,3VE8AYVF8N0C3R7WSA5NZQH39KA8FG,FAEV3,FAEV3,3VE8AYVF8N0C3R7WSA5NZQH39KA8FG,3VE8AYVF8N0C3R7WSA5NZQH39KA8FG,276373,276373,,,,,,,,,,
,,,,4,9.978,0,24,24,21,1,students walking with backpacks,students walking with backpacks and a blue decoration on the backpack,wolfe1,image-094,7,32,AYFDV2LUUE7LY,2021-02-18_11h54.01.748,MetaAwareness,2020.1.2,Win32,60,3Y7LTZE0YUPDKL7F6NVXARKMQTOUZI,AYFDV2LUUE7LY,3VE8AYVF8N0C3R7WSA5NZQH39KA8FG,FAEV3,FAEV3,3VE8AYVF8N0C3R7WSA5NZQH39KA8FG,3VE8AYVF8N0C3R7WSA5NZQH39KA8FG,276373,276373,,,,,,,,,,
,,,,4,22.122,0,25,25,31,1,"a group of five people walking together, one of the people in front have a red shirt on","a group of five people walking together, one of the people in front have a blue shirt on",wolfe1,image-134,4,32,AYFDV2LUUE7LY,2021-02-18_11h54.01.748,MetaAwareness,2020.1.2,Win32,60,3Y7LTZE0YUPDKL7F6NVXARKMQTOUZI,AYFDV2LUUE7LY,3VE8AYVF8N0C3R7WSA5NZQH39KA8FG,FAEV3,FAEV3,3VE8AYVF8N0C3R7WSA5NZQH39KA8FG,3VE8AYVF8N0C3R7WSA5NZQH39KA8FG,276373,276373,,,,,,,,,,
,,,,3,10.229,0,26,26,2,1,"a group of four men stand on a golf course, and one of them is getting ready to swing, and there is a peg in the ground behind him","a group of four men stand on a gold course, and one of them is getting ready to swing",wolfe1,image-017,4,32,AYFDV2LUUE7LY,2021-02-18_11h54.01.748,MetaAwareness,2020.1.2,Win32,60,3Y7LTZE0YUPDKL7F6NVXARKMQTOUZI,AYFDV2LUUE7LY,3VE8AYVF8N0C3R7WSA5NZQH39KA8FG,FAEV3,FAEV3,3VE8AYVF8N0C3R7WSA5NZQH39KA8FG,3VE8AYVF8N0C3R7WSA5NZQH39KA8FG,276373,276373,,,,,,,,,,
,,,,4,1.033,0,27,27,15,1,a factory near a lake with rocks,a factory near a lake with no rocks in it,wolfe1,image-041,7,32,AYFDV2LUUE7LY,2021-02-18_11h54.01.748,MetaAwareness,2020.1.2,Win32,60,3Y7LTZE0YUPDKL7F6NVXARKMQTOUZI,AYFDV2LUUE7LY,3VE8AYVF8N0C3R7WSA5NZQH39KA8FG,FAEV3,FAEV3,3VE8AYVF8N0C3R7WSA5NZQH39KA8FG,3VE8AYVF8N0C3R7WSA5NZQH39KA8FG,276373,276373,,,,,,,,,,
,,,,3,1.138,0,28,28,19,1,a group of young black children pose for a group photo. behind them is a river that leads to a lake.,a group of you black children pose for a group photo. behind them is a lake,wolfe1,image-048,1,32,AYFDV2LUUE7LY,2021-02-18_11h54.01.748,MetaAwareness,2020.1.2,Win32,60,3Y7LTZE0YUPDKL7F6NVXARKMQTOUZI,AYFDV2LUUE7LY,3VE8AYVF8N0C3R7WSA5NZQH39KA8FG,FAEV3,FAEV3,3VE8AYVF8N0C3R7WSA5NZQH39KA8FG,3VE8AYVF8N0C3R7WSA5NZQH39KA8FG,276373,276373,,,,,,,,,,
,,,,3,1.057,0,29,29,9,1,a large building with many windows with people sittin infront of it and there is an object behind them in the grass,a large building ith many widowd with people sitting in the grass with no object behind them,wolfe1,image-028,1,32,AYFDV2LUUE7LY,2021-02-18_11h54.01.748,MetaAwareness,2020.1.2,Win32,60,3Y7LTZE0YUPDKL7F6NVXARKMQTOUZI,AYFDV2LUUE7LY,3VE8AYVF8N0C3R7WSA5NZQH39KA8FG,FAEV3,FAEV3,3VE8AYVF8N0C3R7WSA5NZQH39KA8FG,3VE8AYVF8N0C3R7WSA5NZQH39KA8FG,276373,276373,,,,,,,,,,
,,,,,,,,,,,,,,,,32,AYFDV2LUUE7LY,2021-02-18_11h54.01.748,MetaAwareness,2020.1.2,Win32,60,3Y7LTZE0YUPDKL7F6NVXARKMQTOUZI,AYFDV2LUUE7LY,3VE8AYVF8N0C3R7WSA5NZQH39KA8FG,FAEV3,FAEV3,3VE8AYVF8N0C3R7WSA5NZQH39KA8FG,3VE8AYVF8N0C3R7WSA5NZQH39KA8FG,276373,276373,4,1.088,someone laying underneath a blue beach umbrella on a crowded beach,someone laying underneath a blue beach umbrella on a crowded beach,same,3,1.051,members of a marching band crossing a track that all have feather plumes at the front of their hats,a cluttered and rustic looking cafe with 10 hanging lights,different
