consent_response.keys,consent_response.rt,key_resp_2.keys,key_resp_2.rt,Airplane_resp.keys,Airplane_resp.rt,Boat_resp.keys,Boat_resp.rt,user_resp.keys,user_resp.rt,trials.thisRepN,trials.thisTrialN,trials.thisN,trials.thisIndex,trials.ran,workerId,trial_num,image_a,image_b,age,gender (m/f),worker_ID,date,expName,psychopyVersion,OS,frameRate,hitId,assignmentId,a,tp_a,b,tp_b,c,tp_c,Cow_resp.keys,Cow_resp.rt
space,1.259785,space,2.434995,5,1.299105,5,0.594875,4,4.17785,0,0,0,24,1,A2FOUSWQDYHIE0,25,ma_51856108-a_w_outline.jpg,ma_51856108-b_w_outline.jpg,29,m,A2FOUSWQDYHIE0,2020-10-13_18h34.33.882,MetaAwareness,2020.1.2,Win32,60,3UYRNV2KIU2L5ZMJ0WJYJCVOE87N8W,3R08VXYT7DYAEZO88UNHPE77DF8W7Z,TV0R9,TV0R9,3R08VXYT7DYAEZO88UNHPE77DF8W7Z,3R08VXYT7DYAEZO88UNHPE77DF8W7Z,250969,250969,,
,,,,,,,,5,3.321155,0,1,1,2,1,A2FOUSWQDYHIE0,3,ma_1383096-a_w_outline.jpg,ma_1383096-b_w_outline.jpg,29,m,A2FOUSWQDYHIE0,2020-10-13_18h34.33.882,MetaAwareness,2020.1.2,Win32,60,3UYRNV2KIU2L5ZMJ0WJYJCVOE87N8W,3R08VXYT7DYAEZO88UNHPE77DF8W7Z,TV0R9,TV0R9,3R08VXYT7DYAEZO88UNHPE77DF8W7Z,3R08VXYT7DYAEZO88UNHPE77DF8W7Z,250969,250969,,
,,,,,,,,3,3.4871,0,2,2,26,1,A2FOUSWQDYHIE0,27,ma_23199105-a_w_outline.jpg,ma_23199105-b_w_outline.jpg,29,m,A2FOUSWQDYHIE0,2020-10-13_18h34.33.882,MetaAwareness,2020.1.2,Win32,60,3UYRNV2KIU2L5ZMJ0WJYJCVOE87N8W,3R08VXYT7DYAEZO88UNHPE77DF8W7Z,TV0R9,TV0R9,3R08VXYT7DYAEZO88UNHPE77DF8W7Z,3R08VXYT7DYAEZO88UNHPE77DF8W7Z,250969,250969,,
,,,,,,,,3,2.37271,0,3,3,7,1,A2FOUSWQDYHIE0,8,ma_72488522-a_w_outline.jpg,ma_72488522-b_w_outline.jpg,29,m,A2FOUSWQDYHIE0,2020-10-13_18h34.33.882,MetaAwareness,2020.1.2,Win32,60,3UYRNV2KIU2L5ZMJ0WJYJCVOE87N8W,3R08VXYT7DYAEZO88UNHPE77DF8W7Z,TV0R9,TV0R9,3R08VXYT7DYAEZO88UNHPE77DF8W7Z,3R08VXYT7DYAEZO88UNHPE77DF8W7Z,250969,250969,,
,,,,,,,,4,2.54251,0,4,4,28,1,A2FOUSWQDYHIE0,29,ma_18345691-a_w_outline.jpg,ma_18345691-b_w_outline.jpg,29,m,A2FOUSWQDYHIE0,2020-10-13_18h34.33.882,MetaAwareness,2020.1.2,Win32,60,3UYRNV2KIU2L5ZMJ0WJYJCVOE87N8W,3R08VXYT7DYAEZO88UNHPE77DF8W7Z,TV0R9,TV0R9,3R08VXYT7DYAEZO88UNHPE77DF8W7Z,3R08VXYT7DYAEZO88UNHPE77DF8W7Z,250969,250969,,
,,,,,,,,5,3.14021,0,5,5,9,1,A2FOUSWQDYHIE0,10,ma_46635293-a_w_outline.jpg,ma_46635293-b_w_outline.jpg,29,m,A2FOUSWQDYHIE0,2020-10-13_18h34.33.882,MetaAwareness,2020.1.2,Win32,60,3UYRNV2KIU2L5ZMJ0WJYJCVOE87N8W,3R08VXYT7DYAEZO88UNHPE77DF8W7Z,TV0R9,TV0R9,3R08VXYT7DYAEZO88UNHPE77DF8W7Z,3R08VXYT7DYAEZO88UNHPE77DF8W7Z,250969,250969,,
,,,,,,,,4,3.958575,0,6,6,29,1,A2FOUSWQDYHIE0,30,ma_79241011-a_w_outline.jpg,ma_79241011-b_w_outline.jpg,29,m,A2FOUSWQDYHIE0,2020-10-13_18h34.33.882,MetaAwareness,2020.1.2,Win32,60,3UYRNV2KIU2L5ZMJ0WJYJCVOE87N8W,3R08VXYT7DYAEZO88UNHPE77DF8W7Z,TV0R9,TV0R9,3R08VXYT7DYAEZO88UNHPE77DF8W7Z,3R08VXYT7DYAEZO88UNHPE77DF8W7Z,250969,250969,,
,,,,,,,,3,2.83322,0,7,7,8,1,A2FOUSWQDYHIE0,9,ma_46475259-a_w_outline.jpg,ma_46475259-b_w_outline.jpg,29,m,A2FOUSWQDYHIE0,2020-10-13_18h34.33.882,MetaAwareness,2020.1.2,Win32,60,3UYRNV2KIU2L5ZMJ0WJYJCVOE87N8W,3R08VXYT7DYAEZO88UNHPE77DF8W7Z,TV0R9,TV0R9,3R08VXYT7DYAEZO88UNHPE77DF8W7Z,3R08VXYT7DYAEZO88UNHPE77DF8W7Z,250969,250969,,
,,,,,,,,4,2.40207,0,8,8,1,1,A2FOUSWQDYHIE0,2,ma_75081153-a_w_outline.jpg,ma_75081153-b_w_outline.jpg,29,m,A2FOUSWQDYHIE0,2020-10-13_18h34.33.882,MetaAwareness,2020.1.2,Win32,60,3UYRNV2KIU2L5ZMJ0WJYJCVOE87N8W,3R08VXYT7DYAEZO88UNHPE77DF8W7Z,TV0R9,TV0R9,3R08VXYT7DYAEZO88UNHPE77DF8W7Z,3R08VXYT7DYAEZO88UNHPE77DF8W7Z,250969,250969,,
,,,,,,,,1,4.064435,0,9,9,11,1,A2FOUSWQDYHIE0,12,ma_74173745-a_w_outline.jpg,ma_74173745-b_w_outline.jpg,29,m,A2FOUSWQDYHIE0,2020-10-13_18h34.33.882,MetaAwareness,2020.1.2,Win32,60,3UYRNV2KIU2L5ZMJ0WJYJCVOE87N8W,3R08VXYT7DYAEZO88UNHPE77DF8W7Z,TV0R9,TV0R9,3R08VXYT7DYAEZO88UNHPE77DF8W7Z,3R08VXYT7DYAEZO88UNHPE77DF8W7Z,250969,250969,,
,,,,,,,,2,2.650325,0,10,10,27,1,A2FOUSWQDYHIE0,28,ma_31236119-a_w_outline.jpg,ma_31236119-b_w_outline.jpg,29,m,A2FOUSWQDYHIE0,2020-10-13_18h34.33.882,MetaAwareness,2020.1.2,Win32,60,3UYRNV2KIU2L5ZMJ0WJYJCVOE87N8W,3R08VXYT7DYAEZO88UNHPE77DF8W7Z,TV0R9,TV0R9,3R08VXYT7DYAEZO88UNHPE77DF8W7Z,3R08VXYT7DYAEZO88UNHPE77DF8W7Z,250969,250969,,
,,,,,,,,2,2.827825,0,11,11,15,1,A2FOUSWQDYHIE0,16,ma_38466626-a_w_outline.jpg,ma_38466626-b_w_outline.jpg,29,m,A2FOUSWQDYHIE0,2020-10-13_18h34.33.882,MetaAwareness,2020.1.2,Win32,60,3UYRNV2KIU2L5ZMJ0WJYJCVOE87N8W,3R08VXYT7DYAEZO88UNHPE77DF8W7Z,TV0R9,TV0R9,3R08VXYT7DYAEZO88UNHPE77DF8W7Z,3R08VXYT7DYAEZO88UNHPE77DF8W7Z,250969,250969,,
,,,,,,,,3,3.38956,0,12,12,17,1,A2FOUSWQDYHIE0,18,ma_25107991-a_w_outline.jpg,ma_25107991-b_w_outline.jpg,29,m,A2FOUSWQDYHIE0,2020-10-13_18h34.33.882,MetaAwareness,2020.1.2,Win32,60,3UYRNV2KIU2L5ZMJ0WJYJCVOE87N8W,3R08VXYT7DYAEZO88UNHPE77DF8W7Z,TV0R9,TV0R9,3R08VXYT7DYAEZO88UNHPE77DF8W7Z,3R08VXYT7DYAEZO88UNHPE77DF8W7Z,250969,250969,,
,,,,,,,,4,2.814855,0,13,13,25,1,A2FOUSWQDYHIE0,26,ma_98156944-a_w_outline.jpg,ma_98156944-b_w_outline.jpg,29,m,A2FOUSWQDYHIE0,2020-10-13_18h34.33.882,MetaAwareness,2020.1.2,Win32,60,3UYRNV2KIU2L5ZMJ0WJYJCVOE87N8W,3R08VXYT7DYAEZO88UNHPE77DF8W7Z,TV0R9,TV0R9,3R08VXYT7DYAEZO88UNHPE77DF8W7Z,3R08VXYT7DYAEZO88UNHPE77DF8W7Z,250969,250969,,
,,,,,,,,1,5.20171,0,14,14,20,1,A2FOUSWQDYHIE0,21,ma_95091295-a_w_outline.jpg,ma_95091295-b_w_outline.jpg,29,m,A2FOUSWQDYHIE0,2020-10-13_18h34.33.882,MetaAwareness,2020.1.2,Win32,60,3UYRNV2KIU2L5ZMJ0WJYJCVOE87N8W,3R08VXYT7DYAEZO88UNHPE77DF8W7Z,TV0R9,TV0R9,3R08VXYT7DYAEZO88UNHPE77DF8W7Z,3R08VXYT7DYAEZO88UNHPE77DF8W7Z,250969,250969,,
,,,,,,,,5,2.640975,0,15,15,4,1,A2FOUSWQDYHIE0,5,ma_55174490-a_w_outline.jpg,ma_55174490-b_w_outline.jpg,29,m,A2FOUSWQDYHIE0,2020-10-13_18h34.33.882,MetaAwareness,2020.1.2,Win32,60,3UYRNV2KIU2L5ZMJ0WJYJCVOE87N8W,3R08VXYT7DYAEZO88UNHPE77DF8W7Z,TV0R9,TV0R9,3R08VXYT7DYAEZO88UNHPE77DF8W7Z,3R08VXYT7DYAEZO88UNHPE77DF8W7Z,250969,250969,,
,,,,,,,,4,2.33024,0,16,16,21,1,A2FOUSWQDYHIE0,22,ma_79573638-a_w_outline.jpg,ma_79573638-b_w_outline.jpg,29,m,A2FOUSWQDYHIE0,2020-10-13_18h34.33.882,MetaAwareness,2020.1.2,Win32,60,3UYRNV2KIU2L5ZMJ0WJYJCVOE87N8W,3R08VXYT7DYAEZO88UNHPE77DF8W7Z,TV0R9,TV0R9,3R08VXYT7DYAEZO88UNHPE77DF8W7Z,3R08VXYT7DYAEZO88UNHPE77DF8W7Z,250969,250969,,
,,,,,,,,4,2.47003,0,17,17,19,1,A2FOUSWQDYHIE0,20,ma_77345858-a_w_outline.jpg,ma_77345858-b_w_outline.jpg,29,m,A2FOUSWQDYHIE0,2020-10-13_18h34.33.882,MetaAwareness,2020.1.2,Win32,60,3UYRNV2KIU2L5ZMJ0WJYJCVOE87N8W,3R08VXYT7DYAEZO88UNHPE77DF8W7Z,TV0R9,TV0R9,3R08VXYT7DYAEZO88UNHPE77DF8W7Z,3R08VXYT7DYAEZO88UNHPE77DF8W7Z,250969,250969,,
,,,,,,,,3,2.024645,0,18,18,6,1,A2FOUSWQDYHIE0,7,ma_51537628-a_w_outline.jpg,ma_51537628-b_w_outline.jpg,29,m,A2FOUSWQDYHIE0,2020-10-13_18h34.33.882,MetaAwareness,2020.1.2,Win32,60,3UYRNV2KIU2L5ZMJ0WJYJCVOE87N8W,3R08VXYT7DYAEZO88UNHPE77DF8W7Z,TV0R9,TV0R9,3R08VXYT7DYAEZO88UNHPE77DF8W7Z,3R08VXYT7DYAEZO88UNHPE77DF8W7Z,250969,250969,,
,,,,,,,,2,4.74044,0,19,19,3,1,A2FOUSWQDYHIE0,4,ma_86520382-a_w_outline.jpg,ma_86520382-b_w_outline.jpg,29,m,A2FOUSWQDYHIE0,2020-10-13_18h34.33.882,MetaAwareness,2020.1.2,Win32,60,3UYRNV2KIU2L5ZMJ0WJYJCVOE87N8W,3R08VXYT7DYAEZO88UNHPE77DF8W7Z,TV0R9,TV0R9,3R08VXYT7DYAEZO88UNHPE77DF8W7Z,3R08VXYT7DYAEZO88UNHPE77DF8W7Z,250969,250969,,
,,,,,,,,3,3.24236,0,20,20,16,1,A2FOUSWQDYHIE0,17,ma_67862299-a_w_outline.jpg,ma_67862299-b_w_outline.jpg,29,m,A2FOUSWQDYHIE0,2020-10-13_18h34.33.882,MetaAwareness,2020.1.2,Win32,60,3UYRNV2KIU2L5ZMJ0WJYJCVOE87N8W,3R08VXYT7DYAEZO88UNHPE77DF8W7Z,TV0R9,TV0R9,3R08VXYT7DYAEZO88UNHPE77DF8W7Z,3R08VXYT7DYAEZO88UNHPE77DF8W7Z,250969,250969,,
,,,,,,,,4,3.427325,0,21,21,18,1,A2FOUSWQDYHIE0,19,ma_12178414-a_w_outline.jpg,ma_12178414-b_w_outline.jpg,29,m,A2FOUSWQDYHIE0,2020-10-13_18h34.33.882,MetaAwareness,2020.1.2,Win32,60,3UYRNV2KIU2L5ZMJ0WJYJCVOE87N8W,3R08VXYT7DYAEZO88UNHPE77DF8W7Z,TV0R9,TV0R9,3R08VXYT7DYAEZO88UNHPE77DF8W7Z,3R08VXYT7DYAEZO88UNHPE77DF8W7Z,250969,250969,,
,,,,,,,,5,2.693795,0,22,22,5,1,A2FOUSWQDYHIE0,6,ma_57861456-a_w_outline.jpg,ma_57861456-b_w_outline.jpg,29,m,A2FOUSWQDYHIE0,2020-10-13_18h34.33.882,MetaAwareness,2020.1.2,Win32,60,3UYRNV2KIU2L5ZMJ0WJYJCVOE87N8W,3R08VXYT7DYAEZO88UNHPE77DF8W7Z,TV0R9,TV0R9,3R08VXYT7DYAEZO88UNHPE77DF8W7Z,3R08VXYT7DYAEZO88UNHPE77DF8W7Z,250969,250969,,
,,,,,,,,4,2.616725,0,23,23,13,1,A2FOUSWQDYHIE0,14,ma_13141692-a_w_outline.jpg,ma_13141692-b_w_outline.jpg,29,m,A2FOUSWQDYHIE0,2020-10-13_18h34.33.882,MetaAwareness,2020.1.2,Win32,60,3UYRNV2KIU2L5ZMJ0WJYJCVOE87N8W,3R08VXYT7DYAEZO88UNHPE77DF8W7Z,TV0R9,TV0R9,3R08VXYT7DYAEZO88UNHPE77DF8W7Z,3R08VXYT7DYAEZO88UNHPE77DF8W7Z,250969,250969,,
,,,,,,,,4,2.242095,0,24,24,23,1,A2FOUSWQDYHIE0,24,ma_3099758-a_w_outline.jpg,ma_3099758-b_w_outline.jpg,29,m,A2FOUSWQDYHIE0,2020-10-13_18h34.33.882,MetaAwareness,2020.1.2,Win32,60,3UYRNV2KIU2L5ZMJ0WJYJCVOE87N8W,3R08VXYT7DYAEZO88UNHPE77DF8W7Z,TV0R9,TV0R9,3R08VXYT7DYAEZO88UNHPE77DF8W7Z,3R08VXYT7DYAEZO88UNHPE77DF8W7Z,250969,250969,,
,,,,,,,,4,2.497415,0,25,25,10,1,A2FOUSWQDYHIE0,11,ma_23024660-a_w_outline.jpg,ma_23024660-b_w_outline.jpg,29,m,A2FOUSWQDYHIE0,2020-10-13_18h34.33.882,MetaAwareness,2020.1.2,Win32,60,3UYRNV2KIU2L5ZMJ0WJYJCVOE87N8W,3R08VXYT7DYAEZO88UNHPE77DF8W7Z,TV0R9,TV0R9,3R08VXYT7DYAEZO88UNHPE77DF8W7Z,3R08VXYT7DYAEZO88UNHPE77DF8W7Z,250969,250969,,
,,,,,,,,3,2.874305,0,26,26,14,1,A2FOUSWQDYHIE0,15,ma_4247084-a_w_outline.jpg,ma_4247084-b_w_outline.jpg,29,m,A2FOUSWQDYHIE0,2020-10-13_18h34.33.882,MetaAwareness,2020.1.2,Win32,60,3UYRNV2KIU2L5ZMJ0WJYJCVOE87N8W,3R08VXYT7DYAEZO88UNHPE77DF8W7Z,TV0R9,TV0R9,3R08VXYT7DYAEZO88UNHPE77DF8W7Z,3R08VXYT7DYAEZO88UNHPE77DF8W7Z,250969,250969,,
,,,,,,,,4,2.493985,0,27,27,12,1,A2FOUSWQDYHIE0,13,ma_75958241-a_w_outline.jpg,ma_75958241-b_w_outline.jpg,29,m,A2FOUSWQDYHIE0,2020-10-13_18h34.33.882,MetaAwareness,2020.1.2,Win32,60,3UYRNV2KIU2L5ZMJ0WJYJCVOE87N8W,3R08VXYT7DYAEZO88UNHPE77DF8W7Z,TV0R9,TV0R9,3R08VXYT7DYAEZO88UNHPE77DF8W7Z,3R08VXYT7DYAEZO88UNHPE77DF8W7Z,250969,250969,,
,,,,,,,,4,2.304285,0,28,28,22,1,A2FOUSWQDYHIE0,23,ma_62224663-a_w_outline.jpg,ma_62224663-b_w_outline.jpg,29,m,A2FOUSWQDYHIE0,2020-10-13_18h34.33.882,MetaAwareness,2020.1.2,Win32,60,3UYRNV2KIU2L5ZMJ0WJYJCVOE87N8W,3R08VXYT7DYAEZO88UNHPE77DF8W7Z,TV0R9,TV0R9,3R08VXYT7DYAEZO88UNHPE77DF8W7Z,3R08VXYT7DYAEZO88UNHPE77DF8W7Z,250969,250969,,
,,,,,,,,1,2.992215,0,29,29,0,1,A2FOUSWQDYHIE0,1,ma_12115280-a_w_outline.jpg,ma_12115280-b_w_outline.jpg,29,m,A2FOUSWQDYHIE0,2020-10-13_18h34.33.882,MetaAwareness,2020.1.2,Win32,60,3UYRNV2KIU2L5ZMJ0WJYJCVOE87N8W,3R08VXYT7DYAEZO88UNHPE77DF8W7Z,TV0R9,TV0R9,3R08VXYT7DYAEZO88UNHPE77DF8W7Z,3R08VXYT7DYAEZO88UNHPE77DF8W7Z,250969,250969,,
,,,,,,,,,,,,,,,A2FOUSWQDYHIE0,,,,29,m,A2FOUSWQDYHIE0,2020-10-13_18h34.33.882,MetaAwareness,2020.1.2,Win32,60,3UYRNV2KIU2L5ZMJ0WJYJCVOE87N8W,3R08VXYT7DYAEZO88UNHPE77DF8W7Z,TV0R9,TV0R9,3R08VXYT7DYAEZO88UNHPE77DF8W7Z,3R08VXYT7DYAEZO88UNHPE77DF8W7Z,250969,250969,5,1.151365
