consent_response.keys,consent_response.rt,key_resp_2.keys,key_resp_2.rt,Airplane_resp.keys,Airplane_resp.rt,Boat_resp.keys,Boat_resp.rt,user_resp.keys,user_resp.rt,trials.thisRepN,trials.thisTrialN,trials.thisN,trials.thisIndex,trials.ran,workerId,trial_num,image_a,image_b,age,gender (m/f),worker_ID,date,expName,psychopyVersion,OS,frameRate,hitId,assignmentId,a,tp_a,b,tp_b,c,tp_c,Cow_resp.keys,Cow_resp.rt,Garden_resp.keys,Garden_resp.rt
space,17.904,space,30.067,5,3.92,5,3.304,3,6.494,0,0,0,22,1,A2VR9O234UCT9T,23,ma_73637203-a_w_outline.jpg,ma_73637203-b_w_outline.jpg,50,f,A2VR9O234UCT9T,2020-11-12_09h21.39.303,MetaAwareness,2020.1.2,Win32,60,3UYRNV2KIU2L5ZMJ0WJYJCVOE87N8W,30ZX6P7VF9YHMER3VJN74XWR5C92JD,V6Z09,V6Z09,30ZX6P7VF9YHMER3VJN74XWR5C92JD,30ZX6P7VF9YHMER3VJN74XWR5C92JD,250969,250969,,,,
,,,,,,,,2,7.424,0,1,1,29,1,A2VR9O234UCT9T,30,ma_48486405-a_w_outline.jpg,ma_48486405-b_w_outline.jpg,50,f,A2VR9O234UCT9T,2020-11-12_09h21.39.303,MetaAwareness,2020.1.2,Win32,60,3UYRNV2KIU2L5ZMJ0WJYJCVOE87N8W,30ZX6P7VF9YHMER3VJN74XWR5C92JD,V6Z09,V6Z09,30ZX6P7VF9YHMER3VJN74XWR5C92JD,30ZX6P7VF9YHMER3VJN74XWR5C92JD,250969,250969,,,,
,,,,,,,,2,5.021,0,2,2,19,1,A2VR9O234UCT9T,20,ma_51856108-a_w_outline.jpg,ma_51856108-b_w_outline.jpg,50,f,A2VR9O234UCT9T,2020-11-12_09h21.39.303,MetaAwareness,2020.1.2,Win32,60,3UYRNV2KIU2L5ZMJ0WJYJCVOE87N8W,30ZX6P7VF9YHMER3VJN74XWR5C92JD,V6Z09,V6Z09,30ZX6P7VF9YHMER3VJN74XWR5C92JD,30ZX6P7VF9YHMER3VJN74XWR5C92JD,250969,250969,,,,
,,,,,,,,1,5.956,0,3,3,21,1,A2VR9O234UCT9T,22,ma_83691215-a_w_outline.jpg,ma_83691215-b_w_outline.jpg,50,f,A2VR9O234UCT9T,2020-11-12_09h21.39.303,MetaAwareness,2020.1.2,Win32,60,3UYRNV2KIU2L5ZMJ0WJYJCVOE87N8W,30ZX6P7VF9YHMER3VJN74XWR5C92JD,V6Z09,V6Z09,30ZX6P7VF9YHMER3VJN74XWR5C92JD,30ZX6P7VF9YHMER3VJN74XWR5C92JD,250969,250969,,,,
,,,,,,,,2,4.727,0,4,4,4,1,A2VR9O234UCT9T,5,ma_23199105-a_w_outline.jpg,ma_23199105-b_w_outline.jpg,50,f,A2VR9O234UCT9T,2020-11-12_09h21.39.303,MetaAwareness,2020.1.2,Win32,60,3UYRNV2KIU2L5ZMJ0WJYJCVOE87N8W,30ZX6P7VF9YHMER3VJN74XWR5C92JD,V6Z09,V6Z09,30ZX6P7VF9YHMER3VJN74XWR5C92JD,30ZX6P7VF9YHMER3VJN74XWR5C92JD,250969,250969,,,,
,,,,,,,,1,5.993,0,5,5,0,1,A2VR9O234UCT9T,1,ma_25107991-a_w_outline.jpg,ma_25107991-b_w_outline.jpg,50,f,A2VR9O234UCT9T,2020-11-12_09h21.39.303,MetaAwareness,2020.1.2,Win32,60,3UYRNV2KIU2L5ZMJ0WJYJCVOE87N8W,30ZX6P7VF9YHMER3VJN74XWR5C92JD,V6Z09,V6Z09,30ZX6P7VF9YHMER3VJN74XWR5C92JD,30ZX6P7VF9YHMER3VJN74XWR5C92JD,250969,250969,,,,
,,,,,,,,3,4.397,0,6,6,2,1,A2VR9O234UCT9T,3,ma_24383097-a_w_outline.jpg,ma_24383097-b_w_outline.jpg,50,f,A2VR9O234UCT9T,2020-11-12_09h21.39.303,MetaAwareness,2020.1.2,Win32,60,3UYRNV2KIU2L5ZMJ0WJYJCVOE87N8W,30ZX6P7VF9YHMER3VJN74XWR5C92JD,V6Z09,V6Z09,30ZX6P7VF9YHMER3VJN74XWR5C92JD,30ZX6P7VF9YHMER3VJN74XWR5C92JD,250969,250969,,,,
,,,,,,,,3,10.098,0,7,7,18,1,A2VR9O234UCT9T,19,ma_95091295-a_w_outline.jpg,ma_95091295-b_w_outline.jpg,50,f,A2VR9O234UCT9T,2020-11-12_09h21.39.303,MetaAwareness,2020.1.2,Win32,60,3UYRNV2KIU2L5ZMJ0WJYJCVOE87N8W,30ZX6P7VF9YHMER3VJN74XWR5C92JD,V6Z09,V6Z09,30ZX6P7VF9YHMER3VJN74XWR5C92JD,30ZX6P7VF9YHMER3VJN74XWR5C92JD,250969,250969,,,,
,,,,,,,,3,5.673,0,8,8,17,1,A2VR9O234UCT9T,18,ma_61118260-a_w_outline.jpg,ma_61118260-b_w_outline.jpg,50,f,A2VR9O234UCT9T,2020-11-12_09h21.39.303,MetaAwareness,2020.1.2,Win32,60,3UYRNV2KIU2L5ZMJ0WJYJCVOE87N8W,30ZX6P7VF9YHMER3VJN74XWR5C92JD,V6Z09,V6Z09,30ZX6P7VF9YHMER3VJN74XWR5C92JD,30ZX6P7VF9YHMER3VJN74XWR5C92JD,250969,250969,,,,
,,,,,,,,2,5.988,0,9,9,11,1,A2VR9O234UCT9T,12,ma_45525109-a_w_outline.jpg,ma_45525109-b_w_outline.jpg,50,f,A2VR9O234UCT9T,2020-11-12_09h21.39.303,MetaAwareness,2020.1.2,Win32,60,3UYRNV2KIU2L5ZMJ0WJYJCVOE87N8W,30ZX6P7VF9YHMER3VJN74XWR5C92JD,V6Z09,V6Z09,30ZX6P7VF9YHMER3VJN74XWR5C92JD,30ZX6P7VF9YHMER3VJN74XWR5C92JD,250969,250969,,,,
,,,,,,,,2,4.923,0,10,10,25,1,A2VR9O234UCT9T,26,ma_27857618-a_w_outline.jpg,ma_27857618-b_w_outline.jpg,50,f,A2VR9O234UCT9T,2020-11-12_09h21.39.303,MetaAwareness,2020.1.2,Win32,60,3UYRNV2KIU2L5ZMJ0WJYJCVOE87N8W,30ZX6P7VF9YHMER3VJN74XWR5C92JD,V6Z09,V6Z09,30ZX6P7VF9YHMER3VJN74XWR5C92JD,30ZX6P7VF9YHMER3VJN74XWR5C92JD,250969,250969,,,,
,,,,,,,,3,6.976,0,11,11,12,1,A2VR9O234UCT9T,13,ma_32289063-a_w_outline.jpg,ma_32289063-b_w_outline.jpg,50,f,A2VR9O234UCT9T,2020-11-12_09h21.39.303,MetaAwareness,2020.1.2,Win32,60,3UYRNV2KIU2L5ZMJ0WJYJCVOE87N8W,30ZX6P7VF9YHMER3VJN74XWR5C92JD,V6Z09,V6Z09,30ZX6P7VF9YHMER3VJN74XWR5C92JD,30ZX6P7VF9YHMER3VJN74XWR5C92JD,250969,250969,,,,
,,,,,,,,5,4.072,0,12,12,13,1,A2VR9O234UCT9T,14,ma_1191801-a_w_outline.jpg,ma_1191801-b_w_outline.jpg,50,f,A2VR9O234UCT9T,2020-11-12_09h21.39.303,MetaAwareness,2020.1.2,Win32,60,3UYRNV2KIU2L5ZMJ0WJYJCVOE87N8W,30ZX6P7VF9YHMER3VJN74XWR5C92JD,V6Z09,V6Z09,30ZX6P7VF9YHMER3VJN74XWR5C92JD,30ZX6P7VF9YHMER3VJN74XWR5C92JD,250969,250969,,,,
,,,,,,,,1,6.056,0,13,13,9,1,A2VR9O234UCT9T,10,ma_81993755-a_w_outline.jpg,ma_81993755-b_w_outline.jpg,50,f,A2VR9O234UCT9T,2020-11-12_09h21.39.303,MetaAwareness,2020.1.2,Win32,60,3UYRNV2KIU2L5ZMJ0WJYJCVOE87N8W,30ZX6P7VF9YHMER3VJN74XWR5C92JD,V6Z09,V6Z09,30ZX6P7VF9YHMER3VJN74XWR5C92JD,30ZX6P7VF9YHMER3VJN74XWR5C92JD,250969,250969,,,,
,,,,,,,,1,3.358,0,14,14,1,1,A2VR9O234UCT9T,2,ma_38546029-a_w_outline.jpg,ma_38546029-b_w_outline.jpg,50,f,A2VR9O234UCT9T,2020-11-12_09h21.39.303,MetaAwareness,2020.1.2,Win32,60,3UYRNV2KIU2L5ZMJ0WJYJCVOE87N8W,30ZX6P7VF9YHMER3VJN74XWR5C92JD,V6Z09,V6Z09,30ZX6P7VF9YHMER3VJN74XWR5C92JD,30ZX6P7VF9YHMER3VJN74XWR5C92JD,250969,250969,,,,
,,,,,,,,2,4.711,0,15,15,3,1,A2VR9O234UCT9T,4,ma_97475929-a_w_outline.jpg,ma_97475929-b_w_outline.jpg,50,f,A2VR9O234UCT9T,2020-11-12_09h21.39.303,MetaAwareness,2020.1.2,Win32,60,3UYRNV2KIU2L5ZMJ0WJYJCVOE87N8W,30ZX6P7VF9YHMER3VJN74XWR5C92JD,V6Z09,V6Z09,30ZX6P7VF9YHMER3VJN74XWR5C92JD,30ZX6P7VF9YHMER3VJN74XWR5C92JD,250969,250969,,,,
,,,,,,,,4,3.742,0,16,16,20,1,A2VR9O234UCT9T,21,ma_48384711-a_w_outline.jpg,ma_48384711-b_w_outline.jpg,50,f,A2VR9O234UCT9T,2020-11-12_09h21.39.303,MetaAwareness,2020.1.2,Win32,60,3UYRNV2KIU2L5ZMJ0WJYJCVOE87N8W,30ZX6P7VF9YHMER3VJN74XWR5C92JD,V6Z09,V6Z09,30ZX6P7VF9YHMER3VJN74XWR5C92JD,30ZX6P7VF9YHMER3VJN74XWR5C92JD,250969,250969,,,,
,,,,,,,,1,5.483,0,17,17,5,1,A2VR9O234UCT9T,6,ma_31236119-a_w_outline.jpg,ma_31236119-b_w_outline.jpg,50,f,A2VR9O234UCT9T,2020-11-12_09h21.39.303,MetaAwareness,2020.1.2,Win32,60,3UYRNV2KIU2L5ZMJ0WJYJCVOE87N8W,30ZX6P7VF9YHMER3VJN74XWR5C92JD,V6Z09,V6Z09,30ZX6P7VF9YHMER3VJN74XWR5C92JD,30ZX6P7VF9YHMER3VJN74XWR5C92JD,250969,250969,,,,
,,,,,,,,3,5.296,0,18,18,26,1,A2VR9O234UCT9T,27,ma_79241011-a_w_outline.jpg,ma_79241011-b_w_outline.jpg,50,f,A2VR9O234UCT9T,2020-11-12_09h21.39.303,MetaAwareness,2020.1.2,Win32,60,3UYRNV2KIU2L5ZMJ0WJYJCVOE87N8W,30ZX6P7VF9YHMER3VJN74XWR5C92JD,V6Z09,V6Z09,30ZX6P7VF9YHMER3VJN74XWR5C92JD,30ZX6P7VF9YHMER3VJN74XWR5C92JD,250969,250969,,,,
,,,,,,,,2,4.215,0,19,19,27,1,A2VR9O234UCT9T,28,ma_70687495-a_w_outline.jpg,ma_70687495-b_w_outline.jpg,50,f,A2VR9O234UCT9T,2020-11-12_09h21.39.303,MetaAwareness,2020.1.2,Win32,60,3UYRNV2KIU2L5ZMJ0WJYJCVOE87N8W,30ZX6P7VF9YHMER3VJN74XWR5C92JD,V6Z09,V6Z09,30ZX6P7VF9YHMER3VJN74XWR5C92JD,30ZX6P7VF9YHMER3VJN74XWR5C92JD,250969,250969,,,,
,,,,,,,,3,4.866,0,20,20,14,1,A2VR9O234UCT9T,15,ma_69128765-a_w_outline.jpg,ma_69128765-b_w_outline.jpg,50,f,A2VR9O234UCT9T,2020-11-12_09h21.39.303,MetaAwareness,2020.1.2,Win32,60,3UYRNV2KIU2L5ZMJ0WJYJCVOE87N8W,30ZX6P7VF9YHMER3VJN74XWR5C92JD,V6Z09,V6Z09,30ZX6P7VF9YHMER3VJN74XWR5C92JD,30ZX6P7VF9YHMER3VJN74XWR5C92JD,250969,250969,,,,
,,,,,,,,5,4.246,0,21,21,16,1,A2VR9O234UCT9T,17,ma_22020472-a_w_outline.jpg,ma_22020472-b_w_outline.jpg,50,f,A2VR9O234UCT9T,2020-11-12_09h21.39.303,MetaAwareness,2020.1.2,Win32,60,3UYRNV2KIU2L5ZMJ0WJYJCVOE87N8W,30ZX6P7VF9YHMER3VJN74XWR5C92JD,V6Z09,V6Z09,30ZX6P7VF9YHMER3VJN74XWR5C92JD,30ZX6P7VF9YHMER3VJN74XWR5C92JD,250969,250969,,,,
,,,,,,,,4,4.366,0,22,22,6,1,A2VR9O234UCT9T,7,ma_23024660-a_w_outline.jpg,ma_23024660-b_w_outline.jpg,50,f,A2VR9O234UCT9T,2020-11-12_09h21.39.303,MetaAwareness,2020.1.2,Win32,60,3UYRNV2KIU2L5ZMJ0WJYJCVOE87N8W,30ZX6P7VF9YHMER3VJN74XWR5C92JD,V6Z09,V6Z09,30ZX6P7VF9YHMER3VJN74XWR5C92JD,30ZX6P7VF9YHMER3VJN74XWR5C92JD,250969,250969,,,,
,,,,,,,,1,4.273,0,23,23,28,1,A2VR9O234UCT9T,29,ma_74173745-a_w_outline.jpg,ma_74173745-b_w_outline.jpg,50,f,A2VR9O234UCT9T,2020-11-12_09h21.39.303,MetaAwareness,2020.1.2,Win32,60,3UYRNV2KIU2L5ZMJ0WJYJCVOE87N8W,30ZX6P7VF9YHMER3VJN74XWR5C92JD,V6Z09,V6Z09,30ZX6P7VF9YHMER3VJN74XWR5C92JD,30ZX6P7VF9YHMER3VJN74XWR5C92JD,250969,250969,,,,
,,,,,,,,4,5.097,0,24,24,23,1,A2VR9O234UCT9T,24,ma_90405028-a_w_outline.jpg,ma_90405028-b_w_outline.jpg,50,f,A2VR9O234UCT9T,2020-11-12_09h21.39.303,MetaAwareness,2020.1.2,Win32,60,3UYRNV2KIU2L5ZMJ0WJYJCVOE87N8W,30ZX6P7VF9YHMER3VJN74XWR5C92JD,V6Z09,V6Z09,30ZX6P7VF9YHMER3VJN74XWR5C92JD,30ZX6P7VF9YHMER3VJN74XWR5C92JD,250969,250969,,,,
,,,,,,,,2,5.228,0,25,25,8,1,A2VR9O234UCT9T,9,ma_4247084-a_w_outline.jpg,ma_4247084-b_w_outline.jpg,50,f,A2VR9O234UCT9T,2020-11-12_09h21.39.303,MetaAwareness,2020.1.2,Win32,60,3UYRNV2KIU2L5ZMJ0WJYJCVOE87N8W,30ZX6P7VF9YHMER3VJN74XWR5C92JD,V6Z09,V6Z09,30ZX6P7VF9YHMER3VJN74XWR5C92JD,30ZX6P7VF9YHMER3VJN74XWR5C92JD,250969,250969,,,,
,,,,,,,,1,4.814,0,26,26,7,1,A2VR9O234UCT9T,8,ma_38466626-a_w_outline.jpg,ma_38466626-b_w_outline.jpg,50,f,A2VR9O234UCT9T,2020-11-12_09h21.39.303,MetaAwareness,2020.1.2,Win32,60,3UYRNV2KIU2L5ZMJ0WJYJCVOE87N8W,30ZX6P7VF9YHMER3VJN74XWR5C92JD,V6Z09,V6Z09,30ZX6P7VF9YHMER3VJN74XWR5C92JD,30ZX6P7VF9YHMER3VJN74XWR5C92JD,250969,250969,,,,
,,,,,,,,5,3.826,0,27,27,10,1,A2VR9O234UCT9T,11,ma_13141692-a_w_outline.jpg,ma_13141692-b_w_outline.jpg,50,f,A2VR9O234UCT9T,2020-11-12_09h21.39.303,MetaAwareness,2020.1.2,Win32,60,3UYRNV2KIU2L5ZMJ0WJYJCVOE87N8W,30ZX6P7VF9YHMER3VJN74XWR5C92JD,V6Z09,V6Z09,30ZX6P7VF9YHMER3VJN74XWR5C92JD,30ZX6P7VF9YHMER3VJN74XWR5C92JD,250969,250969,,,,
,,,,,,,,4,6.484,0,28,28,24,1,A2VR9O234UCT9T,25,ma_79191795-a_w_outline.jpg,ma_79191795-b_w_outline.jpg,50,f,A2VR9O234UCT9T,2020-11-12_09h21.39.303,MetaAwareness,2020.1.2,Win32,60,3UYRNV2KIU2L5ZMJ0WJYJCVOE87N8W,30ZX6P7VF9YHMER3VJN74XWR5C92JD,V6Z09,V6Z09,30ZX6P7VF9YHMER3VJN74XWR5C92JD,30ZX6P7VF9YHMER3VJN74XWR5C92JD,250969,250969,,,,
,,,,,,,,1,4.221,0,29,29,15,1,A2VR9O234UCT9T,16,ma_8197559-a_w_outline.jpg,ma_8197559-b_w_outline.jpg,50,f,A2VR9O234UCT9T,2020-11-12_09h21.39.303,MetaAwareness,2020.1.2,Win32,60,3UYRNV2KIU2L5ZMJ0WJYJCVOE87N8W,30ZX6P7VF9YHMER3VJN74XWR5C92JD,V6Z09,V6Z09,30ZX6P7VF9YHMER3VJN74XWR5C92JD,30ZX6P7VF9YHMER3VJN74XWR5C92JD,250969,250969,,,,
,,,,,,,,,,,,,,,A2VR9O234UCT9T,,,,50,f,A2VR9O234UCT9T,2020-11-12_09h21.39.303,MetaAwareness,2020.1.2,Win32,60,3UYRNV2KIU2L5ZMJ0WJYJCVOE87N8W,30ZX6P7VF9YHMER3VJN74XWR5C92JD,V6Z09,V6Z09,30ZX6P7VF9YHMER3VJN74XWR5C92JD,30ZX6P7VF9YHMER3VJN74XWR5C92JD,250969,250969,5,1.708,1,3.877
