consent_response.keys,consent_response.rt,key_resp_2.keys,key_resp_2.rt,Airplane_resp.keys,Airplane_resp.rt,Boat_resp.keys,Boat_resp.rt,user_resp.keys,user_resp.rt,trials.thisRepN,trials.thisTrialN,trials.thisN,trials.thisIndex,trials.ran,workerId,trial_num,image_a,image_b,age,gender (m/f),worker_ID,date,expName,psychopyVersion,OS,frameRate,hitId,assignmentId,a,tp_a,b,tp_b,c,tp_c,Cow_resp.keys,Cow_resp.rt,Garden_resp.keys,Garden_resp.rt
space,13.179625,space,1.10196,5,1.586805,5,1.05781,4,3.98152,0,0,0,23,1,A3493E42N1JZVF,24,ma_85741618-a_w_outline.jpg,ma_85741618-b_w_outline.jpg,29,m,A3493E42N1JZVF,2020-10-23_15h04.35.927,MetaAwareness,2020.1.2,Win32,60,3UYRNV2KIU2L5ZMJ0WJYJCVOE87N8W,34MAJL3QP5QG4E41WCE8H5C0QMX34V,QJM49,QJM49,34MAJL3QP5QG4E41WCE8H5C0QMX34V,34MAJL3QP5QG4E41WCE8H5C0QMX34V,250969,250969,,,,
,,,,,,,,4,4.669645,0,1,1,11,1,A3493E42N1JZVF,12,ma_77574131-a_w_outline.jpg,ma_77574131-b_w_outline.jpg,29,m,A3493E42N1JZVF,2020-10-23_15h04.35.927,MetaAwareness,2020.1.2,Win32,60,3UYRNV2KIU2L5ZMJ0WJYJCVOE87N8W,34MAJL3QP5QG4E41WCE8H5C0QMX34V,QJM49,QJM49,34MAJL3QP5QG4E41WCE8H5C0QMX34V,34MAJL3QP5QG4E41WCE8H5C0QMX34V,250969,250969,,,,
,,,,,,,,4,3.871055,0,2,2,14,1,A3493E42N1JZVF,15,ma_42429798-a_w_outline.jpg,ma_42429798-b_w_outline.jpg,29,m,A3493E42N1JZVF,2020-10-23_15h04.35.927,MetaAwareness,2020.1.2,Win32,60,3UYRNV2KIU2L5ZMJ0WJYJCVOE87N8W,34MAJL3QP5QG4E41WCE8H5C0QMX34V,QJM49,QJM49,34MAJL3QP5QG4E41WCE8H5C0QMX34V,34MAJL3QP5QG4E41WCE8H5C0QMX34V,250969,250969,,,,
,,,,,,,,4,4.171115,0,3,3,5,1,A3493E42N1JZVF,6,ma_56835136-a_w_outline.jpg,ma_56835136-b_w_outline.jpg,29,m,A3493E42N1JZVF,2020-10-23_15h04.35.927,MetaAwareness,2020.1.2,Win32,60,3UYRNV2KIU2L5ZMJ0WJYJCVOE87N8W,34MAJL3QP5QG4E41WCE8H5C0QMX34V,QJM49,QJM49,34MAJL3QP5QG4E41WCE8H5C0QMX34V,34MAJL3QP5QG4E41WCE8H5C0QMX34V,250969,250969,,,,
,,,,,,,,1,7.9538,0,4,4,1,1,A3493E42N1JZVF,2,ma_16527526-a_w_outline.jpg,ma_16527526-b_w_outline.jpg,29,m,A3493E42N1JZVF,2020-10-23_15h04.35.927,MetaAwareness,2020.1.2,Win32,60,3UYRNV2KIU2L5ZMJ0WJYJCVOE87N8W,34MAJL3QP5QG4E41WCE8H5C0QMX34V,QJM49,QJM49,34MAJL3QP5QG4E41WCE8H5C0QMX34V,34MAJL3QP5QG4E41WCE8H5C0QMX34V,250969,250969,,,,
,,,,,,,,2,6.30312,0,5,5,9,1,A3493E42N1JZVF,10,ma_44993860-a_w_outline.jpg,ma_44993860-b_w_outline.jpg,29,m,A3493E42N1JZVF,2020-10-23_15h04.35.927,MetaAwareness,2020.1.2,Win32,60,3UYRNV2KIU2L5ZMJ0WJYJCVOE87N8W,34MAJL3QP5QG4E41WCE8H5C0QMX34V,QJM49,QJM49,34MAJL3QP5QG4E41WCE8H5C0QMX34V,34MAJL3QP5QG4E41WCE8H5C0QMX34V,250969,250969,,,,
,,,,,,,,2,4.681225,0,6,6,18,1,A3493E42N1JZVF,19,ma_62096551-a_w_outline.jpg,ma_62096551-b_w_outline.jpg,29,m,A3493E42N1JZVF,2020-10-23_15h04.35.927,MetaAwareness,2020.1.2,Win32,60,3UYRNV2KIU2L5ZMJ0WJYJCVOE87N8W,34MAJL3QP5QG4E41WCE8H5C0QMX34V,QJM49,QJM49,34MAJL3QP5QG4E41WCE8H5C0QMX34V,34MAJL3QP5QG4E41WCE8H5C0QMX34V,250969,250969,,,,
,,,,,,,,3,7.136765,0,7,7,17,1,A3493E42N1JZVF,18,ma_77345858-a_w_outline.jpg,ma_77345858-b_w_outline.jpg,29,m,A3493E42N1JZVF,2020-10-23_15h04.35.927,MetaAwareness,2020.1.2,Win32,60,3UYRNV2KIU2L5ZMJ0WJYJCVOE87N8W,34MAJL3QP5QG4E41WCE8H5C0QMX34V,QJM49,QJM49,34MAJL3QP5QG4E41WCE8H5C0QMX34V,34MAJL3QP5QG4E41WCE8H5C0QMX34V,250969,250969,,,,
,,,,,,,,3,5.775805,0,8,8,27,1,A3493E42N1JZVF,28,ma_89354846-a_w_outline.jpg,ma_89354846-b_w_outline.jpg,29,m,A3493E42N1JZVF,2020-10-23_15h04.35.927,MetaAwareness,2020.1.2,Win32,60,3UYRNV2KIU2L5ZMJ0WJYJCVOE87N8W,34MAJL3QP5QG4E41WCE8H5C0QMX34V,QJM49,QJM49,34MAJL3QP5QG4E41WCE8H5C0QMX34V,34MAJL3QP5QG4E41WCE8H5C0QMX34V,250969,250969,,,,
,,,,,,,,2,5.92829,0,9,9,19,1,A3493E42N1JZVF,20,ma_86520382-a_w_outline.jpg,ma_86520382-b_w_outline.jpg,29,m,A3493E42N1JZVF,2020-10-23_15h04.35.927,MetaAwareness,2020.1.2,Win32,60,3UYRNV2KIU2L5ZMJ0WJYJCVOE87N8W,34MAJL3QP5QG4E41WCE8H5C0QMX34V,QJM49,QJM49,34MAJL3QP5QG4E41WCE8H5C0QMX34V,34MAJL3QP5QG4E41WCE8H5C0QMX34V,250969,250969,,,,
,,,,,,,,4,4.76345,0,10,10,13,1,A3493E42N1JZVF,14,ma_55174490-a_w_outline.jpg,ma_55174490-b_w_outline.jpg,29,m,A3493E42N1JZVF,2020-10-23_15h04.35.927,MetaAwareness,2020.1.2,Win32,60,3UYRNV2KIU2L5ZMJ0WJYJCVOE87N8W,34MAJL3QP5QG4E41WCE8H5C0QMX34V,QJM49,QJM49,34MAJL3QP5QG4E41WCE8H5C0QMX34V,34MAJL3QP5QG4E41WCE8H5C0QMX34V,250969,250969,,,,
,,,,,,,,4,4.89198,0,11,11,20,1,A3493E42N1JZVF,21,ma_77793328-a_w_outline.jpg,ma_77793328-b_w_outline.jpg,29,m,A3493E42N1JZVF,2020-10-23_15h04.35.927,MetaAwareness,2020.1.2,Win32,60,3UYRNV2KIU2L5ZMJ0WJYJCVOE87N8W,34MAJL3QP5QG4E41WCE8H5C0QMX34V,QJM49,QJM49,34MAJL3QP5QG4E41WCE8H5C0QMX34V,34MAJL3QP5QG4E41WCE8H5C0QMX34V,250969,250969,,,,
,,,,,,,,4,4.920495,0,12,12,12,1,A3493E42N1JZVF,13,ma_88767165-a_w_outline.jpg,ma_88767165-b_w_outline.jpg,29,m,A3493E42N1JZVF,2020-10-23_15h04.35.927,MetaAwareness,2020.1.2,Win32,60,3UYRNV2KIU2L5ZMJ0WJYJCVOE87N8W,34MAJL3QP5QG4E41WCE8H5C0QMX34V,QJM49,QJM49,34MAJL3QP5QG4E41WCE8H5C0QMX34V,34MAJL3QP5QG4E41WCE8H5C0QMX34V,250969,250969,,,,
,,,,,,,,3,5.33146,0,13,13,0,1,A3493E42N1JZVF,1,ma_10504629-a_w_outline.jpg,ma_10504629-b_w_outline.jpg,29,m,A3493E42N1JZVF,2020-10-23_15h04.35.927,MetaAwareness,2020.1.2,Win32,60,3UYRNV2KIU2L5ZMJ0WJYJCVOE87N8W,34MAJL3QP5QG4E41WCE8H5C0QMX34V,QJM49,QJM49,34MAJL3QP5QG4E41WCE8H5C0QMX34V,34MAJL3QP5QG4E41WCE8H5C0QMX34V,250969,250969,,,,
,,,,,,,,4,4.38909,0,14,14,8,1,A3493E42N1JZVF,9,ma_1383096-a_w_outline.jpg,ma_1383096-b_w_outline.jpg,29,m,A3493E42N1JZVF,2020-10-23_15h04.35.927,MetaAwareness,2020.1.2,Win32,60,3UYRNV2KIU2L5ZMJ0WJYJCVOE87N8W,34MAJL3QP5QG4E41WCE8H5C0QMX34V,QJM49,QJM49,34MAJL3QP5QG4E41WCE8H5C0QMX34V,34MAJL3QP5QG4E41WCE8H5C0QMX34V,250969,250969,,,,
,,,,,,,,4,4.245615,0,15,15,4,1,A3493E42N1JZVF,5,ma_72488522-a_w_outline.jpg,ma_72488522-b_w_outline.jpg,29,m,A3493E42N1JZVF,2020-10-23_15h04.35.927,MetaAwareness,2020.1.2,Win32,60,3UYRNV2KIU2L5ZMJ0WJYJCVOE87N8W,34MAJL3QP5QG4E41WCE8H5C0QMX34V,QJM49,QJM49,34MAJL3QP5QG4E41WCE8H5C0QMX34V,34MAJL3QP5QG4E41WCE8H5C0QMX34V,250969,250969,,,,
,,,,,,,,3,5.070505,0,16,16,29,1,A3493E42N1JZVF,30,ma_12115280-a_w_outline.jpg,ma_12115280-b_w_outline.jpg,29,m,A3493E42N1JZVF,2020-10-23_15h04.35.927,MetaAwareness,2020.1.2,Win32,60,3UYRNV2KIU2L5ZMJ0WJYJCVOE87N8W,34MAJL3QP5QG4E41WCE8H5C0QMX34V,QJM49,QJM49,34MAJL3QP5QG4E41WCE8H5C0QMX34V,34MAJL3QP5QG4E41WCE8H5C0QMX34V,250969,250969,,,,
,,,,,,,,4,4.603215,0,17,17,28,1,A3493E42N1JZVF,29,ma_87983207-a_w_outline.jpg,ma_87983207-b_w_outline.jpg,29,m,A3493E42N1JZVF,2020-10-23_15h04.35.927,MetaAwareness,2020.1.2,Win32,60,3UYRNV2KIU2L5ZMJ0WJYJCVOE87N8W,34MAJL3QP5QG4E41WCE8H5C0QMX34V,QJM49,QJM49,34MAJL3QP5QG4E41WCE8H5C0QMX34V,34MAJL3QP5QG4E41WCE8H5C0QMX34V,250969,250969,,,,
,,,,,,,,3,5.9553,0,18,18,16,1,A3493E42N1JZVF,17,ma_83536470-a_w_outline.jpg,ma_83536470-b_w_outline.jpg,29,m,A3493E42N1JZVF,2020-10-23_15h04.35.927,MetaAwareness,2020.1.2,Win32,60,3UYRNV2KIU2L5ZMJ0WJYJCVOE87N8W,34MAJL3QP5QG4E41WCE8H5C0QMX34V,QJM49,QJM49,34MAJL3QP5QG4E41WCE8H5C0QMX34V,34MAJL3QP5QG4E41WCE8H5C0QMX34V,250969,250969,,,,
,,,,,,,,1,5.200795,0,19,19,25,1,A3493E42N1JZVF,26,ma_13873251-a_w_outline.jpg,ma_13873251-b_w_outline.jpg,29,m,A3493E42N1JZVF,2020-10-23_15h04.35.927,MetaAwareness,2020.1.2,Win32,60,3UYRNV2KIU2L5ZMJ0WJYJCVOE87N8W,34MAJL3QP5QG4E41WCE8H5C0QMX34V,QJM49,QJM49,34MAJL3QP5QG4E41WCE8H5C0QMX34V,34MAJL3QP5QG4E41WCE8H5C0QMX34V,250969,250969,,,,
,,,,,,,,4,5.084565,0,20,20,21,1,A3493E42N1JZVF,22,ma_79222679-a_w_outline.jpg,ma_79222679-b_w_outline.jpg,29,m,A3493E42N1JZVF,2020-10-23_15h04.35.927,MetaAwareness,2020.1.2,Win32,60,3UYRNV2KIU2L5ZMJ0WJYJCVOE87N8W,34MAJL3QP5QG4E41WCE8H5C0QMX34V,QJM49,QJM49,34MAJL3QP5QG4E41WCE8H5C0QMX34V,34MAJL3QP5QG4E41WCE8H5C0QMX34V,250969,250969,,,,
,,,,,,,,3,6.284605,0,21,21,7,1,A3493E42N1JZVF,8,ma_98156944-a_w_outline.jpg,ma_98156944-b_w_outline.jpg,29,m,A3493E42N1JZVF,2020-10-23_15h04.35.927,MetaAwareness,2020.1.2,Win32,60,3UYRNV2KIU2L5ZMJ0WJYJCVOE87N8W,34MAJL3QP5QG4E41WCE8H5C0QMX34V,QJM49,QJM49,34MAJL3QP5QG4E41WCE8H5C0QMX34V,34MAJL3QP5QG4E41WCE8H5C0QMX34V,250969,250969,,,,
,,,,,,,,2,6.918275,0,22,22,26,1,A3493E42N1JZVF,27,ma_8974554-a_w_outline.jpg,ma_8974554-b_w_outline.jpg,29,m,A3493E42N1JZVF,2020-10-23_15h04.35.927,MetaAwareness,2020.1.2,Win32,60,3UYRNV2KIU2L5ZMJ0WJYJCVOE87N8W,34MAJL3QP5QG4E41WCE8H5C0QMX34V,QJM49,QJM49,34MAJL3QP5QG4E41WCE8H5C0QMX34V,34MAJL3QP5QG4E41WCE8H5C0QMX34V,250969,250969,,,,
,,,,,,,,3,3.484745,0,23,23,22,1,A3493E42N1JZVF,23,ma_79573638-a_w_outline.jpg,ma_79573638-b_w_outline.jpg,29,m,A3493E42N1JZVF,2020-10-23_15h04.35.927,MetaAwareness,2020.1.2,Win32,60,3UYRNV2KIU2L5ZMJ0WJYJCVOE87N8W,34MAJL3QP5QG4E41WCE8H5C0QMX34V,QJM49,QJM49,34MAJL3QP5QG4E41WCE8H5C0QMX34V,34MAJL3QP5QG4E41WCE8H5C0QMX34V,250969,250969,,,,
,,,,,,,,3,3.217995,0,24,24,3,1,A3493E42N1JZVF,4,ma_75081153-a_w_outline.jpg,ma_75081153-b_w_outline.jpg,29,m,A3493E42N1JZVF,2020-10-23_15h04.35.927,MetaAwareness,2020.1.2,Win32,60,3UYRNV2KIU2L5ZMJ0WJYJCVOE87N8W,34MAJL3QP5QG4E41WCE8H5C0QMX34V,QJM49,QJM49,34MAJL3QP5QG4E41WCE8H5C0QMX34V,34MAJL3QP5QG4E41WCE8H5C0QMX34V,250969,250969,,,,
,,,,,,,,4,4.118015,0,25,25,6,1,A3493E42N1JZVF,7,ma_67862299-a_w_outline.jpg,ma_67862299-b_w_outline.jpg,29,m,A3493E42N1JZVF,2020-10-23_15h04.35.927,MetaAwareness,2020.1.2,Win32,60,3UYRNV2KIU2L5ZMJ0WJYJCVOE87N8W,34MAJL3QP5QG4E41WCE8H5C0QMX34V,QJM49,QJM49,34MAJL3QP5QG4E41WCE8H5C0QMX34V,34MAJL3QP5QG4E41WCE8H5C0QMX34V,250969,250969,,,,
,,,,,,,,3,5.63424,0,26,26,15,1,A3493E42N1JZVF,16,ma_51537628-a_w_outline.jpg,ma_51537628-b_w_outline.jpg,29,m,A3493E42N1JZVF,2020-10-23_15h04.35.927,MetaAwareness,2020.1.2,Win32,60,3UYRNV2KIU2L5ZMJ0WJYJCVOE87N8W,34MAJL3QP5QG4E41WCE8H5C0QMX34V,QJM49,QJM49,34MAJL3QP5QG4E41WCE8H5C0QMX34V,34MAJL3QP5QG4E41WCE8H5C0QMX34V,250969,250969,,,,
,,,,,,,,4,3.00131,0,27,27,2,1,A3493E42N1JZVF,3,ma_18169626-a_w_outline.jpg,ma_18169626-b_w_outline.jpg,29,m,A3493E42N1JZVF,2020-10-23_15h04.35.927,MetaAwareness,2020.1.2,Win32,60,3UYRNV2KIU2L5ZMJ0WJYJCVOE87N8W,34MAJL3QP5QG4E41WCE8H5C0QMX34V,QJM49,QJM49,34MAJL3QP5QG4E41WCE8H5C0QMX34V,34MAJL3QP5QG4E41WCE8H5C0QMX34V,250969,250969,,,,
,,,,,,,,5,3.168,0,28,28,24,1,A3493E42N1JZVF,25,ma_3099758-a_w_outline.jpg,ma_3099758-b_w_outline.jpg,29,m,A3493E42N1JZVF,2020-10-23_15h04.35.927,MetaAwareness,2020.1.2,Win32,60,3UYRNV2KIU2L5ZMJ0WJYJCVOE87N8W,34MAJL3QP5QG4E41WCE8H5C0QMX34V,QJM49,QJM49,34MAJL3QP5QG4E41WCE8H5C0QMX34V,34MAJL3QP5QG4E41WCE8H5C0QMX34V,250969,250969,,,,
,,,,,,,,3,2.834795,0,29,29,10,1,A3493E42N1JZVF,11,ma_75958241-a_w_outline.jpg,ma_75958241-b_w_outline.jpg,29,m,A3493E42N1JZVF,2020-10-23_15h04.35.927,MetaAwareness,2020.1.2,Win32,60,3UYRNV2KIU2L5ZMJ0WJYJCVOE87N8W,34MAJL3QP5QG4E41WCE8H5C0QMX34V,QJM49,QJM49,34MAJL3QP5QG4E41WCE8H5C0QMX34V,34MAJL3QP5QG4E41WCE8H5C0QMX34V,250969,250969,,,,
,,,,,,,,,,,,,,,A3493E42N1JZVF,,,,29,m,A3493E42N1JZVF,2020-10-23_15h04.35.927,MetaAwareness,2020.1.2,Win32,60,3UYRNV2KIU2L5ZMJ0WJYJCVOE87N8W,34MAJL3QP5QG4E41WCE8H5C0QMX34V,QJM49,QJM49,34MAJL3QP5QG4E41WCE8H5C0QMX34V,34MAJL3QP5QG4E41WCE8H5C0QMX34V,250969,250969,5,1.54514,2,4.082325
