consent_response.keys,consent_response.rt,key_resp_2.keys,key_resp_2.rt,Airplane_resp.keys,Airplane_resp.rt,Boat_resp.keys,Boat_resp.rt,user_resp.keys,user_resp.rt,trials.thisRepN,trials.thisTrialN,trials.thisN,trials.thisIndex,trials.ran,workerId,trial_num,image_a,image_b,age,gender (m/f),worker_ID,date,expName,psychopyVersion,OS,frameRate,hitId,assignmentId,a,tp_a,b,tp_b,c,tp_c,Cow_resp.keys,Cow_resp.rt,Garden_resp.keys,Garden_resp.rt
space,11.778,space,3.509,5,4.363,5,1.261,1,3.45,0,0,0,18,1,A397QMUM40C4SH,19,ma_74173745-a_w_outline.jpg,ma_74173745-b_w_outline.jpg,26,f,A397QMUM40C4SH,2020-11-02_09h58.21.423,MetaAwareness,2020.1.2,Win32,60,3UYRNV2KIU2L5ZMJ0WJYJCVOE87N8W,33C7UALJVM1LDCDOLBQ2AOD8VBD18H,JUC39,JUC39,33C7UALJVM1LDCDOLBQ2AOD8VBD18H,33C7UALJVM1LDCDOLBQ2AOD8VBD18H,250969,250969,,,,
,,,,,,,,2,2.995,0,1,1,3,1,A397QMUM40C4SH,4,ma_75081153-a_w_outline.jpg,ma_75081153-b_w_outline.jpg,26,f,A397QMUM40C4SH,2020-11-02_09h58.21.423,MetaAwareness,2020.1.2,Win32,60,3UYRNV2KIU2L5ZMJ0WJYJCVOE87N8W,33C7UALJVM1LDCDOLBQ2AOD8VBD18H,JUC39,JUC39,33C7UALJVM1LDCDOLBQ2AOD8VBD18H,33C7UALJVM1LDCDOLBQ2AOD8VBD18H,250969,250969,,,,
,,,,,,,,1,3.563,0,2,2,19,1,A397QMUM40C4SH,20,ma_79191795-a_w_outline.jpg,ma_79191795-b_w_outline.jpg,26,f,A397QMUM40C4SH,2020-11-02_09h58.21.423,MetaAwareness,2020.1.2,Win32,60,3UYRNV2KIU2L5ZMJ0WJYJCVOE87N8W,33C7UALJVM1LDCDOLBQ2AOD8VBD18H,JUC39,JUC39,33C7UALJVM1LDCDOLBQ2AOD8VBD18H,33C7UALJVM1LDCDOLBQ2AOD8VBD18H,250969,250969,,,,
,,,,,,,,5,3.272,0,3,3,5,1,A397QMUM40C4SH,6,ma_3099758-a_w_outline.jpg,ma_3099758-b_w_outline.jpg,26,f,A397QMUM40C4SH,2020-11-02_09h58.21.423,MetaAwareness,2020.1.2,Win32,60,3UYRNV2KIU2L5ZMJ0WJYJCVOE87N8W,33C7UALJVM1LDCDOLBQ2AOD8VBD18H,JUC39,JUC39,33C7UALJVM1LDCDOLBQ2AOD8VBD18H,33C7UALJVM1LDCDOLBQ2AOD8VBD18H,250969,250969,,,,
,,,,,,,,1,4.026,0,4,4,15,1,A397QMUM40C4SH,16,ma_27857618-a_w_outline.jpg,ma_27857618-b_w_outline.jpg,26,f,A397QMUM40C4SH,2020-11-02_09h58.21.423,MetaAwareness,2020.1.2,Win32,60,3UYRNV2KIU2L5ZMJ0WJYJCVOE87N8W,33C7UALJVM1LDCDOLBQ2AOD8VBD18H,JUC39,JUC39,33C7UALJVM1LDCDOLBQ2AOD8VBD18H,33C7UALJVM1LDCDOLBQ2AOD8VBD18H,250969,250969,,,,
,,,,,,,,1,4.011,0,5,5,29,1,A397QMUM40C4SH,30,ma_10504629-a_w_outline.jpg,ma_10504629-b_w_outline.jpg,26,f,A397QMUM40C4SH,2020-11-02_09h58.21.423,MetaAwareness,2020.1.2,Win32,60,3UYRNV2KIU2L5ZMJ0WJYJCVOE87N8W,33C7UALJVM1LDCDOLBQ2AOD8VBD18H,JUC39,JUC39,33C7UALJVM1LDCDOLBQ2AOD8VBD18H,33C7UALJVM1LDCDOLBQ2AOD8VBD18H,250969,250969,,,,
,,,,,,,,1,2.912,0,6,6,8,1,A397QMUM40C4SH,9,ma_98265889-a_w_outline.jpg,ma_98265889-b_w_outline.jpg,26,f,A397QMUM40C4SH,2020-11-02_09h58.21.423,MetaAwareness,2020.1.2,Win32,60,3UYRNV2KIU2L5ZMJ0WJYJCVOE87N8W,33C7UALJVM1LDCDOLBQ2AOD8VBD18H,JUC39,JUC39,33C7UALJVM1LDCDOLBQ2AOD8VBD18H,33C7UALJVM1LDCDOLBQ2AOD8VBD18H,250969,250969,,,,
,,,,,,,,5,3.24,0,7,7,0,1,A397QMUM40C4SH,1,ma_85741618-a_w_outline.jpg,ma_85741618-b_w_outline.jpg,26,f,A397QMUM40C4SH,2020-11-02_09h58.21.423,MetaAwareness,2020.1.2,Win32,60,3UYRNV2KIU2L5ZMJ0WJYJCVOE87N8W,33C7UALJVM1LDCDOLBQ2AOD8VBD18H,JUC39,JUC39,33C7UALJVM1LDCDOLBQ2AOD8VBD18H,33C7UALJVM1LDCDOLBQ2AOD8VBD18H,250969,250969,,,,
,,,,,,,,2,3.207,0,8,8,7,1,A397QMUM40C4SH,8,ma_69128765-a_w_outline.jpg,ma_69128765-b_w_outline.jpg,26,f,A397QMUM40C4SH,2020-11-02_09h58.21.423,MetaAwareness,2020.1.2,Win32,60,3UYRNV2KIU2L5ZMJ0WJYJCVOE87N8W,33C7UALJVM1LDCDOLBQ2AOD8VBD18H,JUC39,JUC39,33C7UALJVM1LDCDOLBQ2AOD8VBD18H,33C7UALJVM1LDCDOLBQ2AOD8VBD18H,250969,250969,,,,
,,,,,,,,1,3.389,0,9,9,16,1,A397QMUM40C4SH,17,ma_13873251-a_w_outline.jpg,ma_13873251-b_w_outline.jpg,26,f,A397QMUM40C4SH,2020-11-02_09h58.21.423,MetaAwareness,2020.1.2,Win32,60,3UYRNV2KIU2L5ZMJ0WJYJCVOE87N8W,33C7UALJVM1LDCDOLBQ2AOD8VBD18H,JUC39,JUC39,33C7UALJVM1LDCDOLBQ2AOD8VBD18H,33C7UALJVM1LDCDOLBQ2AOD8VBD18H,250969,250969,,,,
,,,,,,,,1,2.84,0,10,10,11,1,A397QMUM40C4SH,12,ma_62096551-a_w_outline.jpg,ma_62096551-b_w_outline.jpg,26,f,A397QMUM40C4SH,2020-11-02_09h58.21.423,MetaAwareness,2020.1.2,Win32,60,3UYRNV2KIU2L5ZMJ0WJYJCVOE87N8W,33C7UALJVM1LDCDOLBQ2AOD8VBD18H,JUC39,JUC39,33C7UALJVM1LDCDOLBQ2AOD8VBD18H,33C7UALJVM1LDCDOLBQ2AOD8VBD18H,250969,250969,,,,
,,,,,,,,1,2.91,0,11,11,20,1,A397QMUM40C4SH,21,ma_48486405-a_w_outline.jpg,ma_48486405-b_w_outline.jpg,26,f,A397QMUM40C4SH,2020-11-02_09h58.21.423,MetaAwareness,2020.1.2,Win32,60,3UYRNV2KIU2L5ZMJ0WJYJCVOE87N8W,33C7UALJVM1LDCDOLBQ2AOD8VBD18H,JUC39,JUC39,33C7UALJVM1LDCDOLBQ2AOD8VBD18H,33C7UALJVM1LDCDOLBQ2AOD8VBD18H,250969,250969,,,,
,,,,,,,,4,2.644,0,12,12,23,1,A397QMUM40C4SH,24,ma_48384711-a_w_outline.jpg,ma_48384711-b_w_outline.jpg,26,f,A397QMUM40C4SH,2020-11-02_09h58.21.423,MetaAwareness,2020.1.2,Win32,60,3UYRNV2KIU2L5ZMJ0WJYJCVOE87N8W,33C7UALJVM1LDCDOLBQ2AOD8VBD18H,JUC39,JUC39,33C7UALJVM1LDCDOLBQ2AOD8VBD18H,33C7UALJVM1LDCDOLBQ2AOD8VBD18H,250969,250969,,,,
,,,,,,,,3,4.631,0,13,13,28,1,A397QMUM40C4SH,29,ma_77793328-a_w_outline.jpg,ma_77793328-b_w_outline.jpg,26,f,A397QMUM40C4SH,2020-11-02_09h58.21.423,MetaAwareness,2020.1.2,Win32,60,3UYRNV2KIU2L5ZMJ0WJYJCVOE87N8W,33C7UALJVM1LDCDOLBQ2AOD8VBD18H,JUC39,JUC39,33C7UALJVM1LDCDOLBQ2AOD8VBD18H,33C7UALJVM1LDCDOLBQ2AOD8VBD18H,250969,250969,,,,
,,,,,,,,1,2.907,0,14,14,24,1,A397QMUM40C4SH,25,ma_81993755-a_w_outline.jpg,ma_81993755-b_w_outline.jpg,26,f,A397QMUM40C4SH,2020-11-02_09h58.21.423,MetaAwareness,2020.1.2,Win32,60,3UYRNV2KIU2L5ZMJ0WJYJCVOE87N8W,33C7UALJVM1LDCDOLBQ2AOD8VBD18H,JUC39,JUC39,33C7UALJVM1LDCDOLBQ2AOD8VBD18H,33C7UALJVM1LDCDOLBQ2AOD8VBD18H,250969,250969,,,,
,,,,,,,,1,2.304,0,15,15,13,1,A397QMUM40C4SH,14,ma_38466626-a_w_outline.jpg,ma_38466626-b_w_outline.jpg,26,f,A397QMUM40C4SH,2020-11-02_09h58.21.423,MetaAwareness,2020.1.2,Win32,60,3UYRNV2KIU2L5ZMJ0WJYJCVOE87N8W,33C7UALJVM1LDCDOLBQ2AOD8VBD18H,JUC39,JUC39,33C7UALJVM1LDCDOLBQ2AOD8VBD18H,33C7UALJVM1LDCDOLBQ2AOD8VBD18H,250969,250969,,,,
,,,,,,,,4,3.355,0,16,16,4,1,A397QMUM40C4SH,5,ma_55174490-a_w_outline.jpg,ma_55174490-b_w_outline.jpg,26,f,A397QMUM40C4SH,2020-11-02_09h58.21.423,MetaAwareness,2020.1.2,Win32,60,3UYRNV2KIU2L5ZMJ0WJYJCVOE87N8W,33C7UALJVM1LDCDOLBQ2AOD8VBD18H,JUC39,JUC39,33C7UALJVM1LDCDOLBQ2AOD8VBD18H,33C7UALJVM1LDCDOLBQ2AOD8VBD18H,250969,250969,,,,
,,,,,,,,5,3.01,0,17,17,12,1,A397QMUM40C4SH,13,ma_62224663-a_w_outline.jpg,ma_62224663-b_w_outline.jpg,26,f,A397QMUM40C4SH,2020-11-02_09h58.21.423,MetaAwareness,2020.1.2,Win32,60,3UYRNV2KIU2L5ZMJ0WJYJCVOE87N8W,33C7UALJVM1LDCDOLBQ2AOD8VBD18H,JUC39,JUC39,33C7UALJVM1LDCDOLBQ2AOD8VBD18H,33C7UALJVM1LDCDOLBQ2AOD8VBD18H,250969,250969,,,,
,,,,,,,,1,2.875,0,18,18,2,1,A397QMUM40C4SH,3,ma_51537628-a_w_outline.jpg,ma_51537628-b_w_outline.jpg,26,f,A397QMUM40C4SH,2020-11-02_09h58.21.423,MetaAwareness,2020.1.2,Win32,60,3UYRNV2KIU2L5ZMJ0WJYJCVOE87N8W,33C7UALJVM1LDCDOLBQ2AOD8VBD18H,JUC39,JUC39,33C7UALJVM1LDCDOLBQ2AOD8VBD18H,33C7UALJVM1LDCDOLBQ2AOD8VBD18H,250969,250969,,,,
,,,,,,,,4,3.157,0,19,19,14,1,A397QMUM40C4SH,15,ma_73637203-a_w_outline.jpg,ma_73637203-b_w_outline.jpg,26,f,A397QMUM40C4SH,2020-11-02_09h58.21.423,MetaAwareness,2020.1.2,Win32,60,3UYRNV2KIU2L5ZMJ0WJYJCVOE87N8W,33C7UALJVM1LDCDOLBQ2AOD8VBD18H,JUC39,JUC39,33C7UALJVM1LDCDOLBQ2AOD8VBD18H,33C7UALJVM1LDCDOLBQ2AOD8VBD18H,250969,250969,,,,
,,,,,,,,1,2.707,0,20,20,27,1,A397QMUM40C4SH,28,ma_38546029-a_w_outline.jpg,ma_38546029-b_w_outline.jpg,26,f,A397QMUM40C4SH,2020-11-02_09h58.21.423,MetaAwareness,2020.1.2,Win32,60,3UYRNV2KIU2L5ZMJ0WJYJCVOE87N8W,33C7UALJVM1LDCDOLBQ2AOD8VBD18H,JUC39,JUC39,33C7UALJVM1LDCDOLBQ2AOD8VBD18H,33C7UALJVM1LDCDOLBQ2AOD8VBD18H,250969,250969,,,,
,,,,,,,,1,2.125,0,21,21,1,1,A397QMUM40C4SH,2,ma_8197559-a_w_outline.jpg,ma_8197559-b_w_outline.jpg,26,f,A397QMUM40C4SH,2020-11-02_09h58.21.423,MetaAwareness,2020.1.2,Win32,60,3UYRNV2KIU2L5ZMJ0WJYJCVOE87N8W,33C7UALJVM1LDCDOLBQ2AOD8VBD18H,JUC39,JUC39,33C7UALJVM1LDCDOLBQ2AOD8VBD18H,33C7UALJVM1LDCDOLBQ2AOD8VBD18H,250969,250969,,,,
,,,,,,,,3,3.206,0,22,22,26,1,A397QMUM40C4SH,27,ma_90405028-a_w_outline.jpg,ma_90405028-b_w_outline.jpg,26,f,A397QMUM40C4SH,2020-11-02_09h58.21.423,MetaAwareness,2020.1.2,Win32,60,3UYRNV2KIU2L5ZMJ0WJYJCVOE87N8W,33C7UALJVM1LDCDOLBQ2AOD8VBD18H,JUC39,JUC39,33C7UALJVM1LDCDOLBQ2AOD8VBD18H,33C7UALJVM1LDCDOLBQ2AOD8VBD18H,250969,250969,,,,
,,,,,,,,5,2.754,0,23,23,25,1,A397QMUM40C4SH,26,ma_1191801-a_w_outline.jpg,ma_1191801-b_w_outline.jpg,26,f,A397QMUM40C4SH,2020-11-02_09h58.21.423,MetaAwareness,2020.1.2,Win32,60,3UYRNV2KIU2L5ZMJ0WJYJCVOE87N8W,33C7UALJVM1LDCDOLBQ2AOD8VBD18H,JUC39,JUC39,33C7UALJVM1LDCDOLBQ2AOD8VBD18H,33C7UALJVM1LDCDOLBQ2AOD8VBD18H,250969,250969,,,,
,,,,,,,,2,2.593,0,24,24,22,1,A397QMUM40C4SH,23,ma_83691215-a_w_outline.jpg,ma_83691215-b_w_outline.jpg,26,f,A397QMUM40C4SH,2020-11-02_09h58.21.423,MetaAwareness,2020.1.2,Win32,60,3UYRNV2KIU2L5ZMJ0WJYJCVOE87N8W,33C7UALJVM1LDCDOLBQ2AOD8VBD18H,JUC39,JUC39,33C7UALJVM1LDCDOLBQ2AOD8VBD18H,33C7UALJVM1LDCDOLBQ2AOD8VBD18H,250969,250969,,,,
,,,,,,,,3,2.774,0,25,25,10,1,A397QMUM40C4SH,11,ma_24383097-a_w_outline.jpg,ma_24383097-b_w_outline.jpg,26,f,A397QMUM40C4SH,2020-11-02_09h58.21.423,MetaAwareness,2020.1.2,Win32,60,3UYRNV2KIU2L5ZMJ0WJYJCVOE87N8W,33C7UALJVM1LDCDOLBQ2AOD8VBD18H,JUC39,JUC39,33C7UALJVM1LDCDOLBQ2AOD8VBD18H,33C7UALJVM1LDCDOLBQ2AOD8VBD18H,250969,250969,,,,
,,,,,,,,2,3.324,0,26,26,6,1,A397QMUM40C4SH,7,ma_77345858-a_w_outline.jpg,ma_77345858-b_w_outline.jpg,26,f,A397QMUM40C4SH,2020-11-02_09h58.21.423,MetaAwareness,2020.1.2,Win32,60,3UYRNV2KIU2L5ZMJ0WJYJCVOE87N8W,33C7UALJVM1LDCDOLBQ2AOD8VBD18H,JUC39,JUC39,33C7UALJVM1LDCDOLBQ2AOD8VBD18H,33C7UALJVM1LDCDOLBQ2AOD8VBD18H,250969,250969,,,,
,,,,,,,,2,3.716,0,27,27,9,1,A397QMUM40C4SH,10,ma_67862299-a_w_outline.jpg,ma_67862299-b_w_outline.jpg,26,f,A397QMUM40C4SH,2020-11-02_09h58.21.423,MetaAwareness,2020.1.2,Win32,60,3UYRNV2KIU2L5ZMJ0WJYJCVOE87N8W,33C7UALJVM1LDCDOLBQ2AOD8VBD18H,JUC39,JUC39,33C7UALJVM1LDCDOLBQ2AOD8VBD18H,33C7UALJVM1LDCDOLBQ2AOD8VBD18H,250969,250969,,,,
,,,,,,,,3,4.193,0,28,28,21,1,A397QMUM40C4SH,22,ma_23024660-a_w_outline.jpg,ma_23024660-b_w_outline.jpg,26,f,A397QMUM40C4SH,2020-11-02_09h58.21.423,MetaAwareness,2020.1.2,Win32,60,3UYRNV2KIU2L5ZMJ0WJYJCVOE87N8W,33C7UALJVM1LDCDOLBQ2AOD8VBD18H,JUC39,JUC39,33C7UALJVM1LDCDOLBQ2AOD8VBD18H,33C7UALJVM1LDCDOLBQ2AOD8VBD18H,250969,250969,,,,
,,,,,,,,4,3.124,0,29,29,17,1,A397QMUM40C4SH,18,ma_83785171-a_w_outline.jpg,ma_83785171-b_w_outline.jpg,26,f,A397QMUM40C4SH,2020-11-02_09h58.21.423,MetaAwareness,2020.1.2,Win32,60,3UYRNV2KIU2L5ZMJ0WJYJCVOE87N8W,33C7UALJVM1LDCDOLBQ2AOD8VBD18H,JUC39,JUC39,33C7UALJVM1LDCDOLBQ2AOD8VBD18H,33C7UALJVM1LDCDOLBQ2AOD8VBD18H,250969,250969,,,,
,,,,,,,,,,,,,,,A397QMUM40C4SH,,,,26,f,A397QMUM40C4SH,2020-11-02_09h58.21.423,MetaAwareness,2020.1.2,Win32,60,3UYRNV2KIU2L5ZMJ0WJYJCVOE87N8W,33C7UALJVM1LDCDOLBQ2AOD8VBD18H,JUC39,JUC39,33C7UALJVM1LDCDOLBQ2AOD8VBD18H,33C7UALJVM1LDCDOLBQ2AOD8VBD18H,250969,250969,5,1.187,1,3.097
