workerId,assignmentId,hitId,unmod_image,unmod_image_splash,mod_image,mod_image_splash,expTimer,response,trial_number,rt,x,y
A1F561VBW2J4PO,NA,NA,wolfe_045_L_musicdock-a,wolfe_045_L_musicdock-as,wolfe_045_L_musicdock-b,wolfe_045_L_musicdock-bs,75.573,-1,6,5820,233,271
A1F561VBW2J4PO,NA,NA,catchBoat-a,catchBoat-as,catchBoat-b,catchBoat-bs,75.566,-1,2,4723,233,271
A1F561VBW2J4PO,NA,NA,wolfe_036_L_bowl-a,wolfe_036_L_bowl-as,wolfe_036_L_bowl-b,wolfe_036_L_bowl-bs,75.572,-1,5,5563,233,271
A1F561VBW2J4PO,NA,NA,wolfe_052_L_speaker-a,wolfe_052_L_speaker-as,wolfe_052_L_speaker-b,wolfe_052_L_speaker-bs,75.57,-1,4,5330,233,271
A1F561VBW2J4PO,NA,NA,catchAirplane-a,catchAirplane-as,catchAirplane-b,catchAirplane-bs,75.561,-1,1,4185,233,271
A1F561VBW2J4PO,NA,NA,wolfe_076_L_hook-a,wolfe_076_L_hook-as,wolfe_076_L_hook-b,wolfe_076_L_hook-bs,75.568,-1,3,4954,233,271
A1F561VBW2J4PO,NA,NA,wolfe_107_L_shirts-a,wolfe_107_L_shirts-as,wolfe_107_L_shirts-b,wolfe_107_L_shirts-bs,75.575,-1,7,6039,233,271
A1F561VBW2J4PO,NA,NA,wolfe_051_L_owl-a,wolfe_051_L_owl-as,wolfe_051_L_owl-b,wolfe_051_L_owl-bs,75.577,-1,8,6314,233,271
A1F561VBW2J4PO,NA,NA,wolfe_061_L_glass-a,wolfe_061_L_glass-as,wolfe_061_L_glass-b,wolfe_061_L_glass-bs,75.578,-1,9,6625,233,271
A1F561VBW2J4PO,NA,NA,wolfe_100_L_mirror-a,wolfe_100_L_mirror-as,wolfe_100_L_mirror-b,wolfe_100_L_mirror-bs,75.582,-1,11,7105,233,271
A1F561VBW2J4PO,NA,NA,wolfe_092_L_candles-a,wolfe_092_L_candles-as,wolfe_092_L_candles-b,wolfe_092_L_candles-bs,75.58,-1,10,6967,233,271
A1F561VBW2J4PO,NA,NA,wolfe_093_L_switch-a,wolfe_093_L_switch-as,wolfe_093_L_switch-b,wolfe_093_L_switch-bs,75.584,-1,12,7532,233,271
A1F561VBW2J4PO,NA,NA,wolfe_040_L_painting-a,wolfe_040_L_painting-as,wolfe_040_L_painting-b,wolfe_040_L_painting-bs,75.586,-1,13,7829,233,271
A1F561VBW2J4PO,NA,NA,wolfe_003_L_ducks-a,wolfe_003_L_ducks-as,wolfe_003_L_ducks-b,wolfe_003_L_ducks-bs,75.587,-1,14,8096,233,271
A1F561VBW2J4PO,NA,NA,wolfe_079_L_bowl-a,wolfe_079_L_bowl-as,wolfe_079_L_bowl-b,wolfe_079_L_bowl-bs,75.589,-1,15,8298,233,271
A1F561VBW2J4PO,NA,NA,wolfe_012_L_tubaccesory-a,wolfe_012_L_tubaccesory-as,wolfe_012_L_tubaccesory-b,wolfe_012_L_tubaccesory-bs,75.591,-1,16,8515,233,271
A1F561VBW2J4PO,NA,NA,wolfe_029_L_glass-a,wolfe_029_L_glass-as,wolfe_029_L_glass-b,wolfe_029_L_glass-bs,75.597,-1,18,20266,233,271
A1F561VBW2J4PO,NA,NA,wolfe_027_L_soapdish-a,wolfe_027_L_soapdish-as,wolfe_027_L_soapdish-b,wolfe_027_L_soapdish-bs,75.595,-1,17,15537,233,271
A1F561VBW2J4PO,NA,NA,wolfe_013_L_lamp-a,wolfe_013_L_lamp-as,wolfe_013_L_lamp-b,wolfe_013_L_lamp-bs,75.598,-1,19,20922,233,271
A1F561VBW2J4PO,NA,NA,wolfe_068_L_faucet-a,wolfe_068_L_faucet-as,wolfe_068_L_faucet-b,wolfe_068_L_faucet-bs,75.6,-1,20,21142,233,271
A1F561VBW2J4PO,NA,NA,wolfe_102_L_shoppingbag-a,wolfe_102_L_shoppingbag-as,wolfe_102_L_shoppingbag-b,wolfe_102_L_shoppingbag-bs,75.602,-1,21,21495,233,271
A1F561VBW2J4PO,NA,NA,wolfe_018_L_plant-a,wolfe_018_L_plant-as,wolfe_018_L_plant-b,wolfe_018_L_plant-bs,75.603,-1,22,22066,233,271
A1F561VBW2J4PO,NA,NA,wolfe_056_L_comforter-a,wolfe_056_L_comforter-as,wolfe_056_L_comforter-b,wolfe_056_L_comforter-bs,169.353,-1,23,60000,334,410
A1F561VBW2J4PO,NA,NA,wolfe_033_L_vase-a,wolfe_033_L_vase-as,wolfe_033_L_vase-b,wolfe_033_L_vase-bs,255.145,-1,24,60000,381,257
A1F561VBW2J4PO,NA,NA,wolfe_054_L_firewood-a,wolfe_054_L_firewood-as,wolfe_054_L_firewood-b,wolfe_054_L_firewood-bs,326.445,-1,25,60000,358,119
A1F561VBW2J4PO,NA,NA,wolfe_046_L_remote-a,wolfe_046_L_remote-as,wolfe_046_L_remote-b,wolfe_046_L_remote-bs,333.431,-1,27,5612,320,296
A1F561VBW2J4PO,NA,NA,wolfe_058_L_clutch-a,wolfe_058_L_clutch-as,wolfe_058_L_clutch-b,wolfe_058_L_clutch-bs,333.444,-1,31,6626,320,296
A1F561VBW2J4PO,NA,NA,wolfe_108_L_boa-a,wolfe_108_L_boa-as,wolfe_108_L_boa-b,wolfe_108_L_boa-bs,333.433,-1,28,5899,320,296
A1F561VBW2J4PO,NA,NA,wolfe_037_L_towel-a,wolfe_037_L_towel-as,wolfe_037_L_towel-b,wolfe_037_L_towel-bs,333.438,-1,29,6154,320,296
A1F561VBW2J4PO,NA,NA,wolfe_034_L_handle-a,wolfe_034_L_handle-as,wolfe_034_L_handle-b,wolfe_034_L_handle-bs,333.427,-1,26,5535,320,296
A1F561VBW2J4PO,NA,NA,wolfe_028_L_vase-a,wolfe_028_L_vase-as,wolfe_028_L_vase-b,wolfe_028_L_vase-bs,333.441,-1,30,6377,320,296
A1F561VBW2J4PO,NA,NA,wolfe_078_L_faucet-a,wolfe_078_L_faucet-as,wolfe_078_L_faucet-b,wolfe_078_L_faucet-bs,333.446,-1,32,6883,320,296
A1F561VBW2J4PO,NA,NA,catchCow-a,catchCow-as,catchCow-b,catchCow-bs,340.418,-1,33,4277,427,289
