workerId,assignmentId,hitId,unmod_image,unmod_image_splash,mod_image,mod_image_splash,expTimer,response,trial_number,rt,x,y
A1LB8HVSXK66U0,NA,NA,catchAirplane-a,catchAirplane-as,catchAirplane-b,catchAirplane-bs,18.194,-1,1,6759,297,239
A1LB8HVSXK66U0,NA,NA,catchBoat-a,catchBoat-as,catchBoat-b,catchBoat-bs,25.914,-1,2,6654,373,262
A1LB8HVSXK66U0,NA,NA,wolfe_072_L_handle-a,wolfe_072_L_handle-as,wolfe_072_L_handle-b,wolfe_072_L_handle-bs,34.426,-1,3,7575,502,167
A1LB8HVSXK66U0,NA,NA,wolfe_056_L_comforter-a,wolfe_056_L_comforter-as,wolfe_056_L_comforter-b,wolfe_056_L_comforter-bs,42.698,-1,4,7856,371,375
A1LB8HVSXK66U0,NA,NA,wolfe_026_L_rack-a,wolfe_026_L_rack-as,wolfe_026_L_rack-b,wolfe_026_L_rack-bs,51.114,-1,5,7449,507,162
A1LB8HVSXK66U0,NA,NA,wolfe_108_L_boa-a,wolfe_108_L_boa-as,wolfe_108_L_boa-b,wolfe_108_L_boa-bs,51.115,-1,6,8138,507,162
A1LB8HVSXK66U0,NA,NA,wolfe_015_L_ceilinglight-a,wolfe_015_L_ceilinglight-as,wolfe_015_L_ceilinglight-b,wolfe_015_L_ceilinglight-bs,58.722,-1,7,7058,125,91
A1LB8HVSXK66U0,NA,NA,wolfe_065_L_cd-a,wolfe_065_L_cd-as,wolfe_065_L_cd-b,wolfe_065_L_cd-bs,66.346,-1,8,7220,186,290
A1LB8HVSXK66U0,NA,NA,wolfe_114_L_bird-a,wolfe_114_L_bird-as,wolfe_114_L_bird-b,wolfe_114_L_bird-bs,73.786,-1,9,7021,283,325
A1LB8HVSXK66U0,NA,NA,wolfe_102_L_shoppingbag-a,wolfe_102_L_shoppingbag-as,wolfe_102_L_shoppingbag-b,wolfe_102_L_shoppingbag-bs,81.282,-1,10,6902,210,166
A1LB8HVSXK66U0,NA,NA,wolfe_092_L_candles-a,wolfe_092_L_candles-as,wolfe_092_L_candles-b,wolfe_092_L_candles-bs,88.579,-1,11,6655,33,445
A1LB8HVSXK66U0,NA,NA,wolfe_120_L_art-a,wolfe_120_L_art-as,wolfe_120_L_art-b,wolfe_120_L_art-bs,97.699,-1,12,6687,498,157
A1LB8HVSXK66U0,NA,NA,wolfe_070_L_lamp-a,wolfe_070_L_lamp-as,wolfe_070_L_lamp-b,wolfe_070_L_lamp-bs,104.987,-1,13,6752,59,126
A1LB8HVSXK66U0,NA,NA,wolfe_088_L_clock-a,wolfe_088_L_clock-as,wolfe_088_L_clock-b,wolfe_088_L_clock-bs,114.235,-1,14,6665,42,223
A1LB8HVSXK66U0,NA,NA,wolfe_099_L_sconce-a,wolfe_099_L_sconce-as,wolfe_099_L_sconce-b,wolfe_099_L_sconce-bs,121.683,-1,15,6930,278,345
A1LB8HVSXK66U0,NA,NA,wolfe_082_L_bowl-a,wolfe_082_L_bowl-as,wolfe_082_L_bowl-b,wolfe_082_L_bowl-bs,129.011,-1,16,6763,64,399
A1LB8HVSXK66U0,NA,NA,wolfe_041_L_fruit-a,wolfe_041_L_fruit-as,wolfe_041_L_fruit-b,wolfe_041_L_fruit-bs,136.419,-1,17,6877,92,348
A1LB8HVSXK66U0,NA,NA,wolfe_121_L_car-a,wolfe_121_L_car-as,wolfe_121_L_car-b,wolfe_121_L_car-bs,143.787,-1,18,6765,38,379
A1LB8HVSXK66U0,NA,NA,wolfe_020_L_walldeco-a,wolfe_020_L_walldeco-as,wolfe_020_L_walldeco-b,wolfe_020_L_walldeco-bs,151.467,-1,19,7007,346,146
A1LB8HVSXK66U0,NA,NA,wolfe_047_L_handle-a,wolfe_047_L_handle-as,wolfe_047_L_handle-b,wolfe_047_L_handle-bs,158.795,-1,20,6871,91,160
A1LB8HVSXK66U0,NA,NA,wolfe_104_L_bottle-a,wolfe_104_L_bottle-as,wolfe_104_L_bottle-b,wolfe_104_L_bottle-bs,166.115,-1,21,6745,328,282
A1LB8HVSXK66U0,NA,NA,wolfe_044_L_light-a,wolfe_044_L_light-as,wolfe_044_L_light-b,wolfe_044_L_light-bs,174.204,-1,22,6929,354,318
A1LB8HVSXK66U0,NA,NA,wolfe_064_L_bottles-a,wolfe_064_L_bottles-as,wolfe_064_L_bottles-b,wolfe_064_L_bottles-bs,181.429,-1,23,6762,74,222
A1LB8HVSXK66U0,NA,NA,wolfe_038_L_art-a,wolfe_038_L_art-as,wolfe_038_L_art-b,wolfe_038_L_art-bs,189.076,-1,24,7081,91,224
A1LB8HVSXK66U0,NA,NA,wolfe_093_L_switch-a,wolfe_093_L_switch-as,wolfe_093_L_switch-b,wolfe_093_L_switch-bs,197.156,-1,25,7252,393,345
A1LB8HVSXK66U0,NA,NA,wolfe_091_L_airfreshener-a,wolfe_091_L_airfreshener-as,wolfe_091_L_airfreshener-b,wolfe_091_L_airfreshener-bs,205.324,-1,26,6844,299,311
A1LB8HVSXK66U0,NA,NA,wolfe_042_L_tap-a,wolfe_042_L_tap-as,wolfe_042_L_tap-b,wolfe_042_L_tap-bs,212.972,-1,27,6790,215,235
A1LB8HVSXK66U0,NA,NA,wolfe_062_L_flowers-a,wolfe_062_L_flowers-as,wolfe_062_L_flowers-b,wolfe_062_L_flowers-bs,220.556,-1,28,6822,112,279
A1LB8HVSXK66U0,NA,NA,wolfe_008_L_bottle-a,wolfe_008_L_bottle-as,wolfe_008_L_bottle-b,wolfe_008_L_bottle-bs,228.164,-1,29,7144,89,307
A1LB8HVSXK66U0,NA,NA,wolfe_024_L_towels-a,wolfe_024_L_towels-as,wolfe_024_L_towels-b,wolfe_024_L_towels-bs,236.669,-1,30,7752,287,412
A1LB8HVSXK66U0,NA,NA,wolfe_027_L_soapdish-a,wolfe_027_L_soapdish-as,wolfe_027_L_soapdish-b,wolfe_027_L_soapdish-bs,243.981,-1,31,6818,38,276
A1LB8HVSXK66U0,NA,NA,wolfe_021_L_keyboard-a,wolfe_021_L_keyboard-as,wolfe_021_L_keyboard-b,wolfe_021_L_keyboard-bs,251.621,-1,32,7330,123,350
A1LB8HVSXK66U0,NA,NA,catchCow-a,catchCow-as,catchCow-b,catchCow-bs,259.013,-1,33,7012,363,215
