workerId,assignmentId,hitId,unmod_image,unmod_image_splash,mod_image,mod_image_splash,expTimer,response,trial_number,rt,x,y
A2AMQX0BQZXG9N,NA,NA,catchAirplane-a,catchAirplane-as,catchAirplane-b,catchAirplane-bs,95.736,-1,1,7382,302,286
A2AMQX0BQZXG9N,NA,NA,catchBoat-a,catchBoat-as,catchBoat-b,catchBoat-bs,103.96,-1,2,6552,420,274
A2AMQX0BQZXG9N,NA,NA,wolfe_076_R_hook-a,wolfe_076_R_hook-as,wolfe_076_R_hook-b,wolfe_076_R_hook-bs,118.326,-1,3,13751,619,210
A2AMQX0BQZXG9N,NA,NA,wolfe_040_R_painting-a,wolfe_040_R_painting-as,wolfe_040_R_painting-b,wolfe_040_R_painting-bs,128.43,-1,4,8902,508,73
A2AMQX0BQZXG9N,NA,NA,wolfe_043_R_clock-a,wolfe_043_R_clock-as,wolfe_043_R_clock-b,wolfe_043_R_clock-bs,139.22,-1,5,8785,451,211
A2AMQX0BQZXG9N,NA,NA,wolfe_120_R_art-a,wolfe_120_R_art-as,wolfe_120_R_art-b,wolfe_120_R_art-bs,152.79,-1,6,11462,444,146
A2AMQX0BQZXG9N,NA,NA,wolfe_019_R_lamp_sized-a,wolfe_019_R_lamp_sized-as,wolfe_019_R_lamp_sized-b,wolfe_019_R_lamp_sized-bs,182.184,-1,7,28164,471,142
A2AMQX0BQZXG9N,NA,NA,wolfe_103_R_hook-a,wolfe_103_R_hook-as,wolfe_103_R_hook-b,wolfe_103_R_hook-bs,223.86,-1,8,40197,642,123
A2AMQX0BQZXG9N,NA,NA,wolfe_032_R_bottle-a,wolfe_032_R_bottle-as,wolfe_032_R_bottle-b,wolfe_032_R_bottle-bs,232.102,-1,9,6749,417,142
A2AMQX0BQZXG9N,NA,NA,wolfe_087_R_towelhandle-a,wolfe_087_R_towelhandle-as,wolfe_087_R_towelhandle-b,wolfe_087_R_towelhandle-bs,240.663,-1,10,6746,606,344
A2AMQX0BQZXG9N,NA,NA,wolfe_101_R_cup-a,wolfe_101_R_cup-as,wolfe_101_R_cup-b,wolfe_101_R_cup-bs,249.144,-1,11,7024,346,142
A2AMQX0BQZXG9N,NA,NA,wolfe_026_R_rack-a,wolfe_026_R_rack-as,wolfe_026_R_rack-b,wolfe_026_R_rack-bs,258.126,-1,12,6617,601,279
A2AMQX0BQZXG9N,NA,NA,wolfe_114_R_bird-a,wolfe_114_R_bird-as,wolfe_114_R_bird-b,wolfe_114_R_bird-bs,266.34,-1,13,6510,372,365
A2AMQX0BQZXG9N,NA,NA,wolfe_100_R_mirror-a,wolfe_100_R_mirror-as,wolfe_100_R_mirror-b,wolfe_100_R_mirror-bs,274.612,-1,14,6539,338,293
A2AMQX0BQZXG9N,NA,NA,wolfe_047_R_handle-a,wolfe_047_R_handle-as,wolfe_047_R_handle-b,wolfe_047_R_handle-bs,300.422,-1,15,21254,547,428
A2AMQX0BQZXG9N,NA,NA,wolfe_054_R_firewood-a,wolfe_054_R_firewood-as,wolfe_054_R_firewood-b,wolfe_054_R_firewood-bs,317.542,-1,16,14774,632,313
A2AMQX0BQZXG9N,NA,NA,wolfe_080_R_plant-a,wolfe_080_R_plant-as,wolfe_080_R_plant-b,wolfe_080_R_plant-bs,329.74,-1,17,10825,352,219
A2AMQX0BQZXG9N,NA,NA,wolfe_031_R_log-a,wolfe_031_R_log-as,wolfe_031_R_log-b,wolfe_031_R_log-bs,341.264,-1,18,10565,482,53
A2AMQX0BQZXG9N,NA,NA,wolfe_048_R_art-a,wolfe_048_R_art-as,wolfe_048_R_art-b,wolfe_048_R_art-bs,353.26,-1,19,11005,625,193
A2AMQX0BQZXG9N,NA,NA,wolfe_127_R_light-a,wolfe_127_R_light-as,wolfe_127_R_light-b,wolfe_127_R_light-bs,360.984,-1,20,6565,458,211
A2AMQX0BQZXG9N,NA,NA,wolfe_045_R_musicdock-a,wolfe_045_R_musicdock-as,wolfe_045_R_musicdock-b,wolfe_045_R_musicdock-bs,370.792,-1,21,8704,592,268
A2AMQX0BQZXG9N,NA,NA,wolfe_051_R_owl-a,wolfe_051_R_owl-as,wolfe_051_R_owl-b,wolfe_051_R_owl-bs,379.134,-1,22,7235,393,298
A2AMQX0BQZXG9N,NA,NA,wolfe_002_R_napkin-a,wolfe_002_R_napkin-as,wolfe_002_R_napkin-b,wolfe_002_R_napkin-bs,392.564,-1,23,12668,413,409
A2AMQX0BQZXG9N,NA,NA,wolfe_013_R_lamp-a,wolfe_013_R_lamp-as,wolfe_013_R_lamp-b,wolfe_013_R_lamp-bs,402.59,-1,24,8751,518,170
A2AMQX0BQZXG9N,NA,NA,wolfe_078_R_faucet-a,wolfe_078_R_faucet-as,wolfe_078_R_faucet-b,wolfe_078_R_faucet-bs,412.914,-1,25,8645,398,372
A2AMQX0BQZXG9N,NA,NA,wolfe_005_R_mirror-a,wolfe_005_R_mirror-as,wolfe_005_R_mirror-b,wolfe_005_R_mirror-bs,420.79,-1,26,6652,509,227
A2AMQX0BQZXG9N,NA,NA,wolfe_095_R_candle-a,wolfe_095_R_candle-as,wolfe_095_R_candle-b,wolfe_095_R_candle-bs,432.136,-1,27,6779,465,295
A2AMQX0BQZXG9N,NA,NA,wolfe_061_R_glass-a,wolfe_061_R_glass-as,wolfe_061_R_glass-b,wolfe_061_R_glass-bs,441.232,-1,28,6550,419,201
A2AMQX0BQZXG9N,NA,NA,wolfe_084_R_light-a,wolfe_084_R_light-as,wolfe_084_R_light-b,wolfe_084_R_light-bs,453.396,-1,29,8529,527,156
A2AMQX0BQZXG9N,NA,NA,wolfe_123_R_pot-a,wolfe_123_R_pot-as,wolfe_123_R_pot-b,wolfe_123_R_pot-bs,467.671,-1,30,12954,648,379
A2AMQX0BQZXG9N,NA,NA,wolfe_089_R_poster-a,wolfe_089_R_poster-as,wolfe_089_R_poster-b,wolfe_089_R_poster-bs,475.816,-1,31,6817,360,126
A2AMQX0BQZXG9N,NA,NA,wolfe_085_R_switchboard-a,wolfe_085_R_switchboard-as,wolfe_085_R_switchboard-b,wolfe_085_R_switchboard-bs,500.529,-1,32,20687,468,299
A2AMQX0BQZXG9N,NA,NA,catchCow-a,catchCow-as,catchCow-b,catchCow-bs,508.145,-1,33,6462,474,240
