workerId,assignmentId,hitId,unmod_image,unmod_image_splash,mod_image,mod_image_splash,expTimer,response,trial_number,rt,x,y
A2G7DTL156PTKA,NA,NA,catchAirplane-a,catchAirplane-as,catchAirplane-b,catchAirplane-bs,422.455,-1,1,7611,238,235
A2G7DTL156PTKA,NA,NA,catchBoat-a,catchBoat-as,catchBoat-b,catchBoat-bs,430.44,-1,2,6822,408,261
A2G7DTL156PTKA,NA,NA,wolfe_070_R_lamp-a,wolfe_070_R_lamp-as,wolfe_070_R_lamp-b,wolfe_070_R_lamp-bs,446.725,-1,3,15347,610,153
A2G7DTL156PTKA,NA,NA,wolfe_127_R_light-a,wolfe_127_R_light-as,wolfe_127_R_light-b,wolfe_127_R_light-bs,456.105,-1,4,8583,465,208
A2G7DTL156PTKA,NA,NA,wolfe_061_R_glass-a,wolfe_061_R_glass-as,wolfe_061_R_glass-b,wolfe_061_R_glass-bs,463.931,-1,5,6747,417,208
A2G7DTL156PTKA,NA,NA,wolfe_029_R_glass-a,wolfe_029_R_glass-as,wolfe_029_R_glass-b,wolfe_029_R_glass-bs,473.555,-1,6,8722,489,265
A2G7DTL156PTKA,NA,NA,wolfe_032_R_bottle-a,wolfe_032_R_bottle-as,wolfe_032_R_bottle-b,wolfe_032_R_bottle-bs,481.154,-1,7,6621,417,145
A2G7DTL156PTKA,NA,NA,wolfe_071_R_art-a,wolfe_071_R_art-as,wolfe_071_R_art-b,wolfe_071_R_art-bs,491.016,-1,8,8718,503,266
A2G7DTL156PTKA,NA,NA,wolfe_010_R_candle-a,wolfe_010_R_candle-as,wolfe_010_R_candle-b,wolfe_010_R_candle-bs,503.412,-1,9,10889,593,239
A2G7DTL156PTKA,NA,NA,wolfe_125_R_sofa-a,wolfe_125_R_sofa-as,wolfe_125_R_sofa-b,wolfe_125_R_sofa-bs,517.306,-1,10,13086,578,347
A2G7DTL156PTKA,NA,NA,wolfe_051_R_owl-a,wolfe_051_R_owl-as,wolfe_051_R_owl-b,wolfe_051_R_owl-bs,530.714,-1,11,12653,388,300
A2G7DTL156PTKA,NA,NA,wolfe_116_R_basket-a,wolfe_116_R_basket-as,wolfe_116_R_basket-b,wolfe_116_R_basket-bs,540.817,-1,12,9380,536,433
A2G7DTL156PTKA,NA,NA,wolfe_055_R_carpet-a,wolfe_055_R_carpet-as,wolfe_055_R_carpet-b,wolfe_055_R_carpet-bs,550.322,-1,13,8567,425,400
A2G7DTL156PTKA,NA,NA,wolfe_112_R_basket-a,wolfe_112_R_basket-as,wolfe_112_R_basket-b,wolfe_112_R_basket-bs,560.193,-1,14,9098,605,403
A2G7DTL156PTKA,NA,NA,wolfe_047_R_handle-a,wolfe_047_R_handle-as,wolfe_047_R_handle-b,wolfe_047_R_handle-bs,567.999,-1,15,6816,543,424
A2G7DTL156PTKA,NA,NA,wolfe_050_R_book-a,wolfe_050_R_book-as,wolfe_050_R_book-b,wolfe_050_R_book-bs,577.924,-1,16,8736,559,51
A2G7DTL156PTKA,NA,NA,wolfe_126_R_candles-a,wolfe_126_R_candles-as,wolfe_126_R_candles-b,wolfe_126_R_candles-bs,585.563,-1,17,6912,635,277
A2G7DTL156PTKA,NA,NA,wolfe_104_R_bottle-a,wolfe_104_R_bottle-as,wolfe_104_R_bottle-b,wolfe_104_R_bottle-bs,595.143,-1,18,8652,340,281
A2G7DTL156PTKA,NA,NA,wolfe_100_R_mirror-a,wolfe_100_R_mirror-as,wolfe_100_R_mirror-b,wolfe_100_R_mirror-bs,602.786,-1,19,6651,345,296
A2G7DTL156PTKA,NA,NA,wolfe_068_R_faucet-a,wolfe_068_R_faucet-as,wolfe_068_R_faucet-b,wolfe_068_R_faucet-bs,610.416,-1,20,6815,376,303
A2G7DTL156PTKA,NA,NA,wolfe_065_R_cd-a,wolfe_065_R_cd-as,wolfe_065_R_cd-b,wolfe_065_R_cd-bs,621.742,-1,21,10607,485,195
A2G7DTL156PTKA,NA,NA,wolfe_016_R_art-a,wolfe_016_R_art-as,wolfe_016_R_art-b,wolfe_016_R_art-bs,631.243,-1,22,8622,621,192
A2G7DTL156PTKA,NA,NA,wolfe_039_R_ventilator-a,wolfe_039_R_ventilator-as,wolfe_039_R_ventilator-b,wolfe_039_R_ventilator-bs,643.079,-1,23,11016,381,43
A2G7DTL156PTKA,NA,NA,wolfe_120_R_art-a,wolfe_120_R_art-as,wolfe_120_R_art-b,wolfe_120_R_art-bs,653.383,-1,24,9265,453,147
A2G7DTL156PTKA,NA,NA,wolfe_095_R_candle-a,wolfe_095_R_candle-as,wolfe_095_R_candle-b,wolfe_095_R_candle-bs,662.88,-1,25,8611,458,286
A2G7DTL156PTKA,NA,NA,wolfe_092_R_candles-a,wolfe_092_R_candles-as,wolfe_092_R_candles-b,wolfe_092_R_candles-bs,672.862,-1,26,9021,647,456
A2G7DTL156PTKA,NA,NA,wolfe_007_R_soap-a,wolfe_007_R_soap-as,wolfe_007_R_soap-b,wolfe_007_R_soap-bs,682.324,-1,27,8625,502,483
A2G7DTL156PTKA,NA,NA,wolfe_063_R_laptop-a,wolfe_063_R_laptop-as,wolfe_063_R_laptop-b,wolfe_063_R_laptop-bs,691.927,-1,28,8865,612,278
A2G7DTL156PTKA,NA,NA,wolfe_057_R_bin-a,wolfe_057_R_bin-as,wolfe_057_R_bin-b,wolfe_057_R_bin-bs,700.39,-1,29,7192,403,335
A2G7DTL156PTKA,NA,NA,wolfe_096_R_painting-a,wolfe_096_R_painting-as,wolfe_096_R_painting-b,wolfe_096_R_painting-bs,710.262,-1,30,9223,600,219
A2G7DTL156PTKA,NA,NA,wolfe_036_R_bowl-a,wolfe_036_R_bowl-as,wolfe_036_R_bowl-b,wolfe_036_R_bowl-bs,719.97,-1,31,8521,362,200
A2G7DTL156PTKA,NA,NA,wolfe_118_R_shoes-a,wolfe_118_R_shoes-as,wolfe_118_R_shoes-b,wolfe_118_R_shoes-bs,727.896,-1,32,6735,396,351
A2G7DTL156PTKA,NA,NA,catchCow-a,catchCow-as,catchCow-b,catchCow-bs,735.242,-1,33,6616,407,210
