workerId,assignmentId,hitId,unmod_image,unmod_image_splash,mod_image,mod_image_splash,expTimer,response,trial_number,rt,x,y
A2IG8L25SNKXYI,NA,NA,wolfe_063_L_laptop-a,wolfe_063_L_laptop-as,wolfe_063_L_laptop-b,wolfe_063_L_laptop-bs,38.889,-1,3,12005,349,203
A2IG8L25SNKXYI,NA,NA,catchBoat-a,catchBoat-as,catchBoat-b,catchBoat-bs,38.887,-1,2,8221,349,203
A2IG8L25SNKXYI,NA,NA,catchAirplane-a,catchAirplane-as,catchAirplane-b,catchAirplane-bs,38.883,-1,1,6310,349,203
A2IG8L25SNKXYI,NA,NA,wolfe_119_L_painting-a,wolfe_119_L_painting-as,wolfe_119_L_painting-b,wolfe_119_L_painting-bs,38.89,-1,4,13547,349,203
A2IG8L25SNKXYI,NA,NA,wolfe_055_L_carpet-a,wolfe_055_L_carpet-as,wolfe_055_L_carpet-b,wolfe_055_L_carpet-bs,45.485,-1,5,6035,230,168
A2IG8L25SNKXYI,NA,NA,wolfe_031_L_log-a,wolfe_031_L_log-as,wolfe_031_L_log-b,wolfe_031_L_log-bs,57.318,-1,6,9922,242,174
A2IG8L25SNKXYI,NA,NA,wolfe_058_L_clutch-a,wolfe_058_L_clutch-as,wolfe_058_L_clutch-b,wolfe_058_L_clutch-bs,57.32,-1,7,10522,242,174
A2IG8L25SNKXYI,NA,NA,wolfe_029_L_glass-a,wolfe_029_L_glass-as,wolfe_029_L_glass-b,wolfe_029_L_glass-bs,67.526,-1,8,9209,314,233
A2IG8L25SNKXYI,NA,NA,wolfe_033_L_vase-a,wolfe_033_L_vase-as,wolfe_033_L_vase-b,wolfe_033_L_vase-bs,67.529,-1,9,9798,314,233
A2IG8L25SNKXYI,NA,NA,wolfe_076_L_hook-a,wolfe_076_L_hook-as,wolfe_076_L_hook-b,wolfe_076_L_hook-bs,81.529,-1,10,7536,344,304
A2IG8L25SNKXYI,NA,NA,wolfe_109_L_pillow-a,wolfe_109_L_pillow-as,wolfe_109_L_pillow-b,wolfe_109_L_pillow-bs,81.532,-1,11,8216,344,304
A2IG8L25SNKXYI,NA,NA,wolfe_118_L_shoes-a,wolfe_118_L_shoes-as,wolfe_118_L_shoes-b,wolfe_118_L_shoes-bs,81.534,-1,12,11189,344,304
A2IG8L25SNKXYI,NA,NA,wolfe_117_L_plant_sized-a,wolfe_117_L_plant_sized-as,wolfe_117_L_plant_sized-b,wolfe_117_L_plant_sized-bs,81.535,-1,13,11667,344,304
A2IG8L25SNKXYI,NA,NA,wolfe_036_L_bowl-a,wolfe_036_L_bowl-as,wolfe_036_L_bowl-b,wolfe_036_L_bowl-bs,87.677,-1,14,6018,348,300
A2IG8L25SNKXYI,NA,NA,wolfe_059_L_car-a,wolfe_059_L_car-as,wolfe_059_L_car-b,wolfe_059_L_car-bs,99.157,-1,15,11473,325,244
A2IG8L25SNKXYI,NA,NA,wolfe_079_L_bowl-a,wolfe_079_L_bowl-as,wolfe_079_L_bowl-b,wolfe_079_L_bowl-bs,117.302,-1,17,18131,374,304
A2IG8L25SNKXYI,NA,NA,wolfe_060_L_pillow-a,wolfe_060_L_pillow-as,wolfe_060_L_pillow-b,wolfe_060_L_pillow-bs,117.305,-1,19,18136,374,304
A2IG8L25SNKXYI,NA,NA,wolfe_124_L_vase-a,wolfe_124_L_vase-as,wolfe_124_L_vase-b,wolfe_124_L_vase-bs,117.303,-1,18,18135,374,304
A2IG8L25SNKXYI,NA,NA,wolfe_017_L_wood-a,wolfe_017_L_wood-as,wolfe_017_L_wood-b,wolfe_017_L_wood-bs,117.3,-1,16,18130,374,304
A2IG8L25SNKXYI,NA,NA,wolfe_078_L_faucet-a,wolfe_078_L_faucet-as,wolfe_078_L_faucet-b,wolfe_078_L_faucet-bs,126.213,-1,20,8829,267,273
A2IG8L25SNKXYI,NA,NA,wolfe_097_L_light-a,wolfe_097_L_light-as,wolfe_097_L_light-b,wolfe_097_L_light-bs,126.216,-1,21,8833,267,273
A2IG8L25SNKXYI,NA,NA,wolfe_113_L_plant-a,wolfe_113_L_plant-as,wolfe_113_L_plant-b,wolfe_113_L_plant-bs,126.218,-1,22,8889,267,273
A2IG8L25SNKXYI,NA,NA,wolfe_096_L_painting-a,wolfe_096_L_painting-as,wolfe_096_L_painting-b,wolfe_096_L_painting-bs,158.919,-1,24,30471,386,306
A2IG8L25SNKXYI,NA,NA,wolfe_027_L_soapdish-a,wolfe_027_L_soapdish-as,wolfe_027_L_soapdish-b,wolfe_027_L_soapdish-bs,158.921,-1,25,30510,386,306
A2IG8L25SNKXYI,NA,NA,wolfe_073_L_coffeemug-a,wolfe_073_L_coffeemug-as,wolfe_073_L_coffeemug-b,wolfe_073_L_coffeemug-bs,158.916,-1,23,30469,386,306
A2IG8L25SNKXYI,NA,NA,wolfe_022_L_lamp-a,wolfe_022_L_lamp-as,wolfe_022_L_lamp-b,wolfe_022_L_lamp-bs,169.912,-1,27,8990,394,336
A2IG8L25SNKXYI,NA,NA,wolfe_071_L_art-a,wolfe_071_L_art-as,wolfe_071_L_art-b,wolfe_071_L_art-bs,169.919,-1,30,10952,394,336
A2IG8L25SNKXYI,NA,NA,wolfe_054_L_firewood-a,wolfe_054_L_firewood-as,wolfe_054_L_firewood-b,wolfe_054_L_firewood-bs,169.909,-1,26,8166,394,336
A2IG8L25SNKXYI,NA,NA,wolfe_075_L_light-a,wolfe_075_L_light-as,wolfe_075_L_light-b,wolfe_075_L_light-bs,169.915,-1,28,9603,394,336
A2IG8L25SNKXYI,NA,NA,wolfe_128_L_pot-a,wolfe_128_L_pot-as,wolfe_128_L_pot-b,wolfe_128_L_pot-bs,169.917,-1,29,10316,394,336
A2IG8L25SNKXYI,NA,NA,wolfe_115_L_pot-a,wolfe_115_L_pot-as,wolfe_115_L_pot-b,wolfe_115_L_pot-bs,174.796,-1,31,4407,326,278
A2IG8L25SNKXYI,NA,NA,wolfe_126_L_candles-a,wolfe_126_L_candles-as,wolfe_126_L_candles-b,wolfe_126_L_candles-bs,180.521,-1,32,5046,326,276
A2IG8L25SNKXYI,NA,NA,catchCow-a,catchCow-as,catchCow-b,catchCow-bs,188.228,-1,33,5788,343,274
