workerId,assignmentId,hitId,unmod_image,unmod_image_splash,mod_image,mod_image_splash,expTimer,response,trial_number,rt,x,y
A3H0133NSXWYTM,NA,NA,catchAirplane-a,catchAirplane-as,catchAirplane-b,catchAirplane-bs,44.22,-1,1,7142,299,250
A3H0133NSXWYTM,NA,NA,catchBoat-a,catchBoat-as,catchBoat-b,catchBoat-bs,55.144,-1,2,6638,403,280
A3H0133NSXWYTM,NA,NA,wolfe_049_L_painting-a,wolfe_049_L_painting-as,wolfe_049_L_painting-b,wolfe_049_L_painting-bs,106.021,-1,3,49855,575,326
A3H0133NSXWYTM,NA,NA,wolfe_122_L_chair-a,wolfe_122_L_chair-as,wolfe_122_L_chair-b,wolfe_122_L_chair-bs,130.119,-1,4,22502,249,161
A3H0133NSXWYTM,NA,NA,wolfe_127_L_light-a,wolfe_127_L_light-as,wolfe_127_L_light-b,wolfe_127_L_light-bs,142.429,-1,5,10939,198,203
A3H0133NSXWYTM,NA,NA,wolfe_080_L_plant-a,wolfe_080_L_plant-as,wolfe_080_L_plant-b,wolfe_080_L_plant-bs,151.242,-1,6,7049,314,229
A3H0133NSXWYTM,NA,NA,wolfe_103_L_hook-a,wolfe_103_L_hook-as,wolfe_103_L_hook-b,wolfe_103_L_hook-bs,180.875,-1,7,28272,26,162
A3H0133NSXWYTM,NA,NA,wolfe_021_L_keyboard-a,wolfe_021_L_keyboard-as,wolfe_021_L_keyboard-b,wolfe_021_L_keyboard-bs,191.803,-1,8,9014,132,350
A3H0133NSXWYTM,NA,NA,wolfe_064_L_bottles-a,wolfe_064_L_bottles-as,wolfe_064_L_bottles-b,wolfe_064_L_bottles-bs,202.686,-1,9,8692,118,235
A3H0133NSXWYTM,NA,NA,wolfe_063_L_laptop-a,wolfe_063_L_laptop-as,wolfe_063_L_laptop-b,wolfe_063_L_laptop-bs,212.757,-1,10,7765,55,281
A3H0133NSXWYTM,NA,NA,wolfe_068_L_faucet-a,wolfe_068_L_faucet-as,wolfe_068_L_faucet-b,wolfe_068_L_faucet-bs,221.89,-1,11,7072,289,310
A3H0133NSXWYTM,NA,NA,wolfe_058_L_clutch-a,wolfe_058_L_clutch-as,wolfe_058_L_clutch-b,wolfe_058_L_clutch-bs,231.262,-1,12,6762,201,375
A3H0133NSXWYTM,NA,NA,wolfe_011_L_parfum-a,wolfe_011_L_parfum-as,wolfe_011_L_parfum-b,wolfe_011_L_parfum-bs,241.938,-1,13,8869,266,346
A3H0133NSXWYTM,NA,NA,wolfe_091_L_airfreshener-a,wolfe_091_L_airfreshener-as,wolfe_091_L_airfreshener-b,wolfe_091_L_airfreshener-bs,251.032,-1,14,6845,167,198
A3H0133NSXWYTM,NA,NA,wolfe_075_L_light-a,wolfe_075_L_light-as,wolfe_075_L_light-b,wolfe_075_L_light-bs,317.245,-1,15,60000,424,262
A3H0133NSXWYTM,NA,NA,wolfe_012_L_tubaccesory-a,wolfe_012_L_tubaccesory-as,wolfe_012_L_tubaccesory-b,wolfe_012_L_tubaccesory-bs,345.252,-1,16,26061,220,348
A3H0133NSXWYTM,NA,NA,wolfe_078_L_faucet-a,wolfe_078_L_faucet-as,wolfe_078_L_faucet-b,wolfe_078_L_faucet-bs,360.444,-1,17,13471,271,376
A3H0133NSXWYTM,NA,NA,wolfe_044_L_light-a,wolfe_044_L_light-as,wolfe_044_L_light-b,wolfe_044_L_light-bs,373.447,-1,18,11175,292,383
A3H0133NSXWYTM,NA,NA,wolfe_090_L_lamp-a,wolfe_090_L_lamp-as,wolfe_090_L_lamp-b,wolfe_090_L_lamp-bs,385.322,-1,19,9237,229,301
A3H0133NSXWYTM,NA,NA,wolfe_033_L_vase-a,wolfe_033_L_vase-as,wolfe_033_L_vase-b,wolfe_033_L_vase-bs,406.075,-1,20,19231,78,193
A3H0133NSXWYTM,NA,NA,wolfe_015_L_ceilinglight-a,wolfe_015_L_ceilinglight-as,wolfe_015_L_ceilinglight-b,wolfe_015_L_ceilinglight-bs,427.505,-1,21,19617,97,86
A3H0133NSXWYTM,NA,NA,wolfe_060_L_pillow-a,wolfe_060_L_pillow-as,wolfe_060_L_pillow-b,wolfe_060_L_pillow-bs,436.452,-1,22,7216,534,335
A3H0133NSXWYTM,NA,NA,wolfe_003_L_ducks-a,wolfe_003_L_ducks-as,wolfe_003_L_ducks-b,wolfe_003_L_ducks-bs,451.856,-1,23,13187,245,335
A3H0133NSXWYTM,NA,NA,wolfe_031_L_log-a,wolfe_031_L_log-as,wolfe_031_L_log-b,wolfe_031_L_log-bs,465.309,-1,24,11127,172,43
A3H0133NSXWYTM,NA,NA,wolfe_077_L_footrest-a,wolfe_077_L_footrest-as,wolfe_077_L_footrest-b,wolfe_077_L_footrest-bs,482.532,-1,25,15258,321,357
A3H0133NSXWYTM,NA,NA,wolfe_020_L_walldeco-a,wolfe_020_L_walldeco-as,wolfe_020_L_walldeco-b,wolfe_020_L_walldeco-bs,492.195,-1,26,7653,6,127
A3H0133NSXWYTM,NA,NA,wolfe_059_L_car-a,wolfe_059_L_car-as,wolfe_059_L_car-b,wolfe_059_L_car-bs,501.312,-1,27,7303,235,164
A3H0133NSXWYTM,NA,NA,wolfe_118_L_shoes-a,wolfe_118_L_shoes-as,wolfe_118_L_shoes-b,wolfe_118_L_shoes-bs,512.189,-1,28,9111,277,353
A3H0133NSXWYTM,NA,NA,wolfe_050_L_book-a,wolfe_050_L_book-as,wolfe_050_L_book-b,wolfe_050_L_book-bs,526.444,-1,29,13067,113,56
A3H0133NSXWYTM,NA,NA,wolfe_009_L_carpet-a,wolfe_009_L_carpet-as,wolfe_009_L_carpet-b,wolfe_009_L_carpet-bs,547.384,-1,30,19596,214,437
A3H0133NSXWYTM,NA,NA,wolfe_092_L_candles-a,wolfe_092_L_candles-as,wolfe_092_L_candles-b,wolfe_092_L_candles-bs,558.77,-1,31,9406,16,441
A3H0133NSXWYTM,NA,NA,wolfe_121_L_car-a,wolfe_121_L_car-as,wolfe_121_L_car-b,wolfe_121_L_car-bs,569.487,-1,32,8585,45,347
A3H0133NSXWYTM,NA,NA,catchCow-a,catchCow-as,catchCow-b,catchCow-bs,577.324,-1,33,6705,473,255
