workerId,assignmentId,hitId,unmod_image,unmod_image_splash,mod_image,mod_image_splash,expTimer,response,trial_number,rt,x,y
A3MCGKRH5KEZR8,NA,NA,catchAirplane-a,catchAirplane-as,catchAirplane-b,catchAirplane-bs,621.658,-1,1,4014,643,464
A3MCGKRH5KEZR8,NA,NA,catchBoat-a,catchBoat-as,catchBoat-b,catchBoat-bs,633.098,-1,2,11158,420,281
A3MCGKRH5KEZR8,NA,NA,wolfe_110_L_plant-a,wolfe_110_L_plant-as,wolfe_110_L_plant-b,wolfe_110_L_plant-bs,641.042,-1,3,7494,197,380
A3MCGKRH5KEZR8,NA,NA,wolfe_105_L_hat-a,wolfe_105_L_hat-as,wolfe_105_L_hat-b,wolfe_105_L_hat-bs,648.418,-1,4,6984,147,438
A3MCGKRH5KEZR8,NA,NA,wolfe_128_L_pot-a,wolfe_128_L_pot-as,wolfe_128_L_pot-b,wolfe_128_L_pot-bs,655.802,-1,5,6975,158,253
A3MCGKRH5KEZR8,NA,NA,wolfe_081_L_football-a,wolfe_081_L_football-as,wolfe_081_L_football-b,wolfe_081_L_football-bs,663.018,-1,6,6855,333,427
A3MCGKRH5KEZR8,NA,NA,wolfe_068_L_faucet-a,wolfe_068_L_faucet-as,wolfe_068_L_faucet-b,wolfe_068_L_faucet-bs,670.05,-1,7,6664,294,311
A3MCGKRH5KEZR8,NA,NA,wolfe_015_L_ceilinglight-a,wolfe_015_L_ceilinglight-as,wolfe_015_L_ceilinglight-b,wolfe_015_L_ceilinglight-bs,677.37,-1,8,6832,120,273
A3MCGKRH5KEZR8,NA,NA,wolfe_056_L_comforter-a,wolfe_056_L_comforter-as,wolfe_056_L_comforter-b,wolfe_056_L_comforter-bs,684.434,-1,9,6688,147,340
A3MCGKRH5KEZR8,NA,NA,wolfe_023_L_remote-a,wolfe_023_L_remote-as,wolfe_023_L_remote-b,wolfe_023_L_remote-bs,691.403,-1,10,6568,245,464
A3MCGKRH5KEZR8,NA,NA,wolfe_086_L_book-a,wolfe_086_L_book-as,wolfe_086_L_book-b,wolfe_086_L_book-bs,698.539,-1,11,6599,274,298
A3MCGKRH5KEZR8,NA,NA,wolfe_047_L_handle-a,wolfe_047_L_handle-as,wolfe_047_L_handle-b,wolfe_047_L_handle-bs,705.779,-1,12,6503,125,428
A3MCGKRH5KEZR8,NA,NA,wolfe_082_L_bowl-a,wolfe_082_L_bowl-as,wolfe_082_L_bowl-b,wolfe_082_L_bowl-bs,712.731,-1,13,6510,99,423
A3MCGKRH5KEZR8,NA,NA,wolfe_075_L_light-a,wolfe_075_L_light-as,wolfe_075_L_light-b,wolfe_075_L_light-bs,719.691,-1,14,6496,213,268
A3MCGKRH5KEZR8,NA,NA,wolfe_002_L_napkin-a,wolfe_002_L_napkin-as,wolfe_002_L_napkin-b,wolfe_002_L_napkin-bs,726.602,-1,15,6518,259,410
A3MCGKRH5KEZR8,NA,NA,wolfe_001_L_mirror-a,wolfe_001_L_mirror-as,wolfe_001_L_mirror-b,wolfe_001_L_mirror-bs,733.698,-1,16,6537,122,407
A3MCGKRH5KEZR8,NA,NA,wolfe_114_L_bird-a,wolfe_114_L_bird-as,wolfe_114_L_bird-b,wolfe_114_L_bird-bs,740.994,-1,17,7000,287,362
A3MCGKRH5KEZR8,NA,NA,wolfe_065_L_cd-a,wolfe_065_L_cd-as,wolfe_065_L_cd-b,wolfe_065_L_cd-bs,749.466,-1,18,6680,210,112
A3MCGKRH5KEZR8,NA,NA,wolfe_122_L_chair-a,wolfe_122_L_chair-as,wolfe_122_L_chair-b,wolfe_122_L_chair-bs,759.13,-1,19,9304,321,227
A3MCGKRH5KEZR8,NA,NA,wolfe_017_L_wood-a,wolfe_017_L_wood-as,wolfe_017_L_wood-b,wolfe_017_L_wood-bs,766.37,-1,20,6656,23,316
A3MCGKRH5KEZR8,NA,NA,wolfe_064_L_bottles-a,wolfe_064_L_bottles-as,wolfe_064_L_bottles-b,wolfe_064_L_bottles-bs,773.474,-1,21,6672,108,236
A3MCGKRH5KEZR8,NA,NA,wolfe_084_L_light-a,wolfe_084_L_light-as,wolfe_084_L_light-b,wolfe_084_L_light-bs,780.571,-1,22,6608,75,266
A3MCGKRH5KEZR8,NA,NA,wolfe_111_L_pot-a,wolfe_111_L_pot-as,wolfe_111_L_pot-b,wolfe_111_L_pot-bs,787.707,-1,23,6585,207,374
A3MCGKRH5KEZR8,NA,NA,wolfe_067_L_painting-a,wolfe_067_L_painting-as,wolfe_067_L_painting-b,wolfe_067_L_painting-bs,794.891,-1,24,6719,35,336
A3MCGKRH5KEZR8,NA,NA,wolfe_109_L_pillow-a,wolfe_109_L_pillow-as,wolfe_109_L_pillow-b,wolfe_109_L_pillow-bs,801.89,-1,25,6616,272,289
A3MCGKRH5KEZR8,NA,NA,wolfe_091_L_airfreshener-a,wolfe_091_L_airfreshener-as,wolfe_091_L_airfreshener-b,wolfe_091_L_airfreshener-bs,810.107,-1,26,6928,192,177
A3MCGKRH5KEZR8,NA,NA,wolfe_048_L_art-a,wolfe_048_L_art-as,wolfe_048_L_art-b,wolfe_048_L_art-bs,817.21,-1,27,6680,47,221
A3MCGKRH5KEZR8,NA,NA,wolfe_026_L_rack-a,wolfe_026_L_rack-as,wolfe_026_L_rack-b,wolfe_026_L_rack-bs,824.203,-1,28,6688,64,277
A3MCGKRH5KEZR8,NA,NA,wolfe_019_L_lamp_sized-a,wolfe_019_L_lamp_sized-as,wolfe_019_L_lamp_sized-b,wolfe_019_L_lamp_sized-bs,831.283,-1,29,6688,182,131
A3MCGKRH5KEZR8,NA,NA,wolfe_060_L_pillow-a,wolfe_060_L_pillow-as,wolfe_060_L_pillow-b,wolfe_060_L_pillow-bs,838.275,-1,30,6623,274,290
A3MCGKRH5KEZR8,NA,NA,wolfe_070_L_lamp-a,wolfe_070_L_lamp-as,wolfe_070_L_lamp-b,wolfe_070_L_lamp-bs,845.411,-1,31,6624,58,153
A3MCGKRH5KEZR8,NA,NA,wolfe_007_L_soap-a,wolfe_007_L_soap-as,wolfe_007_L_soap-b,wolfe_007_L_soap-bs,852.627,-1,32,6744,166,500
A3MCGKRH5KEZR8,NA,NA,catchCow-a,catchCow-as,catchCow-b,catchCow-bs,859.651,-1,33,6801,391,218
