workerId,assignmentId,hitId,unmod_image,unmod_image_splash,mod_image,mod_image_splash,expTimer,response,trial_number,rt,x,y
A3O7X46E3REM7I,NA,NA,catchAirplane-a,catchAirplane-as,catchAirplane-b,catchAirplane-bs,22.228,-1,1,7959,653,459
A3O7X46E3REM7I,NA,NA,catchBoat-a,catchBoat-as,catchBoat-b,catchBoat-bs,32.652,-1,2,6837,420,168
A3O7X46E3REM7I,NA,NA,wolfe_093_L_switch-a,wolfe_093_L_switch-as,wolfe_093_L_switch-b,wolfe_093_L_switch-bs,50.538,-1,3,15526,124,352
A3O7X46E3REM7I,NA,NA,wolfe_085_L_switchboard-a,wolfe_085_L_switchboard-as,wolfe_085_L_switchboard-b,wolfe_085_L_switchboard-bs,61.052,-1,4,8614,187,304
A3O7X46E3REM7I,NA,NA,wolfe_116_L_basket-a,wolfe_116_L_basket-as,wolfe_116_L_basket-b,wolfe_116_L_basket-bs,73.526,-1,5,11853,133,434
A3O7X46E3REM7I,NA,NA,wolfe_068_L_faucet-a,wolfe_068_L_faucet-as,wolfe_068_L_faucet-b,wolfe_068_L_faucet-bs,85.07,-1,6,9700,286,306
A3O7X46E3REM7I,NA,NA,wolfe_072_L_handle-a,wolfe_072_L_handle-as,wolfe_072_L_handle-b,wolfe_072_L_handle-bs,105.182,-1,7,18235,98,434
A3O7X46E3REM7I,NA,NA,wolfe_110_L_plant-a,wolfe_110_L_plant-as,wolfe_110_L_plant-b,wolfe_110_L_plant-bs,115.696,-1,8,8852,195,352
A3O7X46E3REM7I,NA,NA,wolfe_066_L_vase-a,wolfe_066_L_vase-as,wolfe_066_L_vase-b,wolfe_066_L_vase-bs,137.572,-1,9,19682,75,174
A3O7X46E3REM7I,NA,NA,wolfe_080_L_plant-a,wolfe_080_L_plant-as,wolfe_080_L_plant-b,wolfe_080_L_plant-bs,146.326,-1,10,7213,311,242
A3O7X46E3REM7I,NA,NA,wolfe_112_L_basket-a,wolfe_112_L_basket-as,wolfe_112_L_basket-b,wolfe_112_L_basket-bs,156.144,-1,11,8875,62,403
A3O7X46E3REM7I,NA,NA,wolfe_034_L_handle-a,wolfe_034_L_handle-as,wolfe_034_L_handle-b,wolfe_034_L_handle-bs,178.353,-1,12,19945,103,327
A3O7X46E3REM7I,NA,NA,wolfe_089_L_poster-a,wolfe_089_L_poster-as,wolfe_089_L_poster-b,wolfe_089_L_poster-bs,194.589,-1,13,14784,298,136
A3O7X46E3REM7I,NA,NA,wolfe_018_L_plant-a,wolfe_018_L_plant-as,wolfe_018_L_plant-b,wolfe_018_L_plant-bs,216.141,-1,14,19563,71,241
A3O7X46E3REM7I,NA,NA,wolfe_025_L_vase-a,wolfe_025_L_vase-as,wolfe_025_L_vase-b,wolfe_025_L_vase-bs,224.641,-1,15,7133,45,302
A3O7X46E3REM7I,NA,NA,wolfe_106_L_toweldispenser-a,wolfe_106_L_toweldispenser-as,wolfe_106_L_toweldispenser-b,wolfe_106_L_toweldispenser-bs,246.594,-1,16,19577,256,154
A3O7X46E3REM7I,NA,NA,wolfe_082_L_bowl-a,wolfe_082_L_bowl-as,wolfe_082_L_bowl-b,wolfe_082_L_bowl-bs,255.35,-1,17,6832,93,422
A3O7X46E3REM7I,NA,NA,wolfe_038_L_art-a,wolfe_038_L_art-as,wolfe_038_L_art-b,wolfe_038_L_art-bs,272.548,-1,18,15203,308,164
A3O7X46E3REM7I,NA,NA,wolfe_127_L_light-a,wolfe_127_L_light-as,wolfe_127_L_light-b,wolfe_127_L_light-bs,281.314,-1,19,6830,206,200
A3O7X46E3REM7I,NA,NA,wolfe_104_L_bottle-a,wolfe_104_L_bottle-as,wolfe_104_L_bottle-b,wolfe_104_L_bottle-bs,291.864,-1,20,8695,323,279
A3O7X46E3REM7I,NA,NA,wolfe_078_L_faucet-a,wolfe_078_L_faucet-as,wolfe_078_L_faucet-b,wolfe_078_L_faucet-bs,301.574,-1,21,7154,437,378
A3O7X46E3REM7I,NA,NA,wolfe_073_L_coffeemug-a,wolfe_073_L_coffeemug-as,wolfe_073_L_coffeemug-b,wolfe_073_L_coffeemug-bs,314.31,-1,22,10500,45,223
A3O7X46E3REM7I,NA,NA,wolfe_053_L_handle-a,wolfe_053_L_handle-as,wolfe_053_L_handle-b,wolfe_053_L_handle-bs,324.836,-1,23,8547,164,338
A3O7X46E3REM7I,NA,NA,wolfe_045_L_musicdock-a,wolfe_045_L_musicdock-as,wolfe_045_L_musicdock-b,wolfe_045_L_musicdock-bs,340.144,-1,24,7245,80,262
A3O7X46E3REM7I,NA,NA,wolfe_096_L_painting-a,wolfe_096_L_painting-as,wolfe_096_L_painting-b,wolfe_096_L_painting-bs,350.92,-1,25,8986,67,220
A3O7X46E3REM7I,NA,NA,wolfe_021_L_keyboard-a,wolfe_021_L_keyboard-as,wolfe_021_L_keyboard-b,wolfe_021_L_keyboard-bs,361.134,-1,26,8458,116,357
A3O7X46E3REM7I,NA,NA,wolfe_022_L_lamp-a,wolfe_022_L_lamp-as,wolfe_022_L_lamp-b,wolfe_022_L_lamp-bs,401.06,-1,27,38629,243,76
A3O7X46E3REM7I,NA,NA,wolfe_122_L_chair-a,wolfe_122_L_chair-as,wolfe_122_L_chair-b,wolfe_122_L_chair-bs,411.33,-1,28,8494,267,159
A3O7X46E3REM7I,NA,NA,wolfe_015_L_ceilinglight-a,wolfe_015_L_ceilinglight-as,wolfe_015_L_ceilinglight-b,wolfe_015_L_ceilinglight-bs,430.268,-1,29,16920,98,86
A3O7X46E3REM7I,NA,NA,wolfe_060_L_pillow-a,wolfe_060_L_pillow-as,wolfe_060_L_pillow-b,wolfe_060_L_pillow-bs,444.11,-1,30,10838,273,290
A3O7X46E3REM7I,NA,NA,wolfe_014_L_lamp-a,wolfe_014_L_lamp-as,wolfe_014_L_lamp-b,wolfe_014_L_lamp-bs,453.209,-1,31,6692,165,114
A3O7X46E3REM7I,NA,NA,wolfe_075_L_light-a,wolfe_075_L_light-as,wolfe_075_L_light-b,wolfe_075_L_light-bs,461.876,-1,32,6714,145,54
A3O7X46E3REM7I,NA,NA,catchCow-a,catchCow-as,catchCow-b,catchCow-bs,471.528,-1,33,7527,394,274
