workerId,assignmentId,hitId,unmod_image,unmod_image_splash,mod_image,mod_image_splash,expTimer,response,trial_number,rt,x,y
A3QOMMIZTW0XF1,NA,NA,catchAirplane-a,catchAirplane-as,catchAirplane-b,catchAirplane-bs,24.831,-1,1,8558,405,290
A3QOMMIZTW0XF1,NA,NA,catchBoat-a,catchBoat-as,catchBoat-b,catchBoat-bs,31.812,-1,2,6384,475,139
A3QOMMIZTW0XF1,NA,NA,wolfe_115_R_pot-a,wolfe_115_R_pot-as,wolfe_115_R_pot-b,wolfe_115_R_pot-bs,39.164,-1,3,6469,568,235
A3QOMMIZTW0XF1,NA,NA,wolfe_017_R_wood-a,wolfe_017_R_wood-as,wolfe_017_R_wood-b,wolfe_017_R_wood-bs,46.929,-1,4,7437,505,186
A3QOMMIZTW0XF1,NA,NA,wolfe_011_R_parfum-a,wolfe_011_R_parfum-as,wolfe_011_R_parfum-b,wolfe_011_R_parfum-bs,53.848,-1,5,6337,487,242
A3QOMMIZTW0XF1,NA,NA,wolfe_122_R_chair-a,wolfe_122_R_chair-as,wolfe_122_R_chair-b,wolfe_122_R_chair-bs,60.859,-1,6,6393,532,157
A3QOMMIZTW0XF1,NA,NA,wolfe_099_R_sconce-a,wolfe_099_R_sconce-as,wolfe_099_R_sconce-b,wolfe_099_R_sconce-bs,67.979,-1,7,6336,522,262
A3QOMMIZTW0XF1,NA,NA,wolfe_029_R_glass-a,wolfe_029_R_glass-as,wolfe_029_R_glass-b,wolfe_029_R_glass-bs,75.078,-1,8,6326,409,196
A3QOMMIZTW0XF1,NA,NA,wolfe_123_R_pot-a,wolfe_123_R_pot-as,wolfe_123_R_pot-b,wolfe_123_R_pot-bs,82.067,-1,9,6411,474,181
A3QOMMIZTW0XF1,NA,NA,wolfe_128_R_pot-a,wolfe_128_R_pot-as,wolfe_128_R_pot-b,wolfe_128_R_pot-bs,88.914,-1,10,6352,445,251
A3QOMMIZTW0XF1,NA,NA,wolfe_104_R_bottle-a,wolfe_104_R_bottle-as,wolfe_104_R_bottle-b,wolfe_104_R_bottle-bs,95.757,-1,11,6352,445,184
A3QOMMIZTW0XF1,NA,NA,wolfe_075_R_light-a,wolfe_075_R_light-as,wolfe_075_R_light-b,wolfe_075_R_light-bs,102.516,-1,12,6342,534,190
A3QOMMIZTW0XF1,NA,NA,wolfe_025_R_vase-a,wolfe_025_R_vase-as,wolfe_025_R_vase-b,wolfe_025_R_vase-bs,109.359,-1,13,6374,500,137
A3QOMMIZTW0XF1,NA,NA,wolfe_032_R_bottle-a,wolfe_032_R_bottle-as,wolfe_032_R_bottle-b,wolfe_032_R_bottle-bs,116.387,-1,14,6332,393,99
A3QOMMIZTW0XF1,NA,NA,wolfe_026_R_rack-a,wolfe_026_R_rack-as,wolfe_026_R_rack-b,wolfe_026_R_rack-bs,123.286,-1,15,6319,366,238
A3QOMMIZTW0XF1,NA,NA,wolfe_014_R_lamp-a,wolfe_014_R_lamp-as,wolfe_014_R_lamp-b,wolfe_014_R_lamp-bs,130.183,-1,16,6341,449,352
A3QOMMIZTW0XF1,NA,NA,wolfe_009_R_carpet-a,wolfe_009_R_carpet-as,wolfe_009_R_carpet-b,wolfe_009_R_carpet-bs,137.174,-1,17,6492,492,236
A3QOMMIZTW0XF1,NA,NA,wolfe_004_R_electricalgrid-a,wolfe_004_R_electricalgrid-as,wolfe_004_R_electricalgrid-b,wolfe_004_R_electricalgrid-bs,144.066,-1,18,6300,322,145
A3QOMMIZTW0XF1,NA,NA,wolfe_048_R_art-a,wolfe_048_R_art-as,wolfe_048_R_art-b,wolfe_048_R_art-bs,151.008,-1,19,6313,307,204
A3QOMMIZTW0XF1,NA,NA,wolfe_006_R_vase-a,wolfe_006_R_vase-as,wolfe_006_R_vase-b,wolfe_006_R_vase-bs,157.889,-1,20,6316,374,118
A3QOMMIZTW0XF1,NA,NA,wolfe_078_R_faucet-a,wolfe_078_R_faucet-as,wolfe_078_R_faucet-b,wolfe_078_R_faucet-bs,164.908,-1,21,6361,451,191
A3QOMMIZTW0XF1,NA,NA,wolfe_117_R_plant_sized-a,wolfe_117_R_plant_sized-as,wolfe_117_R_plant_sized-b,wolfe_117_R_plant_sized-bs,171.853,-1,22,6360,287,252
A3QOMMIZTW0XF1,NA,NA,wolfe_066_R_vase-a,wolfe_066_R_vase-as,wolfe_066_R_vase-b,wolfe_066_R_vase-bs,178.84,-1,23,6349,338,215
A3QOMMIZTW0XF1,NA,NA,wolfe_061_R_glass-a,wolfe_061_R_glass-as,wolfe_061_R_glass-b,wolfe_061_R_glass-bs,185.683,-1,24,6340,300,289
A3QOMMIZTW0XF1,NA,NA,wolfe_012_R_tubaccesory-a,wolfe_012_R_tubaccesory-as,wolfe_012_R_tubaccesory-b,wolfe_012_R_tubaccesory-bs,192.41,-1,25,6344,450,184
A3QOMMIZTW0XF1,NA,NA,wolfe_001_R_mirror-a,wolfe_001_R_mirror-as,wolfe_001_R_mirror-b,wolfe_001_R_mirror-bs,199.693,-1,26,6489,452,327
A3QOMMIZTW0XF1,NA,NA,wolfe_053_R_handle-a,wolfe_053_R_handle-as,wolfe_053_R_handle-b,wolfe_053_R_handle-bs,206.473,-1,27,6349,381,176
A3QOMMIZTW0XF1,NA,NA,wolfe_086_R_book-a,wolfe_086_R_book-as,wolfe_086_R_book-b,wolfe_086_R_book-bs,213.206,-1,28,6291,318,260
A3QOMMIZTW0XF1,NA,NA,wolfe_083_R_knob-a,wolfe_083_R_knob-as,wolfe_083_R_knob-b,wolfe_083_R_knob-bs,220.209,-1,29,6390,475,307
A3QOMMIZTW0XF1,NA,NA,wolfe_016_R_art-a,wolfe_016_R_art-as,wolfe_016_R_art-b,wolfe_016_R_art-bs,227.074,-1,30,6322,407,340
A3QOMMIZTW0XF1,NA,NA,wolfe_098_R_slippers-a,wolfe_098_R_slippers-as,wolfe_098_R_slippers-b,wolfe_098_R_slippers-bs,234.454,-1,31,6321,519,234
A3QOMMIZTW0XF1,NA,NA,wolfe_120_R_art-a,wolfe_120_R_art-as,wolfe_120_R_art-b,wolfe_120_R_art-bs,241.425,-1,32,6382,528,238
A3QOMMIZTW0XF1,NA,NA,catchCow-a,catchCow-as,catchCow-b,catchCow-bs,248.697,-1,33,6386,352,89
