workerId,assignmentId,hitId,unmod_image,unmod_image_splash,mod_image,mod_image_splash,expTimer,response,trial_number,rt,x,y
AG0DR7A5Y1976,NA,NA,catchAirplane-a,catchAirplane-as,catchAirplane-b,catchAirplane-bs,24.133,-1,1,7214,324,245
AG0DR7A5Y1976,NA,NA,catchBoat-a,catchBoat-as,catchBoat-b,catchBoat-bs,32.394,-1,2,7188,389,267
AG0DR7A5Y1976,NA,NA,wolfe_086_R_book-a,wolfe_086_R_book-as,wolfe_086_R_book-b,wolfe_086_R_book-bs,53.067,-1,3,19377,427,364
AG0DR7A5Y1976,NA,NA,wolfe_035_R_fruit-a,wolfe_035_R_fruit-as,wolfe_035_R_fruit-b,wolfe_035_R_fruit-bs,73.72,-1,4,19327,530,285
AG0DR7A5Y1976,NA,NA,wolfe_004_R_electricalgrid-a,wolfe_004_R_electricalgrid-as,wolfe_004_R_electricalgrid-b,wolfe_004_R_electricalgrid-bs,85.498,-1,5,10587,412,23
AG0DR7A5Y1976,NA,NA,wolfe_111_R_pot-a,wolfe_111_R_pot-as,wolfe_111_R_pot-b,wolfe_111_R_pot-bs,100.291,-1,6,13841,473,379
AG0DR7A5Y1976,NA,NA,wolfe_012_R_tubaccesory-a,wolfe_012_R_tubaccesory-as,wolfe_012_R_tubaccesory-b,wolfe_012_R_tubaccesory-bs,108.891,-1,7,7718,444,348
AG0DR7A5Y1976,NA,NA,wolfe_085_R_switchboard-a,wolfe_085_R_switchboard-as,wolfe_085_R_switchboard-b,wolfe_085_R_switchboard-bs,117.197,-1,8,7096,503,302
AG0DR7A5Y1976,NA,NA,wolfe_075_R_light-a,wolfe_075_R_light-as,wolfe_075_R_light-b,wolfe_075_R_light-bs,129.345,-1,9,10917,526,52
AG0DR7A5Y1976,NA,NA,wolfe_006_R_vase-a,wolfe_006_R_vase-as,wolfe_006_R_vase-b,wolfe_006_R_vase-bs,140.947,-1,10,10634,469,254
AG0DR7A5Y1976,NA,NA,wolfe_050_R_book-a,wolfe_050_R_book-as,wolfe_050_R_book-b,wolfe_050_R_book-bs,149.016,-1,11,7184,563,60
AG0DR7A5Y1976,NA,NA,wolfe_008_R_bottle-a,wolfe_008_R_bottle-as,wolfe_008_R_bottle-b,wolfe_008_R_bottle-bs,172.455,-1,12,21835,595,310
AG0DR7A5Y1976,NA,NA,wolfe_064_R_bottles-a,wolfe_064_R_bottles-as,wolfe_064_R_bottles-b,wolfe_064_R_bottles-bs,180.134,-1,13,6795,552,225
AG0DR7A5Y1976,NA,NA,wolfe_105_R_hat-a,wolfe_105_R_hat-as,wolfe_105_R_hat-b,wolfe_105_R_hat-bs,189.907,-1,14,8829,537,423
AG0DR7A5Y1976,NA,NA,wolfe_122_R_chair-a,wolfe_122_R_chair-as,wolfe_122_R_chair-b,wolfe_122_R_chair-bs,206.224,-1,15,15168,397,152
AG0DR7A5Y1976,NA,NA,wolfe_023_R_remote-a,wolfe_023_R_remote-as,wolfe_023_R_remote-b,wolfe_023_R_remote-bs,214.033,-1,16,6939,453,473
AG0DR7A5Y1976,NA,NA,wolfe_084_R_light-a,wolfe_084_R_light-as,wolfe_084_R_light-b,wolfe_084_R_light-bs,222.516,-1,17,7258,527,147
AG0DR7A5Y1976,NA,NA,wolfe_055_R_carpet-a,wolfe_055_R_carpet-as,wolfe_055_R_carpet-b,wolfe_055_R_carpet-bs,232.336,-1,18,8728,435,402
AG0DR7A5Y1976,NA,NA,wolfe_026_R_rack-a,wolfe_026_R_rack-as,wolfe_026_R_rack-b,wolfe_026_R_rack-bs,247.879,-1,19,14507,614,280
AG0DR7A5Y1976,NA,NA,wolfe_073_R_coffeemug-a,wolfe_073_R_coffeemug-as,wolfe_073_R_coffeemug-b,wolfe_073_R_coffeemug-bs,257.991,-1,20,8709,625,219
AG0DR7A5Y1976,NA,NA,wolfe_121_R_car-a,wolfe_121_R_car-as,wolfe_121_R_car-b,wolfe_121_R_car-bs,267.895,-1,21,8466,618,344
AG0DR7A5Y1976,NA,NA,wolfe_049_R_painting-a,wolfe_049_R_painting-as,wolfe_049_R_painting-b,wolfe_049_R_painting-bs,277.386,-1,22,8532,538,122
AG0DR7A5Y1976,NA,NA,wolfe_032_R_bottle-a,wolfe_032_R_bottle-as,wolfe_032_R_bottle-b,wolfe_032_R_bottle-bs,285.108,-1,23,7017,420,149
AG0DR7A5Y1976,NA,NA,wolfe_127_R_light-a,wolfe_127_R_light-as,wolfe_127_R_light-b,wolfe_127_R_light-bs,296.506,-1,24,10449,464,207
AG0DR7A5Y1976,NA,NA,wolfe_045_R_musicdock-a,wolfe_045_R_musicdock-as,wolfe_045_R_musicdock-b,wolfe_045_R_musicdock-bs,304.827,-1,25,7122,586,264
AG0DR7A5Y1976,NA,NA,wolfe_011_R_parfum-a,wolfe_011_R_parfum-as,wolfe_011_R_parfum-b,wolfe_011_R_parfum-bs,313.738,-1,26,8498,394,340
AG0DR7A5Y1976,NA,NA,wolfe_099_R_sconce-a,wolfe_099_R_sconce-as,wolfe_099_R_sconce-b,wolfe_099_R_sconce-bs,321.885,-1,27,7058,465,162
AG0DR7A5Y1976,NA,NA,wolfe_078_R_faucet-a,wolfe_078_R_faucet-as,wolfe_078_R_faucet-b,wolfe_078_R_faucet-bs,332.332,-1,28,8590,396,368
AG0DR7A5Y1976,NA,NA,wolfe_022_R_lamp-a,wolfe_022_R_lamp-as,wolfe_022_R_lamp-b,wolfe_022_R_lamp-bs,341.8,-1,29,8529,422,50
AG0DR7A5Y1976,NA,NA,wolfe_113_R_plant-a,wolfe_113_R_plant-as,wolfe_113_R_plant-b,wolfe_113_R_plant-bs,357.546,-1,30,14781,361,266
AG0DR7A5Y1976,NA,NA,wolfe_061_R_glass-a,wolfe_061_R_glass-as,wolfe_061_R_glass-b,wolfe_061_R_glass-bs,497.762,-1,31,60000,557,183
AG0DR7A5Y1976,NA,NA,wolfe_027_R_soapdish-a,wolfe_027_R_soapdish-as,wolfe_027_R_soapdish-b,wolfe_027_R_soapdish-bs,497.764,-1,32,136811,557,183
AG0DR7A5Y1976,NA,NA,catchCow-a,catchCow-as,catchCow-b,catchCow-bs,505.588,-1,33,7233,362,231
