workerId,assignmentId,hitId,unmod_image,unmod_image_splash,mod_image,mod_image_splash,expTimer,response,trial_number,rt,x,y
AHUO072N55J8H,NA,NA,catchAirplane-a,catchAirplane-as,catchAirplane-b,catchAirplane-bs,49.634,-1,1,7586,310,258
AHUO072N55J8H,NA,NA,catchBoat-a,catchBoat-as,catchBoat-b,catchBoat-bs,65.146,-1,2,13656,385,268
AHUO072N55J8H,NA,NA,wolfe_013_L_lamp-a,wolfe_013_L_lamp-as,wolfe_013_L_lamp-b,wolfe_013_L_lamp-bs,94.521,-1,3,26960,147,168
AHUO072N55J8H,NA,NA,wolfe_012_L_tubaccesory-a,wolfe_012_L_tubaccesory-as,wolfe_012_L_tubaccesory-b,wolfe_012_L_tubaccesory-bs,105.597,-1,4,8793,219,348
AHUO072N55J8H,NA,NA,wolfe_009_L_carpet-a,wolfe_009_L_carpet-as,wolfe_009_L_carpet-b,wolfe_009_L_carpet-bs,133.097,-1,5,25877,218,437
AHUO072N55J8H,NA,NA,wolfe_019_L_lamp_sized-a,wolfe_019_L_lamp_sized-as,wolfe_019_L_lamp_sized-b,wolfe_019_L_lamp_sized-bs,164.273,-1,6,29544,187,134
AHUO072N55J8H,NA,NA,wolfe_064_L_bottles-a,wolfe_064_L_bottles-as,wolfe_064_L_bottles-b,wolfe_064_L_bottles-bs,177.881,-1,7,12040,108,215
AHUO072N55J8H,NA,NA,wolfe_061_L_glass-a,wolfe_061_L_glass-as,wolfe_061_L_glass-b,wolfe_061_L_glass-bs,189.589,-1,8,9849,252,212
AHUO072N55J8H,NA,NA,wolfe_092_L_candles-a,wolfe_092_L_candles-as,wolfe_092_L_candles-b,wolfe_092_L_candles-bs,210.192,-1,9,18693,20,457
AHUO072N55J8H,NA,NA,wolfe_079_L_bowl-a,wolfe_079_L_bowl-as,wolfe_079_L_bowl-b,wolfe_079_L_bowl-bs,258.452,-1,10,46847,258,100
AHUO072N55J8H,NA,NA,wolfe_014_L_lamp-a,wolfe_014_L_lamp-as,wolfe_014_L_lamp-b,wolfe_014_L_lamp-bs,301.547,-1,11,41542,161,115
AHUO072N55J8H,NA,NA,wolfe_051_L_owl-a,wolfe_051_L_owl-as,wolfe_051_L_owl-b,wolfe_051_L_owl-bs,311.712,-1,12,8596,278,303
AHUO072N55J8H,NA,NA,wolfe_069_L_things-a,wolfe_069_L_things-as,wolfe_069_L_things-b,wolfe_069_L_things-bs,322.16,-1,13,8777,60,128
AHUO072N55J8H,NA,NA,wolfe_072_L_handle-a,wolfe_072_L_handle-as,wolfe_072_L_handle-b,wolfe_072_L_handle-bs,333.879,-1,14,9641,94,437
AHUO072N55J8H,NA,NA,wolfe_052_L_speaker-a,wolfe_052_L_speaker-as,wolfe_052_L_speaker-b,wolfe_052_L_speaker-bs,360.614,-1,15,25705,176,338
AHUO072N55J8H,NA,NA,wolfe_093_L_switch-a,wolfe_093_L_switch-as,wolfe_093_L_switch-b,wolfe_093_L_switch-bs,391.386,-1,16,27752,122,358
AHUO072N55J8H,NA,NA,wolfe_076_L_hook-a,wolfe_076_L_hook-as,wolfe_076_L_hook-b,wolfe_076_L_hook-bs,431.258,-1,17,38965,29,208
AHUO072N55J8H,NA,NA,wolfe_095_L_candle-a,wolfe_095_L_candle-as,wolfe_095_L_candle-b,wolfe_095_L_candle-bs,442.218,-1,18,9654,206,291
AHUO072N55J8H,NA,NA,wolfe_101_L_cup-a,wolfe_101_L_cup-as,wolfe_101_L_cup-b,wolfe_101_L_cup-bs,455.047,-1,19,11894,311,146
AHUO072N55J8H,NA,NA,wolfe_108_L_boa-a,wolfe_108_L_boa-as,wolfe_108_L_boa-b,wolfe_108_L_boa-bs,465.818,-1,20,10137,323,216
AHUO072N55J8H,NA,NA,wolfe_119_L_painting-a,wolfe_119_L_painting-as,wolfe_119_L_painting-b,wolfe_119_L_painting-bs,476.41,-1,21,9685,257,242
AHUO072N55J8H,NA,NA,wolfe_031_L_log-a,wolfe_031_L_log-as,wolfe_031_L_log-b,wolfe_031_L_log-bs,511.442,-1,22,34469,168,25
AHUO072N55J8H,NA,NA,wolfe_116_L_basket-a,wolfe_116_L_basket-as,wolfe_116_L_basket-b,wolfe_116_L_basket-bs,526.933,-1,23,13854,122,435
AHUO072N55J8H,NA,NA,wolfe_027_L_soapdish-a,wolfe_027_L_soapdish-as,wolfe_027_L_soapdish-b,wolfe_027_L_soapdish-bs,560.521,-1,24,32904,41,275
AHUO072N55J8H,NA,NA,wolfe_055_L_carpet-a,wolfe_055_L_carpet-as,wolfe_055_L_carpet-b,wolfe_055_L_carpet-bs,570.46,-1,25,9213,229,395
AHUO072N55J8H,NA,NA,wolfe_054_L_firewood-a,wolfe_054_L_firewood-as,wolfe_054_L_firewood-b,wolfe_054_L_firewood-bs,593.657,-1,26,22392,17,312
AHUO072N55J8H,NA,NA,wolfe_004_L_electricalgrid-a,wolfe_004_L_electricalgrid-as,wolfe_004_L_electricalgrid-b,wolfe_004_L_electricalgrid-bs,607.101,-1,27,12463,250,31
AHUO072N55J8H,NA,NA,wolfe_045_L_musicdock-a,wolfe_045_L_musicdock-as,wolfe_045_L_musicdock-b,wolfe_045_L_musicdock-bs,622.301,-1,28,14235,68,275
AHUO072N55J8H,NA,NA,wolfe_003_L_ducks-a,wolfe_003_L_ducks-as,wolfe_003_L_ducks-b,wolfe_003_L_ducks-bs,636.621,-1,29,13674,250,329
AHUO072N55J8H,NA,NA,wolfe_073_L_coffeemug-a,wolfe_073_L_coffeemug-as,wolfe_073_L_coffeemug-b,wolfe_073_L_coffeemug-bs,670.872,-1,30,33130,44,222
AHUO072N55J8H,NA,NA,wolfe_067_L_painting-a,wolfe_067_L_painting-as,wolfe_067_L_painting-b,wolfe_067_L_painting-bs,679.36,-1,31,7915,36,335
AHUO072N55J8H,NA,NA,wolfe_041_L_fruit-a,wolfe_041_L_fruit-as,wolfe_041_L_fruit-b,wolfe_041_L_fruit-bs,706.744,-1,32,26407,73,347
AHUO072N55J8H,NA,NA,catchCow-a,catchCow-as,catchCow-b,catchCow-bs,716.784,-1,33,8726,332,239
