workerId,assignmentId,hitId,unmod_image,unmod_image_splash,mod_image,mod_image_splash,expTimer,response,trial_number,rt,x,y
AZOO1NLIYXGZ4,NA,NA,catchAirplane-a,catchAirplane-as,catchAirplane-b,catchAirplane-bs,152.778,-1,1,14195,382,261
AZOO1NLIYXGZ4,NA,NA,wolfe_073_R_coffeemug-a,wolfe_073_R_coffeemug-as,wolfe_073_R_coffeemug-b,wolfe_073_R_coffeemug-bs,152.792,-1,4,17333,382,261
AZOO1NLIYXGZ4,NA,NA,wolfe_035_R_fruit-a,wolfe_035_R_fruit-as,wolfe_035_R_fruit-b,wolfe_035_R_fruit-bs,152.796,-1,5,17549,382,261
AZOO1NLIYXGZ4,NA,NA,catchBoat-a,catchBoat-as,catchBoat-b,catchBoat-bs,152.783,-1,2,16375,382,261
AZOO1NLIYXGZ4,NA,NA,wolfe_037_R_towel-a,wolfe_037_R_towel-as,wolfe_037_R_towel-b,wolfe_037_R_towel-bs,152.788,-1,3,17088,382,261
AZOO1NLIYXGZ4,NA,NA,wolfe_003_R_ducks-a,wolfe_003_R_ducks-as,wolfe_003_R_ducks-b,wolfe_003_R_ducks-bs,152.804,-1,6,17749,382,261
AZOO1NLIYXGZ4,NA,NA,wolfe_113_R_plant-a,wolfe_113_R_plant-as,wolfe_113_R_plant-b,wolfe_113_R_plant-bs,152.809,-1,7,38974,382,261
AZOO1NLIYXGZ4,NA,NA,wolfe_091_R_airfreshener-a,wolfe_091_R_airfreshener-as,wolfe_091_R_airfreshener-b,wolfe_091_R_airfreshener-bs,152.811,-1,8,39177,382,261
AZOO1NLIYXGZ4,NA,NA,wolfe_103_R_hook-a,wolfe_103_R_hook-as,wolfe_103_R_hook-b,wolfe_103_R_hook-bs,152.823,-1,9,39379,382,261
AZOO1NLIYXGZ4,NA,NA,wolfe_023_R_remote-a,wolfe_023_R_remote-as,wolfe_023_R_remote-b,wolfe_023_R_remote-bs,152.827,-1,10,39540,382,261
AZOO1NLIYXGZ4,NA,NA,wolfe_024_R_towels-a,wolfe_024_R_towels-as,wolfe_024_R_towels-b,wolfe_024_R_towels-bs,152.832,-1,11,39730,382,261
AZOO1NLIYXGZ4,NA,NA,wolfe_021_R_keyboard-a,wolfe_021_R_keyboard-as,wolfe_021_R_keyboard-b,wolfe_021_R_keyboard-bs,152.841,-1,12,39877,382,261
AZOO1NLIYXGZ4,NA,NA,wolfe_030_R_drawer-a,wolfe_030_R_drawer-as,wolfe_030_R_drawer-b,wolfe_030_R_drawer-bs,152.845,-1,13,40034,382,261
AZOO1NLIYXGZ4,NA,NA,wolfe_122_R_chair-a,wolfe_122_R_chair-as,wolfe_122_R_chair-b,wolfe_122_R_chair-bs,152.848,-1,14,42244,382,261
AZOO1NLIYXGZ4,NA,NA,wolfe_119_R_painting-a,wolfe_119_R_painting-as,wolfe_119_R_painting-b,wolfe_119_R_painting-bs,199.025,-1,19,10590,348,230
AZOO1NLIYXGZ4,NA,NA,wolfe_088_R_clock-a,wolfe_088_R_clock-as,wolfe_088_R_clock-b,wolfe_088_R_clock-bs,199.015,-1,17,10195,348,230
AZOO1NLIYXGZ4,NA,NA,wolfe_114_R_bird-a,wolfe_114_R_bird-as,wolfe_114_R_bird-b,wolfe_114_R_bird-bs,199.029,-1,20,25046,348,230
AZOO1NLIYXGZ4,NA,NA,wolfe_083_R_knob-a,wolfe_083_R_knob-as,wolfe_083_R_knob-b,wolfe_083_R_knob-bs,199.006,-1,15,9881,348,230
AZOO1NLIYXGZ4,NA,NA,wolfe_121_R_car-a,wolfe_121_R_car-as,wolfe_121_R_car-b,wolfe_121_R_car-bs,199.009,-1,16,10058,348,230
AZOO1NLIYXGZ4,NA,NA,wolfe_107_R_shirts-a,wolfe_107_R_shirts-as,wolfe_107_R_shirts-b,wolfe_107_R_shirts-bs,199.021,-1,18,10359,348,230
AZOO1NLIYXGZ4,NA,NA,wolfe_106_R_toweldispenser-a,wolfe_106_R_toweldispenser-as,wolfe_106_R_toweldispenser-b,wolfe_106_R_toweldispenser-bs,199.03,-1,21,25221,348,230
AZOO1NLIYXGZ4,NA,NA,wolfe_099_R_sconce-a,wolfe_099_R_sconce-as,wolfe_099_R_sconce-b,wolfe_099_R_sconce-bs,199.032,-1,22,25398,348,230
AZOO1NLIYXGZ4,NA,NA,wolfe_066_R_vase-a,wolfe_066_R_vase-as,wolfe_066_R_vase-b,wolfe_066_R_vase-bs,199.034,-1,23,25545,348,230
AZOO1NLIYXGZ4,NA,NA,wolfe_014_R_lamp-a,wolfe_014_R_lamp-as,wolfe_014_R_lamp-b,wolfe_014_R_lamp-bs,199.035,-1,24,25726,348,230
AZOO1NLIYXGZ4,NA,NA,wolfe_087_R_towelhandle-a,wolfe_087_R_towelhandle-as,wolfe_087_R_towelhandle-b,wolfe_087_R_towelhandle-bs,222.786,-1,25,21710,461,247
AZOO1NLIYXGZ4,NA,NA,wolfe_058_R_clutch-a,wolfe_058_R_clutch-as,wolfe_058_R_clutch-b,wolfe_058_R_clutch-bs,222.789,-1,26,21926,461,247
AZOO1NLIYXGZ4,NA,NA,wolfe_109_R_pillow-a,wolfe_109_R_pillow-as,wolfe_109_R_pillow-b,wolfe_109_R_pillow-bs,222.802,-1,28,22181,461,247
AZOO1NLIYXGZ4,NA,NA,wolfe_034_R_handle-a,wolfe_034_R_handle-as,wolfe_034_R_handle-b,wolfe_034_R_handle-bs,222.793,-1,27,22026,461,247
AZOO1NLIYXGZ4,NA,NA,wolfe_054_R_firewood-a,wolfe_054_R_firewood-as,wolfe_054_R_firewood-b,wolfe_054_R_firewood-bs,228.709,-1,31,5097,366,169
AZOO1NLIYXGZ4,NA,NA,wolfe_081_R_football-a,wolfe_081_R_football-as,wolfe_081_R_football-b,wolfe_081_R_football-bs,228.702,-1,29,4449,366,169
AZOO1NLIYXGZ4,NA,NA,catchCow-a,catchCow-as,catchCow-b,catchCow-bs,228.721,-1,33,5419,366,169
AZOO1NLIYXGZ4,NA,NA,wolfe_062_R_flowers-a,wolfe_062_R_flowers-as,wolfe_062_R_flowers-b,wolfe_062_R_flowers-bs,228.705,-1,30,4763,366,169
AZOO1NLIYXGZ4,NA,NA,wolfe_101_R_cup-a,wolfe_101_R_cup-as,wolfe_101_R_cup-b,wolfe_101_R_cup-bs,228.714,-1,32,5248,366,169
