consent_response.keys,consent_response.rt,key_resp_2.keys,key_resp_2.rt,user_resp.keys,user_resp.rt,trials.thisRepN,trials.thisTrialN,trials.thisN,trials.thisIndex,trials.ran,image_1_text,image_2_text,database,image,number,age,worker_ID,date,expName,psychopyVersion,OS,frameRate,hitId,workerId,assignmentId,a,tp_a,b,tp_b,c,tp_c,catch_same_resp.keys,catch_same_resp.rt,image_1_text_catch_same,image_2_text_catch_same,image_catch_same,catch_different_resp.keys,catch_different_resp.rt,image_1_text_catch_different,image_2_text_catch_different,image_catch_different
space,3.39697,space,12.84478,5,11.658465,0,0,0,7,1,a parachute that has four different colors and the colors narrow in the middle,a parachute that the colors narrow in the middle,ma,12178414,8,23,A29LYIS36PQSOF,2021-01-10_00h13.51.813,MetaAwareness,2020.1.2,Win32,60,379OL9DBSTHFV397CQYN0OO65U7Y9V,A29LYIS36PQSOF,35USIKEBNSJ1N51PXJR2NHUL1O1N6N,BIU52,BIU52,35USIKEBNSJ1N51PXJR2NHUL1O1N6N,35USIKEBNSJ1N51PXJR2NHUL1O1N6N,268152,268152,,,,,,,,,,
,,,,5,6.235085,0,1,1,6,1,a hot air balloon with a purple stripe in the center.,a hot air balloon with green and yellow stripes in the center.,ma,12178414,3,23,A29LYIS36PQSOF,2021-01-10_00h13.51.813,MetaAwareness,2020.1.2,Win32,60,379OL9DBSTHFV397CQYN0OO65U7Y9V,A29LYIS36PQSOF,35USIKEBNSJ1N51PXJR2NHUL1O1N6N,BIU52,BIU52,35USIKEBNSJ1N51PXJR2NHUL1O1N6N,35USIKEBNSJ1N51PXJR2NHUL1O1N6N,268152,268152,,,,,,,,,,
,,,,5,15.707,0,2,2,13,1,a rock shop having a longer window on the wall,a rock shop having a shorter window on the wall,ma,16527526,3,23,A29LYIS36PQSOF,2021-01-10_00h13.51.813,MetaAwareness,2020.1.2,Win32,60,379OL9DBSTHFV397CQYN0OO65U7Y9V,A29LYIS36PQSOF,35USIKEBNSJ1N51PXJR2NHUL1O1N6N,BIU52,BIU52,35USIKEBNSJ1N51PXJR2NHUL1O1N6N,35USIKEBNSJ1N51PXJR2NHUL1O1N6N,268152,268152,,,,,,,,,,
,,,,5,8.98319,0,3,3,16,1,a set of pirate cupcakes with bags behind them containing a white a long ovular pirate ship sticker,a set of pirate copcakes with bags behind them containing a white wide ovular pirate ship sticker,ma,18345691,6,23,A29LYIS36PQSOF,2021-01-10_00h13.51.813,MetaAwareness,2020.1.2,Win32,60,379OL9DBSTHFV397CQYN0OO65U7Y9V,A29LYIS36PQSOF,35USIKEBNSJ1N51PXJR2NHUL1O1N6N,BIU52,BIU52,35USIKEBNSJ1N51PXJR2NHUL1O1N6N,35USIKEBNSJ1N51PXJR2NHUL1O1N6N,268152,268152,,,,,,,,,,
,,,,4,7.237085,0,4,4,30,1,a picture of a outside table set up for lunch.,a picture of an outside table set up for lunch with forks and knives.,ma,67862299,1,23,A29LYIS36PQSOF,2021-01-10_00h13.51.813,MetaAwareness,2020.1.2,Win32,60,379OL9DBSTHFV397CQYN0OO65U7Y9V,A29LYIS36PQSOF,35USIKEBNSJ1N51PXJR2NHUL1O1N6N,BIU52,BIU52,35USIKEBNSJ1N51PXJR2NHUL1O1N6N,35USIKEBNSJ1N51PXJR2NHUL1O1N6N,268152,268152,,,,,,,,,,
,,,,5,8.315815,0,5,5,20,1,an assortment of house themed knick-knacks including a framed quilted picture featuring a house with a large window,an assortment of house themed knick-knacks including a framed quilted picture featuring a house with a small window,ma,23024660,11,23,A29LYIS36PQSOF,2021-01-10_00h13.51.813,MetaAwareness,2020.1.2,Win32,60,379OL9DBSTHFV397CQYN0OO65U7Y9V,A29LYIS36PQSOF,35USIKEBNSJ1N51PXJR2NHUL1O1N6N,BIU52,BIU52,35USIKEBNSJ1N51PXJR2NHUL1O1N6N,35USIKEBNSJ1N51PXJR2NHUL1O1N6N,268152,268152,,,,,,,,,,
,,,,6,3.70251,0,6,6,40,1,a table with a tablecloth and dishes,a table with a tablecloth and dishes,ma,81993755,5,23,A29LYIS36PQSOF,2021-01-10_00h13.51.813,MetaAwareness,2020.1.2,Win32,60,379OL9DBSTHFV397CQYN0OO65U7Y9V,A29LYIS36PQSOF,35USIKEBNSJ1N51PXJR2NHUL1O1N6N,BIU52,BIU52,35USIKEBNSJ1N51PXJR2NHUL1O1N6N,35USIKEBNSJ1N51PXJR2NHUL1O1N6N,268152,268152,,,,,,,,,,
,,,,5,3.928815,0,7,7,0,1,a fancy dinner table with roses and a large tea light candle in a clam shell.,a fancy dinner table with roses and a small tea light in a clam shell.,ma,10810329,4,23,A29LYIS36PQSOF,2021-01-10_00h13.51.813,MetaAwareness,2020.1.2,Win32,60,379OL9DBSTHFV397CQYN0OO65U7Y9V,A29LYIS36PQSOF,35USIKEBNSJ1N51PXJR2NHUL1O1N6N,BIU52,BIU52,35USIKEBNSJ1N51PXJR2NHUL1O1N6N,35USIKEBNSJ1N51PXJR2NHUL1O1N6N,268152,268152,,,,,,,,,,
,,,,6,7.21422,0,8,8,26,1,"a orange table with crackers and dip, a bowl of pretzels, and a green plate of deviled eggs","a orange table with crackers and dip, a bowl of pretzels, and a green plate of deviled eggs",ma,51537628,7,23,A29LYIS36PQSOF,2021-01-10_00h13.51.813,MetaAwareness,2020.1.2,Win32,60,379OL9DBSTHFV397CQYN0OO65U7Y9V,A29LYIS36PQSOF,35USIKEBNSJ1N51PXJR2NHUL1O1N6N,BIU52,BIU52,35USIKEBNSJ1N51PXJR2NHUL1O1N6N,35USIKEBNSJ1N51PXJR2NHUL1O1N6N,268152,268152,,,,,,,,,,
,,,,4,7.35306,0,9,9,17,1,"a cluttered room with a chest of drawers an lots of nicknacks on it a yellow cloth with a vase, lamp and picture sitting on the chest.","a cluttered room with a ches of drawers and lots of nicknacks on the chest a yellow cloth is on the corner with a vase, lamp, picture frame, and pile of purple stuff.",ma,22020472,2,23,A29LYIS36PQSOF,2021-01-10_00h13.51.813,MetaAwareness,2020.1.2,Win32,60,379OL9DBSTHFV397CQYN0OO65U7Y9V,A29LYIS36PQSOF,35USIKEBNSJ1N51PXJR2NHUL1O1N6N,BIU52,BIU52,35USIKEBNSJ1N51PXJR2NHUL1O1N6N,35USIKEBNSJ1N51PXJR2NHUL1O1N6N,268152,268152,,,,,,,,,,
,,,,5,10.207055,0,10,10,38,1,"a bedroom, with a multi-colored bedspread, and posters hanging on the wall","a bedroom, with a multi-colored bedspread, and posters hanging on the wall. the poster in the center is shorter than the one on the left image.",ma,79573638,5,23,A29LYIS36PQSOF,2021-01-10_00h13.51.813,MetaAwareness,2020.1.2,Win32,60,379OL9DBSTHFV397CQYN0OO65U7Y9V,A29LYIS36PQSOF,35USIKEBNSJ1N51PXJR2NHUL1O1N6N,BIU52,BIU52,35USIKEBNSJ1N51PXJR2NHUL1O1N6N,35USIKEBNSJ1N51PXJR2NHUL1O1N6N,268152,268152,,,,,,,,,,
,,,,5,4.650435,0,11,11,43,1,in the picture the heartin is large,in the picture the heartin is small,ma,88767165,3,23,A29LYIS36PQSOF,2021-01-10_00h13.51.813,MetaAwareness,2020.1.2,Win32,60,379OL9DBSTHFV397CQYN0OO65U7Y9V,A29LYIS36PQSOF,35USIKEBNSJ1N51PXJR2NHUL1O1N6N,BIU52,BIU52,35USIKEBNSJ1N51PXJR2NHUL1O1N6N,35USIKEBNSJ1N51PXJR2NHUL1O1N6N,268152,268152,,,,,,,,,,
,,,,5,5.138435,0,12,12,37,1,a picture of a wall painted with u2 stuff. the words 'u2' are painted on the center right portion of the wall.,a picture of a wall painted with u2 stuff. the words 'u2' are painted on the upper right corner of the wall.,ma,79241011,1,23,A29LYIS36PQSOF,2021-01-10_00h13.51.813,MetaAwareness,2020.1.2,Win32,60,379OL9DBSTHFV397CQYN0OO65U7Y9V,A29LYIS36PQSOF,35USIKEBNSJ1N51PXJR2NHUL1O1N6N,BIU52,BIU52,35USIKEBNSJ1N51PXJR2NHUL1O1N6N,35USIKEBNSJ1N51PXJR2NHUL1O1N6N,268152,268152,,,,,,,,,,
,,,,5,4.649375,0,13,13,29,1,a blue lamb surrounded by wooden numbered squares with a tilted 6,a blue lamb surrounded by wooden numbered squares with a straight 6,ma,62096551,3,23,A29LYIS36PQSOF,2021-01-10_00h13.51.813,MetaAwareness,2020.1.2,Win32,60,379OL9DBSTHFV397CQYN0OO65U7Y9V,A29LYIS36PQSOF,35USIKEBNSJ1N51PXJR2NHUL1O1N6N,BIU52,BIU52,35USIKEBNSJ1N51PXJR2NHUL1O1N6N,35USIKEBNSJ1N51PXJR2NHUL1O1N6N,268152,268152,,,,,,,,,,
,,,,5,5.486545,0,14,14,1,1,a table setting with candle lights that are larger in size,a table setting with candle lights that are smaller in size,ma,10810329,10,23,A29LYIS36PQSOF,2021-01-10_00h13.51.813,MetaAwareness,2020.1.2,Win32,60,379OL9DBSTHFV397CQYN0OO65U7Y9V,A29LYIS36PQSOF,35USIKEBNSJ1N51PXJR2NHUL1O1N6N,BIU52,BIU52,35USIKEBNSJ1N51PXJR2NHUL1O1N6N,35USIKEBNSJ1N51PXJR2NHUL1O1N6N,268152,268152,,,,,,,,,,
,,,,5,6.607305,0,15,15,39,1,"a circuit board sits on a table, and there is a long metal piece in the middle bottom of it.","a circuit board sits on a table, and there is a short metal piece in the middle bottom of it, closer to the left side.",ma,8197559,5,23,A29LYIS36PQSOF,2021-01-10_00h13.51.813,MetaAwareness,2020.1.2,Win32,60,379OL9DBSTHFV397CQYN0OO65U7Y9V,A29LYIS36PQSOF,35USIKEBNSJ1N51PXJR2NHUL1O1N6N,BIU52,BIU52,35USIKEBNSJ1N51PXJR2NHUL1O1N6N,35USIKEBNSJ1N51PXJR2NHUL1O1N6N,268152,268152,,,,,,,,,,
,,,,5,5.352445,0,16,16,12,1,a picture of a storefront with holiday lights and a long firehose.,a picture of a storefront with holiday lights and a short firehose.,ma,16527526,1,23,A29LYIS36PQSOF,2021-01-10_00h13.51.813,MetaAwareness,2020.1.2,Win32,60,379OL9DBSTHFV397CQYN0OO65U7Y9V,A29LYIS36PQSOF,35USIKEBNSJ1N51PXJR2NHUL1O1N6N,BIU52,BIU52,35USIKEBNSJ1N51PXJR2NHUL1O1N6N,35USIKEBNSJ1N51PXJR2NHUL1O1N6N,268152,268152,,,,,,,,,,
,,,,5,6.6385,0,17,17,32,1,an array of brand logos and business addresses with one on the left showing a web address near the bottom,an array of brand logos and business addresses with one on the left showing a web address directly under a phone number.,ma,69128765,9,23,A29LYIS36PQSOF,2021-01-10_00h13.51.813,MetaAwareness,2020.1.2,Win32,60,379OL9DBSTHFV397CQYN0OO65U7Y9V,A29LYIS36PQSOF,35USIKEBNSJ1N51PXJR2NHUL1O1N6N,BIU52,BIU52,35USIKEBNSJ1N51PXJR2NHUL1O1N6N,35USIKEBNSJ1N51PXJR2NHUL1O1N6N,268152,268152,,,,,,,,,,
,,,,4,6.078635,0,18,18,18,1,a group of photos are surrounded by flowers and decorative objects. there is nothing in the middle right side on the yellow blanket below the white photo.,a group of photos are surrounded by flowers and decorative objects. there is a group of purple flower pettles on the yellow blanket below the white photo.,ma,22020472,4,23,A29LYIS36PQSOF,2021-01-10_00h13.51.813,MetaAwareness,2020.1.2,Win32,60,379OL9DBSTHFV397CQYN0OO65U7Y9V,A29LYIS36PQSOF,35USIKEBNSJ1N51PXJR2NHUL1O1N6N,BIU52,BIU52,35USIKEBNSJ1N51PXJR2NHUL1O1N6N,35USIKEBNSJ1N51PXJR2NHUL1O1N6N,268152,268152,,,,,,,,,,
,,,,5,2.252275,0,19,19,19,1,a frame on a table,a frame with a quilt on a table,ma,23024660,6,23,A29LYIS36PQSOF,2021-01-10_00h13.51.813,MetaAwareness,2020.1.2,Win32,60,379OL9DBSTHFV397CQYN0OO65U7Y9V,A29LYIS36PQSOF,35USIKEBNSJ1N51PXJR2NHUL1O1N6N,BIU52,BIU52,35USIKEBNSJ1N51PXJR2NHUL1O1N6N,35USIKEBNSJ1N51PXJR2NHUL1O1N6N,268152,268152,,,,,,,,,,
,,,,4,6.147205,0,20,20,8,1,a harvest type quilt with small pumpkins laying on it. a small yellow pumpkin or yellow tomato lies on the quilit beside two other yellow pumkins and a red onion.,a harvest type quilt with small pumpkins laying on it.  two small yellow pumpkins or possible yellow tomotoes with a red onion.,ma,1383096,4,23,A29LYIS36PQSOF,2021-01-10_00h13.51.813,MetaAwareness,2020.1.2,Win32,60,379OL9DBSTHFV397CQYN0OO65U7Y9V,A29LYIS36PQSOF,35USIKEBNSJ1N51PXJR2NHUL1O1N6N,BIU52,BIU52,35USIKEBNSJ1N51PXJR2NHUL1O1N6N,35USIKEBNSJ1N51PXJR2NHUL1O1N6N,268152,268152,,,,,,,,,,
,,,,5,5.468735,0,21,21,4,1,a cake decorated like wall-e with a red arm,a cake decorated like wall-e with a yellow arm,ma,12115280,5,23,A29LYIS36PQSOF,2021-01-10_00h13.51.813,MetaAwareness,2020.1.2,Win32,60,379OL9DBSTHFV397CQYN0OO65U7Y9V,A29LYIS36PQSOF,35USIKEBNSJ1N51PXJR2NHUL1O1N6N,BIU52,BIU52,35USIKEBNSJ1N51PXJR2NHUL1O1N6N,35USIKEBNSJ1N51PXJR2NHUL1O1N6N,268152,268152,,,,,,,,,,
,,,,5,9.157565,0,22,22,5,1,"the inside of a hot air baloon that features a colorful pattern of pink, red, yellow, blue and green","the inside of a hot air balloon that features a colorful pattern of red, yellow, blue and green",ma,12178414,2,23,A29LYIS36PQSOF,2021-01-10_00h13.51.813,MetaAwareness,2020.1.2,Win32,60,379OL9DBSTHFV397CQYN0OO65U7Y9V,A29LYIS36PQSOF,35USIKEBNSJ1N51PXJR2NHUL1O1N6N,BIU52,BIU52,35USIKEBNSJ1N51PXJR2NHUL1O1N6N,35USIKEBNSJ1N51PXJR2NHUL1O1N6N,268152,268152,,,,,,,,,,
,,,,5,5.66656,0,23,23,27,1,a wall of kids artwork in  a child's room,a colorful painting in a child's room,ma,51856108,2,23,A29LYIS36PQSOF,2021-01-10_00h13.51.813,MetaAwareness,2020.1.2,Win32,60,379OL9DBSTHFV397CQYN0OO65U7Y9V,A29LYIS36PQSOF,35USIKEBNSJ1N51PXJR2NHUL1O1N6N,BIU52,BIU52,35USIKEBNSJ1N51PXJR2NHUL1O1N6N,35USIKEBNSJ1N51PXJR2NHUL1O1N6N,268152,268152,,,,,,,,,,
,,,,4,6.600115,0,24,24,50,1,a desk with folders and monitors. the silver item in the box is almost as tall as the image,a desk with folders and monitors. the silver item in the box is much smaller than in the other image.,ma,98156944,4,23,A29LYIS36PQSOF,2021-01-10_00h13.51.813,MetaAwareness,2020.1.2,Win32,60,379OL9DBSTHFV397CQYN0OO65U7Y9V,A29LYIS36PQSOF,35USIKEBNSJ1N51PXJR2NHUL1O1N6N,BIU52,BIU52,35USIKEBNSJ1N51PXJR2NHUL1O1N6N,35USIKEBNSJ1N51PXJR2NHUL1O1N6N,268152,268152,,,,,,,,,,
,,,,5,5.59801,0,25,25,9,1,a black ploow on a chair,a chair with a black pillow on it.,ma,13873251,1,23,A29LYIS36PQSOF,2021-01-10_00h13.51.813,MetaAwareness,2020.1.2,Win32,60,379OL9DBSTHFV397CQYN0OO65U7Y9V,A29LYIS36PQSOF,35USIKEBNSJ1N51PXJR2NHUL1O1N6N,BIU52,BIU52,35USIKEBNSJ1N51PXJR2NHUL1O1N6N,35USIKEBNSJ1N51PXJR2NHUL1O1N6N,268152,268152,,,,,,,,,,
,,,,5,3.385275,0,26,26,35,1,there's a green bag in the yellow box,there's a black bag in the yellow box,ma,79191795,3,23,A29LYIS36PQSOF,2021-01-10_00h13.51.813,MetaAwareness,2020.1.2,Win32,60,379OL9DBSTHFV397CQYN0OO65U7Y9V,A29LYIS36PQSOF,35USIKEBNSJ1N51PXJR2NHUL1O1N6N,BIU52,BIU52,35USIKEBNSJ1N51PXJR2NHUL1O1N6N,35USIKEBNSJ1N51PXJR2NHUL1O1N6N,268152,268152,,,,,,,,,,
,,,,5,5.54065,0,27,27,49,1,a building with six windows where the second window is closed along with others.,a building with six windows where the second window is half opened unlike others.,ma,95091295,11,23,A29LYIS36PQSOF,2021-01-10_00h13.51.813,MetaAwareness,2020.1.2,Win32,60,379OL9DBSTHFV397CQYN0OO65U7Y9V,A29LYIS36PQSOF,35USIKEBNSJ1N51PXJR2NHUL1O1N6N,BIU52,BIU52,35USIKEBNSJ1N51PXJR2NHUL1O1N6N,35USIKEBNSJ1N51PXJR2NHUL1O1N6N,268152,268152,,,,,,,,,,
,,,,5,7.45447,0,28,28,25,1,sushi dish with a long piece of white sushi,sushu dish with a white short piece of sushi,ma,48486405,2,23,A29LYIS36PQSOF,2021-01-10_00h13.51.813,MetaAwareness,2020.1.2,Win32,60,379OL9DBSTHFV397CQYN0OO65U7Y9V,A29LYIS36PQSOF,35USIKEBNSJ1N51PXJR2NHUL1O1N6N,BIU52,BIU52,35USIKEBNSJ1N51PXJR2NHUL1O1N6N,35USIKEBNSJ1N51PXJR2NHUL1O1N6N,268152,268152,,,,,,,,,,
,,,,5,17.093325,0,29,29,48,1,a building with windows that are all half shaded on the top.,a building with windows that are all half shaded with one window shaded in the middle,ma,95091295,9,23,A29LYIS36PQSOF,2021-01-10_00h13.51.813,MetaAwareness,2020.1.2,Win32,60,379OL9DBSTHFV397CQYN0OO65U7Y9V,A29LYIS36PQSOF,35USIKEBNSJ1N51PXJR2NHUL1O1N6N,BIU52,BIU52,35USIKEBNSJ1N51PXJR2NHUL1O1N6N,35USIKEBNSJ1N51PXJR2NHUL1O1N6N,268152,268152,,,,,,,,,,
,,,,,,,,,,,,,,,,23,A29LYIS36PQSOF,2021-01-10_00h13.51.813,MetaAwareness,2020.1.2,Win32,60,379OL9DBSTHFV397CQYN0OO65U7Y9V,A29LYIS36PQSOF,35USIKEBNSJ1N51PXJR2NHUL1O1N6N,BIU52,BIU52,35USIKEBNSJ1N51PXJR2NHUL1O1N6N,35USIKEBNSJ1N51PXJR2NHUL1O1N6N,268152,268152,6,4.84908,someone laying underneath a blue beach umbrella on a crowded beach,someone laying underneath a blue beach umbrella on a crowded beach,same,1,6.27245,members of a marching band crossing a track that all have feather plumes at the front of their hats,a cluttered and rustic looking cafe with 10 hanging lights,different
