consent_response.keys,consent_response.rt,key_resp_2.keys,key_resp_2.rt,user_resp.keys,user_resp.rt,trials.thisRepN,trials.thisTrialN,trials.thisN,trials.thisIndex,trials.ran,image_1_text,image_2_text,database,image,number,age,worker_ID,date,expName,psychopyVersion,OS,frameRate,hitId,workerId,assignmentId,a,tp_a,b,tp_b,c,tp_c,catch_same_resp.keys,catch_same_resp.rt,image_1_text_catch_same,image_2_text_catch_same,image_catch_same,catch_different_resp.keys,catch_different_resp.rt,image_1_text_catch_different,image_2_text_catch_different,image_catch_different
space,13.469,space,5.485,5,37.876,0,0,0,219,1,three tombs were shown in the building,two tombs were shown in the building.,rensink,Mosque,7,40,A18ASA8WO5DUS6,2021-01-06_10h47.34.209,MetaAwareness,2020.1.2,Win32,60,3BCRDCM0OEXXTFISA4UK76ITHBUK69,A18ASA8WO5DUS6,39KFRKBFIOYLOAB74HM7LXEJPWWOYB,FRK97,FRK97,39KFRKBFIOYLOAB74HM7LXEJPWWOYB,39KFRKBFIOYLOAB74HM7LXEJPWWOYB,267577,267577,,,,,,,,,,
,,,,4,7.285,0,1,1,89,1,there is a pilot flying a helicopter and there is a white helicopter directly to the righ of him in the sky. ,there is a pilot flying a helicopter and there is a white helicopter directly top right of him in the sky. ,rensink,Cockpit,2,40,A18ASA8WO5DUS6,2021-01-06_10h47.34.209,MetaAwareness,2020.1.2,Win32,60,3BCRDCM0OEXXTFISA4UK76ITHBUK69,A18ASA8WO5DUS6,39KFRKBFIOYLOAB74HM7LXEJPWWOYB,FRK97,FRK97,39KFRKBFIOYLOAB74HM7LXEJPWWOYB,39KFRKBFIOYLOAB74HM7LXEJPWWOYB,267577,267577,,,,,,,,,,
,,,,5,6.666,0,2,2,275,1,people are relaxing on the lake. there are three boats,people are relaxing on the lake. there are two boats,rensink,SummerLake,6,40,A18ASA8WO5DUS6,2021-01-06_10h47.34.209,MetaAwareness,2020.1.2,Win32,60,3BCRDCM0OEXXTFISA4UK76ITHBUK69,A18ASA8WO5DUS6,39KFRKBFIOYLOAB74HM7LXEJPWWOYB,FRK97,FRK97,39KFRKBFIOYLOAB74HM7LXEJPWWOYB,39KFRKBFIOYLOAB74HM7LXEJPWWOYB,267577,267577,,,,,,,,,,
,,,,5,33.605,0,3,3,290,1,a scenic view in front of a window with a log on the bottom left corner,a schenic view in front of a window without a log in the bottom left corner,rensink,Window,4,40,A18ASA8WO5DUS6,2021-01-06_10h47.34.209,MetaAwareness,2020.1.2,Win32,60,3BCRDCM0OEXXTFISA4UK76ITHBUK69,A18ASA8WO5DUS6,39KFRKBFIOYLOAB74HM7LXEJPWWOYB,FRK97,FRK97,39KFRKBFIOYLOAB74HM7LXEJPWWOYB,39KFRKBFIOYLOAB74HM7LXEJPWWOYB,267577,267577,,,,,,,,,,
,,,,6,7.395,0,4,4,151,1,a fountain and palm trees in front of an office building,a fountain and palm trees in front of an office building but the fountain is shooting up as high as the roof,rensink,Fountain,2,40,A18ASA8WO5DUS6,2021-01-06_10h47.34.209,MetaAwareness,2020.1.2,Win32,60,3BCRDCM0OEXXTFISA4UK76ITHBUK69,A18ASA8WO5DUS6,39KFRKBFIOYLOAB74HM7LXEJPWWOYB,FRK97,FRK97,39KFRKBFIOYLOAB74HM7LXEJPWWOYB,39KFRKBFIOYLOAB74HM7LXEJPWWOYB,267577,267577,,,,,,,,,,
,,,,4,9.474,0,5,5,227,1,two women on the street with oranges standing in front of a white building,two women on the street with oranges standing in front of an orange building,rensink,Nurses,2,40,A18ASA8WO5DUS6,2021-01-06_10h47.34.209,MetaAwareness,2020.1.2,Win32,60,3BCRDCM0OEXXTFISA4UK76ITHBUK69,A18ASA8WO5DUS6,39KFRKBFIOYLOAB74HM7LXEJPWWOYB,FRK97,FRK97,39KFRKBFIOYLOAB74HM7LXEJPWWOYB,39KFRKBFIOYLOAB74HM7LXEJPWWOYB,267577,267577,,,,,,,,,,
,,,,4,5.965,0,6,6,178,1,a boat racer with purple jacket were crossing the river,a boat racer with blue jacket were crossing the river.,rensink,Kayak,6,40,A18ASA8WO5DUS6,2021-01-06_10h47.34.209,MetaAwareness,2020.1.2,Win32,60,3BCRDCM0OEXXTFISA4UK76ITHBUK69,A18ASA8WO5DUS6,39KFRKBFIOYLOAB74HM7LXEJPWWOYB,FRK97,FRK97,39KFRKBFIOYLOAB74HM7LXEJPWWOYB,39KFRKBFIOYLOAB74HM7LXEJPWWOYB,267577,267577,,,,,,,,,,
,,,,5,5.869,0,7,7,203,1, the man wear the blue colour pant,the man wear the light brown colour pant,rensink,Market,1,40,A18ASA8WO5DUS6,2021-01-06_10h47.34.209,MetaAwareness,2020.1.2,Win32,60,3BCRDCM0OEXXTFISA4UK76ITHBUK69,A18ASA8WO5DUS6,39KFRKBFIOYLOAB74HM7LXEJPWWOYB,FRK97,FRK97,39KFRKBFIOYLOAB74HM7LXEJPWWOYB,39KFRKBFIOYLOAB74HM7LXEJPWWOYB,267577,267577,,,,,,,,,,
,,,,4,4.964,0,8,8,231,1,women posing in front of white building,women posing in front of peach building,rensink,Nurses,6,40,A18ASA8WO5DUS6,2021-01-06_10h47.34.209,MetaAwareness,2020.1.2,Win32,60,3BCRDCM0OEXXTFISA4UK76ITHBUK69,A18ASA8WO5DUS6,39KFRKBFIOYLOAB74HM7LXEJPWWOYB,FRK97,FRK97,39KFRKBFIOYLOAB74HM7LXEJPWWOYB,39KFRKBFIOYLOAB74HM7LXEJPWWOYB,267577,267577,,,,,,,,,,
,,,,5,4.973,0,9,9,180,1,someone kayaking in a rushing river wearing a red outfit.,somone kayaking in a rushing river wearing a blue outfit.,rensink,Kayak,8,40,A18ASA8WO5DUS6,2021-01-06_10h47.34.209,MetaAwareness,2020.1.2,Win32,60,3BCRDCM0OEXXTFISA4UK76ITHBUK69,A18ASA8WO5DUS6,39KFRKBFIOYLOAB74HM7LXEJPWWOYB,FRK97,FRK97,39KFRKBFIOYLOAB74HM7LXEJPWWOYB,39KFRKBFIOYLOAB74HM7LXEJPWWOYB,267577,267577,,,,,,,,,,
,,,,4,8.9,0,10,10,139,1,a man in waders casts a fishing line into a river in front of mountains on a partly cloudy day,a man in waders casts a fishing line into a river while standing further to the right in front of mountains on a partly cloudy day,rensink,Fishing,1,40,A18ASA8WO5DUS6,2021-01-06_10h47.34.209,MetaAwareness,2020.1.2,Win32,60,3BCRDCM0OEXXTFISA4UK76ITHBUK69,A18ASA8WO5DUS6,39KFRKBFIOYLOAB74HM7LXEJPWWOYB,FRK97,FRK97,39KFRKBFIOYLOAB74HM7LXEJPWWOYB,39KFRKBFIOYLOAB74HM7LXEJPWWOYB,267577,267577,,,,,,,,,,
,,,,1,4.481,0,11,11,56,1,the ship was  thi picture ,they are empt in yellow box ,rensink,Cactus,1,40,A18ASA8WO5DUS6,2021-01-06_10h47.34.209,MetaAwareness,2020.1.2,Win32,60,3BCRDCM0OEXXTFISA4UK76ITHBUK69,A18ASA8WO5DUS6,39KFRKBFIOYLOAB74HM7LXEJPWWOYB,FRK97,FRK97,39KFRKBFIOYLOAB74HM7LXEJPWWOYB,39KFRKBFIOYLOAB74HM7LXEJPWWOYB,267577,267577,,,,,,,,,,
,,,,4,4.055,0,12,12,129,1,there is a reflection of a house in a pond and the reflection is cut off by the other shoreline,there is a reflection of a house in a pond and the reflection is complete in the pond,rensink,FarmByPond,3,40,A18ASA8WO5DUS6,2021-01-06_10h47.34.209,MetaAwareness,2020.1.2,Win32,60,3BCRDCM0OEXXTFISA4UK76ITHBUK69,A18ASA8WO5DUS6,39KFRKBFIOYLOAB74HM7LXEJPWWOYB,FRK97,FRK97,39KFRKBFIOYLOAB74HM7LXEJPWWOYB,39KFRKBFIOYLOAB74HM7LXEJPWWOYB,267577,267577,,,,,,,,,,
,,,,4,3.017,0,13,13,94,1,the women behind the wall red colour,the women behind the wall green colour,rensink,Description,3,40,A18ASA8WO5DUS6,2021-01-06_10h47.34.209,MetaAwareness,2020.1.2,Win32,60,3BCRDCM0OEXXTFISA4UK76ITHBUK69,A18ASA8WO5DUS6,39KFRKBFIOYLOAB74HM7LXEJPWWOYB,FRK97,FRK97,39KFRKBFIOYLOAB74HM7LXEJPWWOYB,39KFRKBFIOYLOAB74HM7LXEJPWWOYB,267577,267577,,,,,,,,,,
,,,,3,3.184,0,14,14,212,1,three men holding a large fish on a boat with and orange object on the floor,three men holding a large fish on a boat,rensink,Marling,5,40,A18ASA8WO5DUS6,2021-01-06_10h47.34.209,MetaAwareness,2020.1.2,Win32,60,3BCRDCM0OEXXTFISA4UK76ITHBUK69,A18ASA8WO5DUS6,39KFRKBFIOYLOAB74HM7LXEJPWWOYB,FRK97,FRK97,39KFRKBFIOYLOAB74HM7LXEJPWWOYB,39KFRKBFIOYLOAB74HM7LXEJPWWOYB,267577,267577,,,,,,,,,,
,,,,5,2.85,0,15,15,118,1,tourists looking at an egyptian sculpture in front of an archway,tourists looking at an egyptian sculpture blocking an archway,rensink,Egypt,2,40,A18ASA8WO5DUS6,2021-01-06_10h47.34.209,MetaAwareness,2020.1.2,Win32,60,3BCRDCM0OEXXTFISA4UK76ITHBUK69,A18ASA8WO5DUS6,39KFRKBFIOYLOAB74HM7LXEJPWWOYB,FRK97,FRK97,39KFRKBFIOYLOAB74HM7LXEJPWWOYB,39KFRKBFIOYLOAB74HM7LXEJPWWOYB,267577,267577,,,,,,,,,,
,,,,4,3.437,0,16,16,277,1,a man and a woman next a tortoise on with a bright blue sky behin them.,"a man and woman nex to a tortoise, with a pink sky behind them.",rensink,Turtle,1,40,A18ASA8WO5DUS6,2021-01-06_10h47.34.209,MetaAwareness,2020.1.2,Win32,60,3BCRDCM0OEXXTFISA4UK76ITHBUK69,A18ASA8WO5DUS6,39KFRKBFIOYLOAB74HM7LXEJPWWOYB,FRK97,FRK97,39KFRKBFIOYLOAB74HM7LXEJPWWOYB,39KFRKBFIOYLOAB74HM7LXEJPWWOYB,267577,267577,,,,,,,,,,
,,,,4,60.701,0,17,17,44,1,two odd looking birds with blue flippers looking at each other and sky in the back,two odd looking birds with blue flippers looking at each other and minimal sky in the back,rensink,Birds,7,40,A18ASA8WO5DUS6,2021-01-06_10h47.34.209,MetaAwareness,2020.1.2,Win32,60,3BCRDCM0OEXXTFISA4UK76ITHBUK69,A18ASA8WO5DUS6,39KFRKBFIOYLOAB74HM7LXEJPWWOYB,FRK97,FRK97,39KFRKBFIOYLOAB74HM7LXEJPWWOYB,39KFRKBFIOYLOAB74HM7LXEJPWWOYB,267577,267577,,,,,,,,,,
,,,,3,2.859,0,18,18,168,1,three children are standing on ice near a person in a paddle boat in the water,three children are standing on ice near a body of water with no boat,rensink,Ice,1,40,A18ASA8WO5DUS6,2021-01-06_10h47.34.209,MetaAwareness,2020.1.2,Win32,60,3BCRDCM0OEXXTFISA4UK76ITHBUK69,A18ASA8WO5DUS6,39KFRKBFIOYLOAB74HM7LXEJPWWOYB,FRK97,FRK97,39KFRKBFIOYLOAB74HM7LXEJPWWOYB,39KFRKBFIOYLOAB74HM7LXEJPWWOYB,267577,267577,,,,,,,,,,
,,,,4,1.684,0,19,19,30,1,flowers in the foregroud with a patch of grass to its side and barrels stacked in the background,flowers in the foreground with no patch of grass to its side and barrels stacked in the background,rensink,Barrels,5,40,A18ASA8WO5DUS6,2021-01-06_10h47.34.209,MetaAwareness,2020.1.2,Win32,60,3BCRDCM0OEXXTFISA4UK76ITHBUK69,A18ASA8WO5DUS6,39KFRKBFIOYLOAB74HM7LXEJPWWOYB,FRK97,FRK97,39KFRKBFIOYLOAB74HM7LXEJPWWOYB,39KFRKBFIOYLOAB74HM7LXEJPWWOYB,267577,267577,,,,,,,,,,
,,,,3,3.046,0,20,20,93,1,three people are standing in front of a brown post,three people are standing in front of a yellow post,rensink,Description,2,40,A18ASA8WO5DUS6,2021-01-06_10h47.34.209,MetaAwareness,2020.1.2,Win32,60,3BCRDCM0OEXXTFISA4UK76ITHBUK69,A18ASA8WO5DUS6,39KFRKBFIOYLOAB74HM7LXEJPWWOYB,FRK97,FRK97,39KFRKBFIOYLOAB74HM7LXEJPWWOYB,39KFRKBFIOYLOAB74HM7LXEJPWWOYB,267577,267577,,,,,,,,,,
,,,,4,1.75,0,21,21,286,1,kayaker on a hawaiian beach pushing the kayak out into the water,kayaker on a hawaiian beach pulling the kayak to shore,rensink,Water,6,40,A18ASA8WO5DUS6,2021-01-06_10h47.34.209,MetaAwareness,2020.1.2,Win32,60,3BCRDCM0OEXXTFISA4UK76ITHBUK69,A18ASA8WO5DUS6,39KFRKBFIOYLOAB74HM7LXEJPWWOYB,FRK97,FRK97,39KFRKBFIOYLOAB74HM7LXEJPWWOYB,39KFRKBFIOYLOAB74HM7LXEJPWWOYB,267577,267577,,,,,,,,,,
,,,,4,2.062,0,22,22,86,1,a field with a helicoptor hovering over a vehicle with a wide shadow,a field with a helicoptor hovering over a vehicle with a short shadow,rensink,Chopper,6,40,A18ASA8WO5DUS6,2021-01-06_10h47.34.209,MetaAwareness,2020.1.2,Win32,60,3BCRDCM0OEXXTFISA4UK76ITHBUK69,A18ASA8WO5DUS6,39KFRKBFIOYLOAB74HM7LXEJPWWOYB,FRK97,FRK97,39KFRKBFIOYLOAB74HM7LXEJPWWOYB,39KFRKBFIOYLOAB74HM7LXEJPWWOYB,267577,267577,,,,,,,,,,
,,,,2,2.69,0,23,23,176,1,a man in a purple vest which i believe is a safety vest appears to be white water rafting he is holding an oar there are rocks visible and the water looks rough,a man in a blue life jacket wearing a helm holding an oar near the rocks in dangerous water,rensink,Kayak,4,40,A18ASA8WO5DUS6,2021-01-06_10h47.34.209,MetaAwareness,2020.1.2,Win32,60,3BCRDCM0OEXXTFISA4UK76ITHBUK69,A18ASA8WO5DUS6,39KFRKBFIOYLOAB74HM7LXEJPWWOYB,FRK97,FRK97,39KFRKBFIOYLOAB74HM7LXEJPWWOYB,39KFRKBFIOYLOAB74HM7LXEJPWWOYB,267577,267577,,,,,,,,,,
,,,,3,1.937,0,24,24,221,1,tree was small amout of in  ,tree branches lot of amout,rensink,NotreDame,1,40,A18ASA8WO5DUS6,2021-01-06_10h47.34.209,MetaAwareness,2020.1.2,Win32,60,3BCRDCM0OEXXTFISA4UK76ITHBUK69,A18ASA8WO5DUS6,39KFRKBFIOYLOAB74HM7LXEJPWWOYB,FRK97,FRK97,39KFRKBFIOYLOAB74HM7LXEJPWWOYB,39KFRKBFIOYLOAB74HM7LXEJPWWOYB,267577,267577,,,,,,,,,,
,,,,3,2.326,0,25,25,251,1,a seal being photographed on a bank with a long walk  rockway,a seal being photographed on a bank wih a short rock walkwayw,rensink,Seal,3,40,A18ASA8WO5DUS6,2021-01-06_10h47.34.209,MetaAwareness,2020.1.2,Win32,60,3BCRDCM0OEXXTFISA4UK76ITHBUK69,A18ASA8WO5DUS6,39KFRKBFIOYLOAB74HM7LXEJPWWOYB,FRK97,FRK97,39KFRKBFIOYLOAB74HM7LXEJPWWOYB,39KFRKBFIOYLOAB74HM7LXEJPWWOYB,267577,267577,,,,,,,,,,
,,,,3,2.269,0,26,26,137,1,a man in a light green plaid shirt is helping a forklifter work,a man in a bright green plaid shirt is helping a forklifter work,rensink,Farmer,5,40,A18ASA8WO5DUS6,2021-01-06_10h47.34.209,MetaAwareness,2020.1.2,Win32,60,3BCRDCM0OEXXTFISA4UK76ITHBUK69,A18ASA8WO5DUS6,39KFRKBFIOYLOAB74HM7LXEJPWWOYB,FRK97,FRK97,39KFRKBFIOYLOAB74HM7LXEJPWWOYB,39KFRKBFIOYLOAB74HM7LXEJPWWOYB,267577,267577,,,,,,,,,,
,,,,2,1.781,0,27,27,172,1,a boat with someone on it on water,no boat on the water,rensink,Ice,5,40,A18ASA8WO5DUS6,2021-01-06_10h47.34.209,MetaAwareness,2020.1.2,Win32,60,3BCRDCM0OEXXTFISA4UK76ITHBUK69,A18ASA8WO5DUS6,39KFRKBFIOYLOAB74HM7LXEJPWWOYB,FRK97,FRK97,39KFRKBFIOYLOAB74HM7LXEJPWWOYB,39KFRKBFIOYLOAB74HM7LXEJPWWOYB,267577,267577,,,,,,,,,,
,,,,4,2.216,0,28,28,18,1,a country side setting with a red barn,a country side setting with a green barn,rensink,Barns,5,40,A18ASA8WO5DUS6,2021-01-06_10h47.34.209,MetaAwareness,2020.1.2,Win32,60,3BCRDCM0OEXXTFISA4UK76ITHBUK69,A18ASA8WO5DUS6,39KFRKBFIOYLOAB74HM7LXEJPWWOYB,FRK97,FRK97,39KFRKBFIOYLOAB74HM7LXEJPWWOYB,39KFRKBFIOYLOAB74HM7LXEJPWWOYB,267577,267577,,,,,,,,,,
,,,,3,2.224,0,29,29,242,1,a diver in the sea with blurry images beneath the sea,a diver in the sea wih no image beneath the sea,rensink,OtherDiver,7,40,A18ASA8WO5DUS6,2021-01-06_10h47.34.209,MetaAwareness,2020.1.2,Win32,60,3BCRDCM0OEXXTFISA4UK76ITHBUK69,A18ASA8WO5DUS6,39KFRKBFIOYLOAB74HM7LXEJPWWOYB,FRK97,FRK97,39KFRKBFIOYLOAB74HM7LXEJPWWOYB,39KFRKBFIOYLOAB74HM7LXEJPWWOYB,267577,267577,,,,,,,,,,
,,,,,,,,,,,,,,,,40,A18ASA8WO5DUS6,2021-01-06_10h47.34.209,MetaAwareness,2020.1.2,Win32,60,3BCRDCM0OEXXTFISA4UK76ITHBUK69,A18ASA8WO5DUS6,39KFRKBFIOYLOAB74HM7LXEJPWWOYB,FRK97,FRK97,39KFRKBFIOYLOAB74HM7LXEJPWWOYB,39KFRKBFIOYLOAB74HM7LXEJPWWOYB,267577,267577,4,1.691,someone laying underneath a blue beach umbrella on a crowded beach,someone laying underneath a blue beach umbrella on a crowded beach,same,1,28.74,members of a marching band crossing a track that all have feather plumes at the front of their hats,a cluttered and rustic looking cafe with 10 hanging lights,different