consent_response.keys,consent_response.rt,key_resp_2.keys,key_resp_2.rt,user_resp.keys,user_resp.rt,trials.thisRepN,trials.thisTrialN,trials.thisN,trials.thisIndex,trials.ran,image_1_text,image_2_text,database,image,number,age,worker_ID,date,expName,psychopyVersion,OS,frameRate,hitId,workerId,assignmentId,a,tp_a,b,tp_b,c,tp_c,catch_same_resp.keys,catch_same_resp.rt,image_1_text_catch_same,image_2_text_catch_same,image_catch_same,catch_different_resp.keys,catch_different_resp.rt,image_1_text_catch_different,image_2_text_catch_different,image_catch_different
space,8.16195,space,26.90662,5,30.35016,0,0,0,258,1,four soldiers sit in the back of an army vehicle at a military checkpoint,three soldiers sit in the back of an army vehicle at a military checkpoint,rensink,Soldiers,4,37,A1DX0Z20W07YOR,2021-01-06_14h50.46.002,MetaAwareness,2020.1.2,Win32,60,3J6BHNX0UAV500OK9LG19H4FC1KNKN,A1DX0Z20W07YOR,3RU7GD8VPPW6DOBZKB7XSBV8IH1SPP,VGUR7,VGUR7,3RU7GD8VPPW6DOBZKB7XSBV8IH1SPP,3RU7GD8VPPW6DOBZKB7XSBV8IH1SPP,267577,267577,,,,,,,,,,
,,,,3,14.46865,0,1,1,125,1,egyptian statue in front of temple entrance,egyptian statue to the side of temple entrance,rensink,Egypt,9,37,A1DX0Z20W07YOR,2021-01-06_14h50.46.002,MetaAwareness,2020.1.2,Win32,60,3J6BHNX0UAV500OK9LG19H4FC1KNKN,A1DX0Z20W07YOR,3RU7GD8VPPW6DOBZKB7XSBV8IH1SPP,VGUR7,VGUR7,3RU7GD8VPPW6DOBZKB7XSBV8IH1SPP,3RU7GD8VPPW6DOBZKB7XSBV8IH1SPP,267577,267577,,,,,,,,,,
,,,,4,15.26228,0,2,2,42,1,there are two birds together on a rock and there are several other birds in a small background behind them. ,there are two birds together on a rock and there are several other birds in a large background behind them.,rensink,Birds,5,37,A1DX0Z20W07YOR,2021-01-06_14h50.46.002,MetaAwareness,2020.1.2,Win32,60,3J6BHNX0UAV500OK9LG19H4FC1KNKN,A1DX0Z20W07YOR,3RU7GD8VPPW6DOBZKB7XSBV8IH1SPP,VGUR7,VGUR7,3RU7GD8VPPW6DOBZKB7XSBV8IH1SPP,3RU7GD8VPPW6DOBZKB7XSBV8IH1SPP,267577,267577,,,,,,,,,,
,,,,6,22.10576,0,3,3,254,1,a rocky beack with 3 people and sea lions,a rocky beach with 3 people and sea lions,rensink,Seal,6,37,A1DX0Z20W07YOR,2021-01-06_14h50.46.002,MetaAwareness,2020.1.2,Win32,60,3J6BHNX0UAV500OK9LG19H4FC1KNKN,A1DX0Z20W07YOR,3RU7GD8VPPW6DOBZKB7XSBV8IH1SPP,VGUR7,VGUR7,3RU7GD8VPPW6DOBZKB7XSBV8IH1SPP,3RU7GD8VPPW6DOBZKB7XSBV8IH1SPP,267577,267577,,,,,,,,,,
,,,,5,14.696155,0,4,4,299,1,"a table with a wine glass and cheese, fruit and bread",a table with a wine glass with only fruit and bread,rensink,Wine,6,37,A1DX0Z20W07YOR,2021-01-06_14h50.46.002,MetaAwareness,2020.1.2,Win32,60,3J6BHNX0UAV500OK9LG19H4FC1KNKN,A1DX0Z20W07YOR,3RU7GD8VPPW6DOBZKB7XSBV8IH1SPP,VGUR7,VGUR7,3RU7GD8VPPW6DOBZKB7XSBV8IH1SPP,3RU7GD8VPPW6DOBZKB7XSBV8IH1SPP,267577,267577,,,,,,,,,,
,,,,2,21.63832,0,5,5,272,1,there is have a boat,there is not have  a boat,rensink,SummerLake,3,37,A1DX0Z20W07YOR,2021-01-06_14h50.46.002,MetaAwareness,2020.1.2,Win32,60,3J6BHNX0UAV500OK9LG19H4FC1KNKN,A1DX0Z20W07YOR,3RU7GD8VPPW6DOBZKB7XSBV8IH1SPP,VGUR7,VGUR7,3RU7GD8VPPW6DOBZKB7XSBV8IH1SPP,3RU7GD8VPPW6DOBZKB7XSBV8IH1SPP,267577,267577,,,,,,,,,,
,,,,2,13.406655,0,6,6,192,1,there is a little boy sitting with other children on a yellow chair.,there is a little boy sitting with other children on a pink chair.  ,rensink,Kids,6,37,A1DX0Z20W07YOR,2021-01-06_14h50.46.002,MetaAwareness,2020.1.2,Win32,60,3J6BHNX0UAV500OK9LG19H4FC1KNKN,A1DX0Z20W07YOR,3RU7GD8VPPW6DOBZKB7XSBV8IH1SPP,VGUR7,VGUR7,3RU7GD8VPPW6DOBZKB7XSBV8IH1SPP,3RU7GD8VPPW6DOBZKB7XSBV8IH1SPP,267577,267577,,,,,,,,,,
,,,,2,8.99453,0,7,7,19,1,there is a red farmhouse on rolling green hills,there is a green farmhouse on rolling green hills,rensink,Barns,6,37,A1DX0Z20W07YOR,2021-01-06_14h50.46.002,MetaAwareness,2020.1.2,Win32,60,3J6BHNX0UAV500OK9LG19H4FC1KNKN,A1DX0Z20W07YOR,3RU7GD8VPPW6DOBZKB7XSBV8IH1SPP,VGUR7,VGUR7,3RU7GD8VPPW6DOBZKB7XSBV8IH1SPP,3RU7GD8VPPW6DOBZKB7XSBV8IH1SPP,267577,267577,,,,,,,,,,
,,,,2,10.420805,0,8,8,242,1,a diver in the sea with blurry images beneath the sea,a diver in the sea wih no image beneath the sea,rensink,OtherDiver,7,37,A1DX0Z20W07YOR,2021-01-06_14h50.46.002,MetaAwareness,2020.1.2,Win32,60,3J6BHNX0UAV500OK9LG19H4FC1KNKN,A1DX0Z20W07YOR,3RU7GD8VPPW6DOBZKB7XSBV8IH1SPP,VGUR7,VGUR7,3RU7GD8VPPW6DOBZKB7XSBV8IH1SPP,3RU7GD8VPPW6DOBZKB7XSBV8IH1SPP,267577,267577,,,,,,,,,,
,,,,3,28.476645,0,9,9,30,1,flowers in the foregroud with a patch of grass to its side and barrels stacked in the background,flowers in the foreground with no patch of grass to its side and barrels stacked in the background,rensink,Barrels,5,37,A1DX0Z20W07YOR,2021-01-06_14h50.46.002,MetaAwareness,2020.1.2,Win32,60,3J6BHNX0UAV500OK9LG19H4FC1KNKN,A1DX0Z20W07YOR,3RU7GD8VPPW6DOBZKB7XSBV8IH1SPP,VGUR7,VGUR7,3RU7GD8VPPW6DOBZKB7XSBV8IH1SPP,3RU7GD8VPPW6DOBZKB7XSBV8IH1SPP,267577,267577,,,,,,,,,,
,,,,2,8.72039,0,10,10,160,1,a grey military helicopter over a body of water by a city,a red military helicopter over a body of water by a city,rensink,Harbor,5,37,A1DX0Z20W07YOR,2021-01-06_14h50.46.002,MetaAwareness,2020.1.2,Win32,60,3J6BHNX0UAV500OK9LG19H4FC1KNKN,A1DX0Z20W07YOR,3RU7GD8VPPW6DOBZKB7XSBV8IH1SPP,VGUR7,VGUR7,3RU7GD8VPPW6DOBZKB7XSBV8IH1SPP,3RU7GD8VPPW6DOBZKB7XSBV8IH1SPP,267577,267577,,,,,,,,,,
,,,,1,6.699415,0,11,11,172,1,a boat with someone on it on water,no boat on the water,rensink,Ice,5,37,A1DX0Z20W07YOR,2021-01-06_14h50.46.002,MetaAwareness,2020.1.2,Win32,60,3J6BHNX0UAV500OK9LG19H4FC1KNKN,A1DX0Z20W07YOR,3RU7GD8VPPW6DOBZKB7XSBV8IH1SPP,VGUR7,VGUR7,3RU7GD8VPPW6DOBZKB7XSBV8IH1SPP,3RU7GD8VPPW6DOBZKB7XSBV8IH1SPP,267577,267577,,,,,,,,,,
,,,,2,17.4518,0,12,12,201,1,a man standing near the boat,nobody standing near the boat,rensink,Lake,7,37,A1DX0Z20W07YOR,2021-01-06_14h50.46.002,MetaAwareness,2020.1.2,Win32,60,3J6BHNX0UAV500OK9LG19H4FC1KNKN,A1DX0Z20W07YOR,3RU7GD8VPPW6DOBZKB7XSBV8IH1SPP,VGUR7,VGUR7,3RU7GD8VPPW6DOBZKB7XSBV8IH1SPP,3RU7GD8VPPW6DOBZKB7XSBV8IH1SPP,267577,267577,,,,,,,,,,
,,,,3,21.90887,0,13,13,248,1,3 military personel standing in fron of a fighter jet packed in fron of a white building,3 military personel standing in front of a fighter jet packed in front of a yellow building,rensink,Pilots,6,37,A1DX0Z20W07YOR,2021-01-06_14h50.46.002,MetaAwareness,2020.1.2,Win32,60,3J6BHNX0UAV500OK9LG19H4FC1KNKN,A1DX0Z20W07YOR,3RU7GD8VPPW6DOBZKB7XSBV8IH1SPP,VGUR7,VGUR7,3RU7GD8VPPW6DOBZKB7XSBV8IH1SPP,3RU7GD8VPPW6DOBZKB7XSBV8IH1SPP,267577,267577,,,,,,,,,,
,,,,1,10.58742,0,14,14,0,1,the color of shrits was blue ,color of shirts waspink ,rensink,Amish,1,37,A1DX0Z20W07YOR,2021-01-06_14h50.46.002,MetaAwareness,2020.1.2,Win32,60,3J6BHNX0UAV500OK9LG19H4FC1KNKN,A1DX0Z20W07YOR,3RU7GD8VPPW6DOBZKB7XSBV8IH1SPP,VGUR7,VGUR7,3RU7GD8VPPW6DOBZKB7XSBV8IH1SPP,3RU7GD8VPPW6DOBZKB7XSBV8IH1SPP,267577,267577,,,,,,,,,,
,,,,1,5.694065,0,15,15,263,1,a bridge or highway just outside of a railroad station.,a bright blue sky just outside of a railroad station.,rensink,Station,2,37,A1DX0Z20W07YOR,2021-01-06_14h50.46.002,MetaAwareness,2020.1.2,Win32,60,3J6BHNX0UAV500OK9LG19H4FC1KNKN,A1DX0Z20W07YOR,3RU7GD8VPPW6DOBZKB7XSBV8IH1SPP,VGUR7,VGUR7,3RU7GD8VPPW6DOBZKB7XSBV8IH1SPP,3RU7GD8VPPW6DOBZKB7XSBV8IH1SPP,267577,267577,,,,,,,,,,
,,,,2,15.29489,0,16,16,251,1,a seal being photographed on a bank with a long walk  rockway,a seal being photographed on a bank wih a short rock walkwayw,rensink,Seal,3,37,A1DX0Z20W07YOR,2021-01-06_14h50.46.002,MetaAwareness,2020.1.2,Win32,60,3J6BHNX0UAV500OK9LG19H4FC1KNKN,A1DX0Z20W07YOR,3RU7GD8VPPW6DOBZKB7XSBV8IH1SPP,VGUR7,VGUR7,3RU7GD8VPPW6DOBZKB7XSBV8IH1SPP,3RU7GD8VPPW6DOBZKB7XSBV8IH1SPP,267577,267577,,,,,,,,,,
,,,,3,15.237475,0,17,17,132,1,a closer reflection of a red building on water,a distant reflection of a red building on water,rensink,FarmByPond,6,37,A1DX0Z20W07YOR,2021-01-06_14h50.46.002,MetaAwareness,2020.1.2,Win32,60,3J6BHNX0UAV500OK9LG19H4FC1KNKN,A1DX0Z20W07YOR,3RU7GD8VPPW6DOBZKB7XSBV8IH1SPP,VGUR7,VGUR7,3RU7GD8VPPW6DOBZKB7XSBV8IH1SPP,3RU7GD8VPPW6DOBZKB7XSBV8IH1SPP,267577,267577,,,,,,,,,,
,,,,5,27.35761,0,18,18,150,1,a waterstream almost covering the rooftop level of a gray building.,a waterstream covering the rooftop level of a gray building.,rensink,Fountain,1,37,A1DX0Z20W07YOR,2021-01-06_14h50.46.002,MetaAwareness,2020.1.2,Win32,60,3J6BHNX0UAV500OK9LG19H4FC1KNKN,A1DX0Z20W07YOR,3RU7GD8VPPW6DOBZKB7XSBV8IH1SPP,VGUR7,VGUR7,3RU7GD8VPPW6DOBZKB7XSBV8IH1SPP,3RU7GD8VPPW6DOBZKB7XSBV8IH1SPP,267577,267577,,,,,,,,,,
,,,,4,12.576955,0,19,19,13,1,a military person pointing a gun at a jeep and a shadow on the road,a military person pointing a gun at a jeep and a sunny spot on the road,rensink,Army,7,37,A1DX0Z20W07YOR,2021-01-06_14h50.46.002,MetaAwareness,2020.1.2,Win32,60,3J6BHNX0UAV500OK9LG19H4FC1KNKN,A1DX0Z20W07YOR,3RU7GD8VPPW6DOBZKB7XSBV8IH1SPP,VGUR7,VGUR7,3RU7GD8VPPW6DOBZKB7XSBV8IH1SPP,3RU7GD8VPPW6DOBZKB7XSBV8IH1SPP,267577,267577,,,,,,,,,,
,,,,5,11.34003,0,20,20,113,1,a couple enjoying a meal with a railing behind their neckline,a couple enjoying a meal with a railing behind their hairline,rensink,Eating,2,37,A1DX0Z20W07YOR,2021-01-06_14h50.46.002,MetaAwareness,2020.1.2,Win32,60,3J6BHNX0UAV500OK9LG19H4FC1KNKN,A1DX0Z20W07YOR,3RU7GD8VPPW6DOBZKB7XSBV8IH1SPP,VGUR7,VGUR7,3RU7GD8VPPW6DOBZKB7XSBV8IH1SPP,3RU7GD8VPPW6DOBZKB7XSBV8IH1SPP,267577,267577,,,,,,,,,,
,,,,2,16.098955,0,21,21,6,1,a man sitting on grass behind a horse on blue shirt,a man sitting on a grass behind a house on pink shirt,rensink,Amish,7,37,A1DX0Z20W07YOR,2021-01-06_14h50.46.002,MetaAwareness,2020.1.2,Win32,60,3J6BHNX0UAV500OK9LG19H4FC1KNKN,A1DX0Z20W07YOR,3RU7GD8VPPW6DOBZKB7XSBV8IH1SPP,VGUR7,VGUR7,3RU7GD8VPPW6DOBZKB7XSBV8IH1SPP,3RU7GD8VPPW6DOBZKB7XSBV8IH1SPP,267577,267577,,,,,,,,,,
,,,,3,10.573845,0,22,22,227,1,two women on the street with oranges standing in front of a white building,two women on the street with oranges standing in front of an orange building,rensink,Nurses,2,37,A1DX0Z20W07YOR,2021-01-06_14h50.46.002,MetaAwareness,2020.1.2,Win32,60,3J6BHNX0UAV500OK9LG19H4FC1KNKN,A1DX0Z20W07YOR,3RU7GD8VPPW6DOBZKB7XSBV8IH1SPP,VGUR7,VGUR7,3RU7GD8VPPW6DOBZKB7XSBV8IH1SPP,3RU7GD8VPPW6DOBZKB7XSBV8IH1SPP,267577,267577,,,,,,,,,,
,,,,4,14.28863,0,23,23,127,1,"several red farm buildings sit in a field, overlooking a pond where the reflections of the buildings are visible at the near edge of the pond","several red farm buildings sit in a field, overlooking a pond whre the reflections f the buildings are visible in the middle of the pond",rensink,FarmByPond,1,37,A1DX0Z20W07YOR,2021-01-06_14h50.46.002,MetaAwareness,2020.1.2,Win32,60,3J6BHNX0UAV500OK9LG19H4FC1KNKN,A1DX0Z20W07YOR,3RU7GD8VPPW6DOBZKB7XSBV8IH1SPP,VGUR7,VGUR7,3RU7GD8VPPW6DOBZKB7XSBV8IH1SPP,3RU7GD8VPPW6DOBZKB7XSBV8IH1SPP,267577,267577,,,,,,,,,,
,,,,5,16.20965,0,24,24,91,1,a lower flying helicopter as viewed by a pilot in another helicopter,a higher flying helicopter as viewed by a pilot in another helicopter,rensink,Cockpit,4,37,A1DX0Z20W07YOR,2021-01-06_14h50.46.002,MetaAwareness,2020.1.2,Win32,60,3J6BHNX0UAV500OK9LG19H4FC1KNKN,A1DX0Z20W07YOR,3RU7GD8VPPW6DOBZKB7XSBV8IH1SPP,VGUR7,VGUR7,3RU7GD8VPPW6DOBZKB7XSBV8IH1SPP,3RU7GD8VPPW6DOBZKB7XSBV8IH1SPP,267577,267577,,,,,,,,,,
,,,,3,7.41203,0,25,25,194,1,children sitting outside facing eachother with one child sitting in a yellow chair,children sitting outside facing eachother with one child sitting in a pink chair,rensink,Kids,8,37,A1DX0Z20W07YOR,2021-01-06_14h50.46.002,MetaAwareness,2020.1.2,Win32,60,3J6BHNX0UAV500OK9LG19H4FC1KNKN,A1DX0Z20W07YOR,3RU7GD8VPPW6DOBZKB7XSBV8IH1SPP,VGUR7,VGUR7,3RU7GD8VPPW6DOBZKB7XSBV8IH1SPP,3RU7GD8VPPW6DOBZKB7XSBV8IH1SPP,267577,267577,,,,,,,,,,
,,,,2,29.523825,0,26,26,268,1,a train station with people on the platform. in the background there is a structure with a overpass,a train station with people on the platform. in the background there is no stucture with an overpass,rensink,Station,7,37,A1DX0Z20W07YOR,2021-01-06_14h50.46.002,MetaAwareness,2020.1.2,Win32,60,3J6BHNX0UAV500OK9LG19H4FC1KNKN,A1DX0Z20W07YOR,3RU7GD8VPPW6DOBZKB7XSBV8IH1SPP,VGUR7,VGUR7,3RU7GD8VPPW6DOBZKB7XSBV8IH1SPP,3RU7GD8VPPW6DOBZKB7XSBV8IH1SPP,267577,267577,,,,,,,,,,
,,,,4,10.45225,0,27,27,198,1, a man stands near a canoe on a lake shore,a canoe is on the shore of a lake,rensink,Lake,4,37,A1DX0Z20W07YOR,2021-01-06_14h50.46.002,MetaAwareness,2020.1.2,Win32,60,3J6BHNX0UAV500OK9LG19H4FC1KNKN,A1DX0Z20W07YOR,3RU7GD8VPPW6DOBZKB7XSBV8IH1SPP,VGUR7,VGUR7,3RU7GD8VPPW6DOBZKB7XSBV8IH1SPP,3RU7GD8VPPW6DOBZKB7XSBV8IH1SPP,267577,267577,,,,,,,,,,
,,,,6,25.282535,0,28,28,239,1,deep underwater is a scuba diver there looks to be a coral and a fish the man is wearing scuba gear,a man deep under water in scuba gear near a coral with a fish the man is wearing goggles and a oxygen device,rensink,OtherDiver,4,37,A1DX0Z20W07YOR,2021-01-06_14h50.46.002,MetaAwareness,2020.1.2,Win32,60,3J6BHNX0UAV500OK9LG19H4FC1KNKN,A1DX0Z20W07YOR,3RU7GD8VPPW6DOBZKB7XSBV8IH1SPP,VGUR7,VGUR7,3RU7GD8VPPW6DOBZKB7XSBV8IH1SPP,3RU7GD8VPPW6DOBZKB7XSBV8IH1SPP,267577,267577,,,,,,,,,,
,,,,3,16.832235,0,29,29,168,1,three children are standing on ice near a person in a paddle boat in the water,three children are standing on ice near a body of water with no boat,rensink,Ice,1,37,A1DX0Z20W07YOR,2021-01-06_14h50.46.002,MetaAwareness,2020.1.2,Win32,60,3J6BHNX0UAV500OK9LG19H4FC1KNKN,A1DX0Z20W07YOR,3RU7GD8VPPW6DOBZKB7XSBV8IH1SPP,VGUR7,VGUR7,3RU7GD8VPPW6DOBZKB7XSBV8IH1SPP,3RU7GD8VPPW6DOBZKB7XSBV8IH1SPP,267577,267577,,,,,,,,,,
,,,,,,,,,,,,,,,,37,A1DX0Z20W07YOR,2021-01-06_14h50.46.002,MetaAwareness,2020.1.2,Win32,60,3J6BHNX0UAV500OK9LG19H4FC1KNKN,A1DX0Z20W07YOR,3RU7GD8VPPW6DOBZKB7XSBV8IH1SPP,VGUR7,VGUR7,3RU7GD8VPPW6DOBZKB7XSBV8IH1SPP,3RU7GD8VPPW6DOBZKB7XSBV8IH1SPP,267577,267577,6,8.62391,someone laying underneath a blue beach umbrella on a crowded beach,someone laying underneath a blue beach umbrella on a crowded beach,same,1,10.5175,members of a marching band crossing a track that all have feather plumes at the front of their hats,a cluttered and rustic looking cafe with 10 hanging lights,different