consent_response.keys,consent_response.rt,key_resp_2.keys,key_resp_2.rt,user_resp.keys,user_resp.rt,trials.thisRepN,trials.thisTrialN,trials.thisN,trials.thisIndex,trials.ran,image_1_text,image_2_text,database,image,number,age,worker_ID,date,expName,psychopyVersion,OS,frameRate,hitId,workerId,assignmentId,a,tp_a,b,tp_b,c,tp_c,catch_same_resp.keys,catch_same_resp.rt,image_1_text_catch_same,image_2_text_catch_same,image_catch_same,catch_different_resp.keys,catch_different_resp.rt,image_1_text_catch_different,image_2_text_catch_different,image_catch_different
space,12.809,space,20.542,2,29.657,0,0,0,202,1,a man with a boat on the shore next to a body of water,a boat on the shore next to a body of water,rensink,Lake,8,32,A1RQLE4ZMTU22A,2021-01-06_12h00.27.898,MetaAwareness,2020.1.2,Win32,60,341H3G5YF1HX4ZVZ8GHDLKWF8HJZ07,A1RQLE4ZMTU22A,3WI0P0II62VLNC8W0DGX279NIV3RD8,IPIW7,IPIW7,3WI0P0II62VLNC8W0DGX279NIV3RD8,3WI0P0II62VLNC8W0DGX279NIV3RD8,267577,267577,,,,,,,,,,
,,,,3,9.551,0,1,1,233,1,there has a large tree and small tree,there has a small tree,rensink,Obelisk,2,32,A1RQLE4ZMTU22A,2021-01-06_12h00.27.898,MetaAwareness,2020.1.2,Win32,60,341H3G5YF1HX4ZVZ8GHDLKWF8HJZ07,A1RQLE4ZMTU22A,3WI0P0II62VLNC8W0DGX279NIV3RD8,IPIW7,IPIW7,3WI0P0II62VLNC8W0DGX279NIV3RD8,3WI0P0II62VLNC8W0DGX279NIV3RD8,267577,267577,,,,,,,,,,
,,,,5,29.432,0,2,2,112,1,a man and a woman share a bottle of wine and some food at a table overlooking some sort of orchard or vineyard,"a man and a woman share wine and food  at a table overlooking a orchard or vineyard and i really can't tell what the difference is, even with lookin closely.  maybe it's the rows of the plants, who knows",rensink,Eating,1,32,A1RQLE4ZMTU22A,2021-01-06_12h00.27.898,MetaAwareness,2020.1.2,Win32,60,341H3G5YF1HX4ZVZ8GHDLKWF8HJZ07,A1RQLE4ZMTU22A,3WI0P0II62VLNC8W0DGX279NIV3RD8,IPIW7,IPIW7,3WI0P0II62VLNC8W0DGX279NIV3RD8,3WI0P0II62VLNC8W0DGX279NIV3RD8,267577,267577,,,,,,,,,,
,,,,5,13.305,0,3,3,213,1,a middle eastern city scene with three turrets ,a middle eastern city scene with two turrets,rensink,Mosque,1,32,A1RQLE4ZMTU22A,2021-01-06_12h00.27.898,MetaAwareness,2020.1.2,Win32,60,341H3G5YF1HX4ZVZ8GHDLKWF8HJZ07,A1RQLE4ZMTU22A,3WI0P0II62VLNC8W0DGX279NIV3RD8,IPIW7,IPIW7,3WI0P0II62VLNC8W0DGX279NIV3RD8,3WI0P0II62VLNC8W0DGX279NIV3RD8,267577,267577,,,,,,,,,,
,,,,3,15.324,0,4,4,94,1,the women behind the wall red colour,the women behind the wall green colour,rensink,Description,3,32,A1RQLE4ZMTU22A,2021-01-06_12h00.27.898,MetaAwareness,2020.1.2,Win32,60,341H3G5YF1HX4ZVZ8GHDLKWF8HJZ07,A1RQLE4ZMTU22A,3WI0P0II62VLNC8W0DGX279NIV3RD8,IPIW7,IPIW7,3WI0P0II62VLNC8W0DGX279NIV3RD8,3WI0P0II62VLNC8W0DGX279NIV3RD8,267577,267577,,,,,,,,,,
,,,,4,12.56,0,5,5,235,1,side of an egyptian temple with statues and a cluster of trees inthe background ,side of an egyptian temple with statues and low-lying buildings in the background,rensink,Obelisk,4,32,A1RQLE4ZMTU22A,2021-01-06_12h00.27.898,MetaAwareness,2020.1.2,Win32,60,341H3G5YF1HX4ZVZ8GHDLKWF8HJZ07,A1RQLE4ZMTU22A,3WI0P0II62VLNC8W0DGX279NIV3RD8,IPIW7,IPIW7,3WI0P0II62VLNC8W0DGX279NIV3RD8,3WI0P0II62VLNC8W0DGX279NIV3RD8,267577,267577,,,,,,,,,,
,,,,2,11.954,0,6,6,282,1, a tropical beach with two men pushig a boat out in the calm water,a tropical beach with two men pushing a boat out on a big wave coming in,rensink,Water,2,32,A1RQLE4ZMTU22A,2021-01-06_12h00.27.898,MetaAwareness,2020.1.2,Win32,60,341H3G5YF1HX4ZVZ8GHDLKWF8HJZ07,A1RQLE4ZMTU22A,3WI0P0II62VLNC8W0DGX279NIV3RD8,IPIW7,IPIW7,3WI0P0II62VLNC8W0DGX279NIV3RD8,3WI0P0II62VLNC8W0DGX279NIV3RD8,267577,267577,,,,,,,,,,
,,,,3,8.935,0,7,7,72,1,nearby building reflects in the lake water,nearby bridge reflects in the lake water,rensink,CanalBridge,5,32,A1RQLE4ZMTU22A,2021-01-06_12h00.27.898,MetaAwareness,2020.1.2,Win32,60,341H3G5YF1HX4ZVZ8GHDLKWF8HJZ07,A1RQLE4ZMTU22A,3WI0P0II62VLNC8W0DGX279NIV3RD8,IPIW7,IPIW7,3WI0P0II62VLNC8W0DGX279NIV3RD8,3WI0P0II62VLNC8W0DGX279NIV3RD8,267577,267577,,,,,,,,,,
,,,,5,7.974,0,8,8,149,1,an airplane floating on top of a lake with a red strip along the side of it.,an airplane floating on top of a lake with a blue strip along the side of it.,rensink,Floatplane,5,32,A1RQLE4ZMTU22A,2021-01-06_12h00.27.898,MetaAwareness,2020.1.2,Win32,60,341H3G5YF1HX4ZVZ8GHDLKWF8HJZ07,A1RQLE4ZMTU22A,3WI0P0II62VLNC8W0DGX279NIV3RD8,IPIW7,IPIW7,3WI0P0II62VLNC8W0DGX279NIV3RD8,3WI0P0II62VLNC8W0DGX279NIV3RD8,267577,267577,,,,,,,,,,
,,,,5,7.007,0,9,9,133,1,a man working at a processing facility while wearing a blue checkered shirt,a man working at a processing facility while wearing a green checkered shirt,rensink,Farmer,1,32,A1RQLE4ZMTU22A,2021-01-06_12h00.27.898,MetaAwareness,2020.1.2,Win32,60,341H3G5YF1HX4ZVZ8GHDLKWF8HJZ07,A1RQLE4ZMTU22A,3WI0P0II62VLNC8W0DGX279NIV3RD8,IPIW7,IPIW7,3WI0P0II62VLNC8W0DGX279NIV3RD8,3WI0P0II62VLNC8W0DGX279NIV3RD8,267577,267577,,,,,,,,,,
,,,,4,8.175,0,10,10,50,1,a group of people on a small boat almost at shore.,a group of people on a small boat slightly further away from shore.,rensink,Boat,6,32,A1RQLE4ZMTU22A,2021-01-06_12h00.27.898,MetaAwareness,2020.1.2,Win32,60,341H3G5YF1HX4ZVZ8GHDLKWF8HJZ07,A1RQLE4ZMTU22A,3WI0P0II62VLNC8W0DGX279NIV3RD8,IPIW7,IPIW7,3WI0P0II62VLNC8W0DGX279NIV3RD8,3WI0P0II62VLNC8W0DGX279NIV3RD8,267577,267577,,,,,,,,,,
,,,,5,13.951,0,11,11,126,1,"people viewing a statue in a desert terrain, behind the statue the are columns that are evenly spaced","people viewing a statue in a desert terrain, behind the statue a column is missing",rensink,Egypt,10,32,A1RQLE4ZMTU22A,2021-01-06_12h00.27.898,MetaAwareness,2020.1.2,Win32,60,341H3G5YF1HX4ZVZ8GHDLKWF8HJZ07,A1RQLE4ZMTU22A,3WI0P0II62VLNC8W0DGX279NIV3RD8,IPIW7,IPIW7,3WI0P0II62VLNC8W0DGX279NIV3RD8,3WI0P0II62VLNC8W0DGX279NIV3RD8,267577,267577,,,,,,,,,,
,,,,5,9.69,0,12,12,138,1,a man in a dark green checkered shirt working at a constuction site,a man in an emerald green checkered shirt working at a construction site,rensink,Farmer,6,32,A1RQLE4ZMTU22A,2021-01-06_12h00.27.898,MetaAwareness,2020.1.2,Win32,60,341H3G5YF1HX4ZVZ8GHDLKWF8HJZ07,A1RQLE4ZMTU22A,3WI0P0II62VLNC8W0DGX279NIV3RD8,IPIW7,IPIW7,3WI0P0II62VLNC8W0DGX279NIV3RD8,3WI0P0II62VLNC8W0DGX279NIV3RD8,267577,267577,,,,,,,,,,
,,,,6,25.535,0,13,13,124,1,"a statue of a man sits in the desert, a group of onloookers staring","a statue of a man sits in the desert, a group of onlookers staring",rensink,Egypt,8,32,A1RQLE4ZMTU22A,2021-01-06_12h00.27.898,MetaAwareness,2020.1.2,Win32,60,341H3G5YF1HX4ZVZ8GHDLKWF8HJZ07,A1RQLE4ZMTU22A,3WI0P0II62VLNC8W0DGX279NIV3RD8,IPIW7,IPIW7,3WI0P0II62VLNC8W0DGX279NIV3RD8,3WI0P0II62VLNC8W0DGX279NIV3RD8,267577,267577,,,,,,,,,,
,,,,4,8.77,0,14,14,9,1,a brown looking jeep with a lot of tree shadow behind it,a brown looking jeep with no tree shadow behind it,rensink,Army,3,32,A1RQLE4ZMTU22A,2021-01-06_12h00.27.898,MetaAwareness,2020.1.2,Win32,60,341H3G5YF1HX4ZVZ8GHDLKWF8HJZ07,A1RQLE4ZMTU22A,3WI0P0II62VLNC8W0DGX279NIV3RD8,IPIW7,IPIW7,3WI0P0II62VLNC8W0DGX279NIV3RD8,3WI0P0II62VLNC8W0DGX279NIV3RD8,267577,267577,,,,,,,,,,
,,,,3,8.619,0,15,15,238,1,the rock is looking blurry,thr rock is looking clear,rensink,OtherDiver,3,32,A1RQLE4ZMTU22A,2021-01-06_12h00.27.898,MetaAwareness,2020.1.2,Win32,60,341H3G5YF1HX4ZVZ8GHDLKWF8HJZ07,A1RQLE4ZMTU22A,3WI0P0II62VLNC8W0DGX279NIV3RD8,IPIW7,IPIW7,3WI0P0II62VLNC8W0DGX279NIV3RD8,3WI0P0II62VLNC8W0DGX279NIV3RD8,267577,267577,,,,,,,,,,
,,,,6,13.122,0,16,16,266,1,"an empty train station, while people walk along the siderails","an empty train station, while people wal along the siderails",rensink,Station,5,32,A1RQLE4ZMTU22A,2021-01-06_12h00.27.898,MetaAwareness,2020.1.2,Win32,60,341H3G5YF1HX4ZVZ8GHDLKWF8HJZ07,A1RQLE4ZMTU22A,3WI0P0II62VLNC8W0DGX279NIV3RD8,IPIW7,IPIW7,3WI0P0II62VLNC8W0DGX279NIV3RD8,3WI0P0II62VLNC8W0DGX279NIV3RD8,267577,267577,,,,,,,,,,
,,,,6,13.622,0,17,17,284,1,"a man paddles a boat on an island, while two others pull it to shore","a man paddles a boat onto an island, while two others pull it to shore",rensink,Water,4,32,A1RQLE4ZMTU22A,2021-01-06_12h00.27.898,MetaAwareness,2020.1.2,Win32,60,341H3G5YF1HX4ZVZ8GHDLKWF8HJZ07,A1RQLE4ZMTU22A,3WI0P0II62VLNC8W0DGX279NIV3RD8,IPIW7,IPIW7,3WI0P0II62VLNC8W0DGX279NIV3RD8,3WI0P0II62VLNC8W0DGX279NIV3RD8,267577,267577,,,,,,,,,,
,,,,5,5.804,0,18,18,231,1,women posing in front of white building,women posing in front of peach building,rensink,Nurses,6,32,A1RQLE4ZMTU22A,2021-01-06_12h00.27.898,MetaAwareness,2020.1.2,Win32,60,341H3G5YF1HX4ZVZ8GHDLKWF8HJZ07,A1RQLE4ZMTU22A,3WI0P0II62VLNC8W0DGX279NIV3RD8,IPIW7,IPIW7,3WI0P0II62VLNC8W0DGX279NIV3RD8,3WI0P0II62VLNC8W0DGX279NIV3RD8,267577,267577,,,,,,,,,,
,,,,3,5.172,0,19,19,257,1, two soldiers were sitting in the vehicle.,one soldier was sitting in the vehicle.,rensink,Soldiers,3,32,A1RQLE4ZMTU22A,2021-01-06_12h00.27.898,MetaAwareness,2020.1.2,Win32,60,341H3G5YF1HX4ZVZ8GHDLKWF8HJZ07,A1RQLE4ZMTU22A,3WI0P0II62VLNC8W0DGX279NIV3RD8,IPIW7,IPIW7,3WI0P0II62VLNC8W0DGX279NIV3RD8,3WI0P0II62VLNC8W0DGX279NIV3RD8,267577,267577,,,,,,,,,,
,,,,1,5.818,0,20,20,172,1,a boat with someone on it on water,no boat on the water,rensink,Ice,5,32,A1RQLE4ZMTU22A,2021-01-06_12h00.27.898,MetaAwareness,2020.1.2,Win32,60,341H3G5YF1HX4ZVZ8GHDLKWF8HJZ07,A1RQLE4ZMTU22A,3WI0P0II62VLNC8W0DGX279NIV3RD8,IPIW7,IPIW7,3WI0P0II62VLNC8W0DGX279NIV3RD8,3WI0P0II62VLNC8W0DGX279NIV3RD8,267577,267577,,,,,,,,,,
,,,,4,13.62,0,21,21,153,1,a water fountain with a low volume of water at the top,a water fountain with a large volume of water at the top,rensink,Fountain,4,32,A1RQLE4ZMTU22A,2021-01-06_12h00.27.898,MetaAwareness,2020.1.2,Win32,60,341H3G5YF1HX4ZVZ8GHDLKWF8HJZ07,A1RQLE4ZMTU22A,3WI0P0II62VLNC8W0DGX279NIV3RD8,IPIW7,IPIW7,3WI0P0II62VLNC8W0DGX279NIV3RD8,3WI0P0II62VLNC8W0DGX279NIV3RD8,267577,267577,,,,,,,,,,
,,,,2,9.659,0,22,22,288,1,the window is have somethink,the window do not have somethink,rensink,Window,2,32,A1RQLE4ZMTU22A,2021-01-06_12h00.27.898,MetaAwareness,2020.1.2,Win32,60,341H3G5YF1HX4ZVZ8GHDLKWF8HJZ07,A1RQLE4ZMTU22A,3WI0P0II62VLNC8W0DGX279NIV3RD8,IPIW7,IPIW7,3WI0P0II62VLNC8W0DGX279NIV3RD8,3WI0P0II62VLNC8W0DGX279NIV3RD8,267577,267577,,,,,,,,,,
,,,,2,23.827,0,23,23,176,1,a man in a purple vest which i believe is a safety vest appears to be white water rafting he is holding an oar there are rocks visible and the water looks rough,a man in a blue life jacket wearing a helm holding an oar near the rocks in dangerous water,rensink,Kayak,4,32,A1RQLE4ZMTU22A,2021-01-06_12h00.27.898,MetaAwareness,2020.1.2,Win32,60,341H3G5YF1HX4ZVZ8GHDLKWF8HJZ07,A1RQLE4ZMTU22A,3WI0P0II62VLNC8W0DGX279NIV3RD8,IPIW7,IPIW7,3WI0P0II62VLNC8W0DGX279NIV3RD8,3WI0P0II62VLNC8W0DGX279NIV3RD8,267577,267577,,,,,,,,,,
,,,,5,11.468,0,24,24,98,1,a man and two women standing in front of a red tinted light. ,a man and two women standing in front of a green tinted light. ,rensink,Description,7,32,A1RQLE4ZMTU22A,2021-01-06_12h00.27.898,MetaAwareness,2020.1.2,Win32,60,341H3G5YF1HX4ZVZ8GHDLKWF8HJZ07,A1RQLE4ZMTU22A,3WI0P0II62VLNC8W0DGX279NIV3RD8,IPIW7,IPIW7,3WI0P0II62VLNC8W0DGX279NIV3RD8,3WI0P0II62VLNC8W0DGX279NIV3RD8,267577,267577,,,,,,,,,,
,,,,4,11.683,0,25,25,279,1,a sandy beach with a woman and a large turtle under blue skies,a sandy beach with a woman and a large turn under pink skies,rensink,Turtle,3,32,A1RQLE4ZMTU22A,2021-01-06_12h00.27.898,MetaAwareness,2020.1.2,Win32,60,341H3G5YF1HX4ZVZ8GHDLKWF8HJZ07,A1RQLE4ZMTU22A,3WI0P0II62VLNC8W0DGX279NIV3RD8,IPIW7,IPIW7,3WI0P0II62VLNC8W0DGX279NIV3RD8,3WI0P0II62VLNC8W0DGX279NIV3RD8,267577,267577,,,,,,,,,,
,,,,5,9.403,0,26,26,12,1,an armoured truck on the street by the shadows of two trees,an armoured truck on the street by the shadow of a tree,rensink,Army,6,32,A1RQLE4ZMTU22A,2021-01-06_12h00.27.898,MetaAwareness,2020.1.2,Win32,60,341H3G5YF1HX4ZVZ8GHDLKWF8HJZ07,A1RQLE4ZMTU22A,3WI0P0II62VLNC8W0DGX279NIV3RD8,IPIW7,IPIW7,3WI0P0II62VLNC8W0DGX279NIV3RD8,3WI0P0II62VLNC8W0DGX279NIV3RD8,267577,267577,,,,,,,,,,
,,,,3,10.051,0,27,27,132,1,a closer reflection of a red building on water,a distant reflection of a red building on water,rensink,FarmByPond,6,32,A1RQLE4ZMTU22A,2021-01-06_12h00.27.898,MetaAwareness,2020.1.2,Win32,60,341H3G5YF1HX4ZVZ8GHDLKWF8HJZ07,A1RQLE4ZMTU22A,3WI0P0II62VLNC8W0DGX279NIV3RD8,IPIW7,IPIW7,3WI0P0II62VLNC8W0DGX279NIV3RD8,3WI0P0II62VLNC8W0DGX279NIV3RD8,267577,267577,,,,,,,,,,
,,,,4,8.584,0,28,28,224,1,a large bushes of tree were near the building,a small bushes of tree were near the building.,rensink,NotreDame,4,32,A1RQLE4ZMTU22A,2021-01-06_12h00.27.898,MetaAwareness,2020.1.2,Win32,60,341H3G5YF1HX4ZVZ8GHDLKWF8HJZ07,A1RQLE4ZMTU22A,3WI0P0II62VLNC8W0DGX279NIV3RD8,IPIW7,IPIW7,3WI0P0II62VLNC8W0DGX279NIV3RD8,3WI0P0II62VLNC8W0DGX279NIV3RD8,267577,267577,,,,,,,,,,
,,,,5,12.194,0,29,29,52,1,a cluttered looking bus with four men standing on top of it,a cluttered looking bus with three men standing on top of it,rensink,Bus,2,32,A1RQLE4ZMTU22A,2021-01-06_12h00.27.898,MetaAwareness,2020.1.2,Win32,60,341H3G5YF1HX4ZVZ8GHDLKWF8HJZ07,A1RQLE4ZMTU22A,3WI0P0II62VLNC8W0DGX279NIV3RD8,IPIW7,IPIW7,3WI0P0II62VLNC8W0DGX279NIV3RD8,3WI0P0II62VLNC8W0DGX279NIV3RD8,267577,267577,,,,,,,,,,
,,,,,,,,,,,,,,,,32,A1RQLE4ZMTU22A,2021-01-06_12h00.27.898,MetaAwareness,2020.1.2,Win32,60,341H3G5YF1HX4ZVZ8GHDLKWF8HJZ07,A1RQLE4ZMTU22A,3WI0P0II62VLNC8W0DGX279NIV3RD8,IPIW7,IPIW7,3WI0P0II62VLNC8W0DGX279NIV3RD8,3WI0P0II62VLNC8W0DGX279NIV3RD8,267577,267577,6,12.967,someone laying underneath a blue beach umbrella on a crowded beach,someone laying underneath a blue beach umbrella on a crowded beach,same,1,11.204,members of a marching band crossing a track that all have feather plumes at the front of their hats,a cluttered and rustic looking cafe with 10 hanging lights,different