consent_response.keys,consent_response.rt,key_resp_2.keys,key_resp_2.rt,user_resp.keys,user_resp.rt,trials.thisRepN,trials.thisTrialN,trials.thisN,trials.thisIndex,trials.ran,image_1_text,image_2_text,database,image,number,age,worker_ID,date,expName,psychopyVersion,OS,frameRate,hitId,workerId,assignmentId,a,tp_a,b,tp_b,c,tp_c,catch_same_resp.keys,catch_same_resp.rt,image_1_text_catch_same,image_2_text_catch_same,image_catch_same,catch_different_resp.keys,catch_different_resp.rt,image_1_text_catch_different,image_2_text_catch_different,image_catch_different
space,87.06001,space,10.664435,1,5.746635,0,0,0,92,1,at top of the coner  bule was in whit olor ,the bulb was in yellow  color ,rensink,Description,1,41,A2AJ5QFNC9KF43,2021-01-06_12h52.35.689,MetaAwareness,2020.1.2,Win32,60,341H3G5YF1HX4ZVZ8GHDLKWF8HJZ07,A2AJ5QFNC9KF43,351SEKWQS1KUQWV4V5KGG8FDC84MDF,QE157,QE157,351SEKWQS1KUQWV4V5KGG8FDC84MDF,351SEKWQS1KUQWV4V5KGG8FDC84MDF,267577,267577,,,,,,,,,,
,,,,5,5.31642,0,1,1,297,1,"there is a glass of wine, cheese , bread and apples.","there is a glass of wine, bread, and apples. ",rensink,Wine,4,41,A2AJ5QFNC9KF43,2021-01-06_12h52.35.689,MetaAwareness,2020.1.2,Win32,60,341H3G5YF1HX4ZVZ8GHDLKWF8HJZ07,A2AJ5QFNC9KF43,351SEKWQS1KUQWV4V5KGG8FDC84MDF,QE157,QE157,351SEKWQS1KUQWV4V5KGG8FDC84MDF,351SEKWQS1KUQWV4V5KGG8FDC84MDF,267577,267577,,,,,,,,,,
,,,,5,5.68605,0,2,2,64,1,a man standing next to a camel in the middle of the desert with no sand behind the tower,a man standing next to a camel in the midel of the desert with sand behind the tower,rensink,Camel,2,41,A2AJ5QFNC9KF43,2021-01-06_12h52.35.689,MetaAwareness,2020.1.2,Win32,60,341H3G5YF1HX4ZVZ8GHDLKWF8HJZ07,A2AJ5QFNC9KF43,351SEKWQS1KUQWV4V5KGG8FDC84MDF,QE157,QE157,351SEKWQS1KUQWV4V5KGG8FDC84MDF,351SEKWQS1KUQWV4V5KGG8FDC84MDF,267577,267577,,,,,,,,,,
,,,,4,5.77051,0,3,3,158,1,there is a white helicopter over a blue body of water anda city in the background.,there is a red helicopter over a blue body of water and a city in the background. ,rensink,Harbor,3,41,A2AJ5QFNC9KF43,2021-01-06_12h52.35.689,MetaAwareness,2020.1.2,Win32,60,341H3G5YF1HX4ZVZ8GHDLKWF8HJZ07,A2AJ5QFNC9KF43,351SEKWQS1KUQWV4V5KGG8FDC84MDF,QE157,QE157,351SEKWQS1KUQWV4V5KGG8FDC84MDF,351SEKWQS1KUQWV4V5KGG8FDC84MDF,267577,267577,,,,,,,,,,
,,,,4,4.50615,0,4,4,35,1,a blue boat was landed downwards on the seashore,a green boat was landed downwards on the seashore,rensink,Beach,4,41,A2AJ5QFNC9KF43,2021-01-06_12h52.35.689,MetaAwareness,2020.1.2,Win32,60,341H3G5YF1HX4ZVZ8GHDLKWF8HJZ07,A2AJ5QFNC9KF43,351SEKWQS1KUQWV4V5KGG8FDC84MDF,QE157,QE157,351SEKWQS1KUQWV4V5KGG8FDC84MDF,351SEKWQS1KUQWV4V5KGG8FDC84MDF,267577,267577,,,,,,,,,,
,,,,5,5.97485,0,5,5,139,1,a man in waders casts a fishing line into a river in front of mountains on a partly cloudy day,a man in waders casts a fishing line into a river while standing further to the right in front of mountains on a partly cloudy day,rensink,Fishing,1,41,A2AJ5QFNC9KF43,2021-01-06_12h52.35.689,MetaAwareness,2020.1.2,Win32,60,341H3G5YF1HX4ZVZ8GHDLKWF8HJZ07,A2AJ5QFNC9KF43,351SEKWQS1KUQWV4V5KGG8FDC84MDF,QE157,QE157,351SEKWQS1KUQWV4V5KGG8FDC84MDF,351SEKWQS1KUQWV4V5KGG8FDC84MDF,267577,267577,,,,,,,,,,
,,,,4,5.131535,0,6,6,167,1,several boats with people on them in rocky water a low water level,several boats with people on them in rocky water with a high water level,rensink,Horizon,7,41,A2AJ5QFNC9KF43,2021-01-06_12h52.35.689,MetaAwareness,2020.1.2,Win32,60,341H3G5YF1HX4ZVZ8GHDLKWF8HJZ07,A2AJ5QFNC9KF43,351SEKWQS1KUQWV4V5KGG8FDC84MDF,QE157,QE157,351SEKWQS1KUQWV4V5KGG8FDC84MDF,351SEKWQS1KUQWV4V5KGG8FDC84MDF,267577,267577,,,,,,,,,,
,,,,3,5.752535,0,7,7,16,1,a country farm with a red barn in the fall,a scenic country farm with a green barn in the fall,rensink,Barns,3,41,A2AJ5QFNC9KF43,2021-01-06_12h52.35.689,MetaAwareness,2020.1.2,Win32,60,341H3G5YF1HX4ZVZ8GHDLKWF8HJZ07,A2AJ5QFNC9KF43,351SEKWQS1KUQWV4V5KGG8FDC84MDF,QE157,QE157,351SEKWQS1KUQWV4V5KGG8FDC84MDF,351SEKWQS1KUQWV4V5KGG8FDC84MDF,267577,267577,,,,,,,,,,
,,,,4,13.25094,0,8,8,90,1,a helicopter pilot looking down at a helicopter flying next to them,a helicopter pilot looking slightly up at the helicopter flying a little above them,rensink,Cockpit,3,41,A2AJ5QFNC9KF43,2021-01-06_12h52.35.689,MetaAwareness,2020.1.2,Win32,60,341H3G5YF1HX4ZVZ8GHDLKWF8HJZ07,A2AJ5QFNC9KF43,351SEKWQS1KUQWV4V5KGG8FDC84MDF,QE157,QE157,351SEKWQS1KUQWV4V5KGG8FDC84MDF,351SEKWQS1KUQWV4V5KGG8FDC84MDF,267577,267577,,,,,,,,,,
,,,,4,7.81523,0,9,9,87,1,a helicopter and truck's shadows are visible on the grass beneath them.,a helicopter and truck are present with only the truck's shadow visible on the grass beneath them.,rensink,Chopper,7,41,A2AJ5QFNC9KF43,2021-01-06_12h52.35.689,MetaAwareness,2020.1.2,Win32,60,341H3G5YF1HX4ZVZ8GHDLKWF8HJZ07,A2AJ5QFNC9KF43,351SEKWQS1KUQWV4V5KGG8FDC84MDF,QE157,QE157,351SEKWQS1KUQWV4V5KGG8FDC84MDF,351SEKWQS1KUQWV4V5KGG8FDC84MDF,267577,267577,,,,,,,,,,
,,,,4,4.831625,0,10,10,126,1,"people viewing a statue in a desert terrain, behind the statue the are columns that are evenly spaced","people viewing a statue in a desert terrain, behind the statue a column is missing",rensink,Egypt,10,41,A2AJ5QFNC9KF43,2021-01-06_12h52.35.689,MetaAwareness,2020.1.2,Win32,60,341H3G5YF1HX4ZVZ8GHDLKWF8HJZ07,A2AJ5QFNC9KF43,351SEKWQS1KUQWV4V5KGG8FDC84MDF,QE157,QE157,351SEKWQS1KUQWV4V5KGG8FDC84MDF,351SEKWQS1KUQWV4V5KGG8FDC84MDF,267577,267577,,,,,,,,,,
,,,,3,12.90881,0,11,11,132,1,a closer reflection of a red building on water,a distant reflection of a red building on water,rensink,FarmByPond,6,41,A2AJ5QFNC9KF43,2021-01-06_12h52.35.689,MetaAwareness,2020.1.2,Win32,60,341H3G5YF1HX4ZVZ8GHDLKWF8HJZ07,A2AJ5QFNC9KF43,351SEKWQS1KUQWV4V5KGG8FDC84MDF,QE157,QE157,351SEKWQS1KUQWV4V5KGG8FDC84MDF,351SEKWQS1KUQWV4V5KGG8FDC84MDF,267577,267577,,,,,,,,,,
,,,,4,9.48153,0,12,12,19,1,there is a red farmhouse on rolling green hills,there is a green farmhouse on rolling green hills,rensink,Barns,6,41,A2AJ5QFNC9KF43,2021-01-06_12h52.35.689,MetaAwareness,2020.1.2,Win32,60,341H3G5YF1HX4ZVZ8GHDLKWF8HJZ07,A2AJ5QFNC9KF43,351SEKWQS1KUQWV4V5KGG8FDC84MDF,QE157,QE157,351SEKWQS1KUQWV4V5KGG8FDC84MDF,351SEKWQS1KUQWV4V5KGG8FDC84MDF,267577,267577,,,,,,,,,,
,,,,4,3.78173,0,13,13,268,1,a train station with people on the platform. in the background there is a structure with a overpass,a train station with people on the platform. in the background there is no stucture with an overpass,rensink,Station,7,41,A2AJ5QFNC9KF43,2021-01-06_12h52.35.689,MetaAwareness,2020.1.2,Win32,60,341H3G5YF1HX4ZVZ8GHDLKWF8HJZ07,A2AJ5QFNC9KF43,351SEKWQS1KUQWV4V5KGG8FDC84MDF,QE157,QE157,351SEKWQS1KUQWV4V5KGG8FDC84MDF,351SEKWQS1KUQWV4V5KGG8FDC84MDF,267577,267577,,,,,,,,,,
,,,,6,6.531035,0,14,14,240,1,a snorkeller greets a fish off the coast of a reef,a snorkeller greets a fish off the coast of a reef,rensink,OtherDiver,5,41,A2AJ5QFNC9KF43,2021-01-06_12h52.35.689,MetaAwareness,2020.1.2,Win32,60,341H3G5YF1HX4ZVZ8GHDLKWF8HJZ07,A2AJ5QFNC9KF43,351SEKWQS1KUQWV4V5KGG8FDC84MDF,QE157,QE157,351SEKWQS1KUQWV4V5KGG8FDC84MDF,351SEKWQS1KUQWV4V5KGG8FDC84MDF,267577,267577,,,,,,,,,,
,,,,5,7.248675,0,15,15,89,1,there is a pilot flying a helicopter and there is a white helicopter directly to the righ of him in the sky. ,there is a pilot flying a helicopter and there is a white helicopter directly top right of him in the sky. ,rensink,Cockpit,2,41,A2AJ5QFNC9KF43,2021-01-06_12h52.35.689,MetaAwareness,2020.1.2,Win32,60,341H3G5YF1HX4ZVZ8GHDLKWF8HJZ07,A2AJ5QFNC9KF43,351SEKWQS1KUQWV4V5KGG8FDC84MDF,QE157,QE157,351SEKWQS1KUQWV4V5KGG8FDC84MDF,351SEKWQS1KUQWV4V5KGG8FDC84MDF,267577,267577,,,,,,,,,,
,,,,4,6.88243,0,16,16,210,1,"3 fisherman standing on a boat holding a marlin they've caught, with a yellow tarp on the deck","3 fisherman standing on a boat holding a marlin they've caught, with no yellow tarp on the deck",rensink,Marling,3,41,A2AJ5QFNC9KF43,2021-01-06_12h52.35.689,MetaAwareness,2020.1.2,Win32,60,341H3G5YF1HX4ZVZ8GHDLKWF8HJZ07,A2AJ5QFNC9KF43,351SEKWQS1KUQWV4V5KGG8FDC84MDF,QE157,QE157,351SEKWQS1KUQWV4V5KGG8FDC84MDF,351SEKWQS1KUQWV4V5KGG8FDC84MDF,267577,267577,,,,,,,,,,
,,,,3,3.271155,0,17,17,271,1,a couple of boats with shipment on one of them,a couple of boats on the river and people having fun,rensink,SummerLake,2,41,A2AJ5QFNC9KF43,2021-01-06_12h52.35.689,MetaAwareness,2020.1.2,Win32,60,341H3G5YF1HX4ZVZ8GHDLKWF8HJZ07,A2AJ5QFNC9KF43,351SEKWQS1KUQWV4V5KGG8FDC84MDF,QE157,QE157,351SEKWQS1KUQWV4V5KGG8FDC84MDF,351SEKWQS1KUQWV4V5KGG8FDC84MDF,267577,267577,,,,,,,,,,
,,,,4,3.21531,0,18,18,4,1,a man in a blue shirt driving a horse drawn hay cart,a man in a pink shirt driving a horse drawn hay cart,rensink,Amish,5,41,A2AJ5QFNC9KF43,2021-01-06_12h52.35.689,MetaAwareness,2020.1.2,Win32,60,341H3G5YF1HX4ZVZ8GHDLKWF8HJZ07,A2AJ5QFNC9KF43,351SEKWQS1KUQWV4V5KGG8FDC84MDF,QE157,QE157,351SEKWQS1KUQWV4V5KGG8FDC84MDF,351SEKWQS1KUQWV4V5KGG8FDC84MDF,267577,267577,,,,,,,,,,
,,,,4,3.849645,0,19,19,53,1,four men are on top of a truck loading boxes,three men are on top of a truck loading boxes,rensink,Bus,3,41,A2AJ5QFNC9KF43,2021-01-06_12h52.35.689,MetaAwareness,2020.1.2,Win32,60,341H3G5YF1HX4ZVZ8GHDLKWF8HJZ07,A2AJ5QFNC9KF43,351SEKWQS1KUQWV4V5KGG8FDC84MDF,QE157,QE157,351SEKWQS1KUQWV4V5KGG8FDC84MDF,351SEKWQS1KUQWV4V5KGG8FDC84MDF,267577,267577,,,,,,,,,,
,,,,4,4.184125,0,20,20,3,1,a man with a light blue shirt riding a horse drawn carriage on a farm,a man with a pink shirt riding a horse drawn carriage on a farm,rensink,Amish,4,41,A2AJ5QFNC9KF43,2021-01-06_12h52.35.689,MetaAwareness,2020.1.2,Win32,60,341H3G5YF1HX4ZVZ8GHDLKWF8HJZ07,A2AJ5QFNC9KF43,351SEKWQS1KUQWV4V5KGG8FDC84MDF,QE157,QE157,351SEKWQS1KUQWV4V5KGG8FDC84MDF,351SEKWQS1KUQWV4V5KGG8FDC84MDF,267577,267577,,,,,,,,,,
,,,,6,6.51842,0,21,21,143,1,a man cast the hook in the river,a man cast his hook in the river,rensink,Fishing,5,41,A2AJ5QFNC9KF43,2021-01-06_12h52.35.689,MetaAwareness,2020.1.2,Win32,60,341H3G5YF1HX4ZVZ8GHDLKWF8HJZ07,A2AJ5QFNC9KF43,351SEKWQS1KUQWV4V5KGG8FDC84MDF,QE157,QE157,351SEKWQS1KUQWV4V5KGG8FDC84MDF,351SEKWQS1KUQWV4V5KGG8FDC84MDF,267577,267577,,,,,,,,,,
,,,,4,6.232055,0,22,22,36,1,a blue boat overturned on a rocky shore,a green boat overturned on a rocky shore,rensink,Beach,5,41,A2AJ5QFNC9KF43,2021-01-06_12h52.35.689,MetaAwareness,2020.1.2,Win32,60,341H3G5YF1HX4ZVZ8GHDLKWF8HJZ07,A2AJ5QFNC9KF43,351SEKWQS1KUQWV4V5KGG8FDC84MDF,QE157,QE157,351SEKWQS1KUQWV4V5KGG8FDC84MDF,351SEKWQS1KUQWV4V5KGG8FDC84MDF,267577,267577,,,,,,,,,,
,,,,3,6.415915,0,23,23,152,1, the water fountain is small height,the watr fountain is big height,rensink,Fountain,3,41,A2AJ5QFNC9KF43,2021-01-06_12h52.35.689,MetaAwareness,2020.1.2,Win32,60,341H3G5YF1HX4ZVZ8GHDLKWF8HJZ07,A2AJ5QFNC9KF43,351SEKWQS1KUQWV4V5KGG8FDC84MDF,QE157,QE157,351SEKWQS1KUQWV4V5KGG8FDC84MDF,351SEKWQS1KUQWV4V5KGG8FDC84MDF,267577,267577,,,,,,,,,,
,,,,2,5.25532,0,24,24,66,1,a man standing beside his camel with large fence behind him,a man standing beside his canoe with a fence behind him,rensink,Camel,4,41,A2AJ5QFNC9KF43,2021-01-06_12h52.35.689,MetaAwareness,2020.1.2,Win32,60,341H3G5YF1HX4ZVZ8GHDLKWF8HJZ07,A2AJ5QFNC9KF43,351SEKWQS1KUQWV4V5KGG8FDC84MDF,QE157,QE157,351SEKWQS1KUQWV4V5KGG8FDC84MDF,351SEKWQS1KUQWV4V5KGG8FDC84MDF,267577,267577,,,,,,,,,,
,,,,1,4.2919,0,25,25,176,1,a man in a purple vest which i believe is a safety vest appears to be white water rafting he is holding an oar there are rocks visible and the water looks rough,a man in a blue life jacket wearing a helm holding an oar near the rocks in dangerous water,rensink,Kayak,4,41,A2AJ5QFNC9KF43,2021-01-06_12h52.35.689,MetaAwareness,2020.1.2,Win32,60,341H3G5YF1HX4ZVZ8GHDLKWF8HJZ07,A2AJ5QFNC9KF43,351SEKWQS1KUQWV4V5KGG8FDC84MDF,QE157,QE157,351SEKWQS1KUQWV4V5KGG8FDC84MDF,351SEKWQS1KUQWV4V5KGG8FDC84MDF,267577,267577,,,,,,,,,,
,,,,4,2.735625,0,26,26,214,1,an ancient building with three spires,an ancient building with two spires,rensink,Mosque,2,41,A2AJ5QFNC9KF43,2021-01-06_12h52.35.689,MetaAwareness,2020.1.2,Win32,60,341H3G5YF1HX4ZVZ8GHDLKWF8HJZ07,A2AJ5QFNC9KF43,351SEKWQS1KUQWV4V5KGG8FDC84MDF,QE157,QE157,351SEKWQS1KUQWV4V5KGG8FDC84MDF,351SEKWQS1KUQWV4V5KGG8FDC84MDF,267577,267577,,,,,,,,,,
,,,,4,2.133245,0,27,27,188,1, th baby sitting chair is yellow color,th baby sitting chair is pink color,rensink,Kids,2,41,A2AJ5QFNC9KF43,2021-01-06_12h52.35.689,MetaAwareness,2020.1.2,Win32,60,341H3G5YF1HX4ZVZ8GHDLKWF8HJZ07,A2AJ5QFNC9KF43,351SEKWQS1KUQWV4V5KGG8FDC84MDF,QE157,QE157,351SEKWQS1KUQWV4V5KGG8FDC84MDF,351SEKWQS1KUQWV4V5KGG8FDC84MDF,267577,267577,,,,,,,,,,
,,,,5,4.236805,0,28,28,100,1,a dinner table with a glass of wine at one o'clock,a dinner table with a glass of wine at 12 o'clock,rensink,Dinner,2,41,A2AJ5QFNC9KF43,2021-01-06_12h52.35.689,MetaAwareness,2020.1.2,Win32,60,341H3G5YF1HX4ZVZ8GHDLKWF8HJZ07,A2AJ5QFNC9KF43,351SEKWQS1KUQWV4V5KGG8FDC84MDF,QE157,QE157,351SEKWQS1KUQWV4V5KGG8FDC84MDF,351SEKWQS1KUQWV4V5KGG8FDC84MDF,267577,267577,,,,,,,,,,
,,,,5,8.11507,0,29,29,151,1,a fountain and palm trees in front of an office building,a fountain and palm trees in front of an office building but the fountain is shooting up as high as the roof,rensink,Fountain,2,41,A2AJ5QFNC9KF43,2021-01-06_12h52.35.689,MetaAwareness,2020.1.2,Win32,60,341H3G5YF1HX4ZVZ8GHDLKWF8HJZ07,A2AJ5QFNC9KF43,351SEKWQS1KUQWV4V5KGG8FDC84MDF,QE157,QE157,351SEKWQS1KUQWV4V5KGG8FDC84MDF,351SEKWQS1KUQWV4V5KGG8FDC84MDF,267577,267577,,,,,,,,,,
,,,,,,,,,,,,,,,,41,A2AJ5QFNC9KF43,2021-01-06_12h52.35.689,MetaAwareness,2020.1.2,Win32,60,341H3G5YF1HX4ZVZ8GHDLKWF8HJZ07,A2AJ5QFNC9KF43,351SEKWQS1KUQWV4V5KGG8FDC84MDF,QE157,QE157,351SEKWQS1KUQWV4V5KGG8FDC84MDF,351SEKWQS1KUQWV4V5KGG8FDC84MDF,267577,267577,6,5.165345,someone laying underneath a blue beach umbrella on a crowded beach,someone laying underneath a blue beach umbrella on a crowded beach,same,1,4.73292,members of a marching band crossing a track that all have feather plumes at the front of their hats,a cluttered and rustic looking cafe with 10 hanging lights,different