consent_response.keys,consent_response.rt,key_resp_2.keys,key_resp_2.rt,user_resp.keys,user_resp.rt,trials.thisRepN,trials.thisTrialN,trials.thisN,trials.thisIndex,trials.ran,image_1_text,image_2_text,database,image,number,age,worker_ID,date,expName,psychopyVersion,OS,frameRate,hitId,workerId,assignmentId,a,tp_a,b,tp_b,c,tp_c,catch_same_resp.keys,catch_same_resp.rt,image_1_text_catch_same,image_2_text_catch_same,image_catch_same,catch_different_resp.keys,catch_different_resp.rt,image_1_text_catch_different,image_2_text_catch_different,image_catch_different
space,59.624135,space,11.336085,2,11.85676,0,0,0,75,1, the fort  window  show the full ,the fort window is show off,rensink,Castle,1,32,A2INXY39KBM92F,2021-01-06_13h44.08.545,MetaAwareness,2020.1.2,Win32,60,3J6BHNX0UAV500OK9LG19H4FC1KNKN,A2INXY39KBM92F,33PPO7FECWI8UD5DAQMOOF8WV0WID9,EOP37,EOP37,33PPO7FECWI8UD5DAQMOOF8WV0WID9,33PPO7FECWI8UD5DAQMOOF8WV0WID9,267577,267577,,,,,,,,,,
,,,,4,12.99298,0,1,1,112,1,a man and a woman share a bottle of wine and some food at a table overlooking some sort of orchard or vineyard,"a man and a woman share wine and food  at a table overlooking a orchard or vineyard and i really can't tell what the difference is, even with lookin closely.  maybe it's the rows of the plants, who knows",rensink,Eating,1,32,A2INXY39KBM92F,2021-01-06_13h44.08.545,MetaAwareness,2020.1.2,Win32,60,3J6BHNX0UAV500OK9LG19H4FC1KNKN,A2INXY39KBM92F,33PPO7FECWI8UD5DAQMOOF8WV0WID9,EOP37,EOP37,33PPO7FECWI8UD5DAQMOOF8WV0WID9,33PPO7FECWI8UD5DAQMOOF8WV0WID9,267577,267577,,,,,,,,,,
,,,,5,7.23198,0,2,2,228,1,two people are holding fruit in front of the corner of a white building,two people are holding fruit in front of the corner of a pink building,rensink,Nurses,3,32,A2INXY39KBM92F,2021-01-06_13h44.08.545,MetaAwareness,2020.1.2,Win32,60,3J6BHNX0UAV500OK9LG19H4FC1KNKN,A2INXY39KBM92F,33PPO7FECWI8UD5DAQMOOF8WV0WID9,EOP37,EOP37,33PPO7FECWI8UD5DAQMOOF8WV0WID9,33PPO7FECWI8UD5DAQMOOF8WV0WID9,267577,267577,,,,,,,,,,
,,,,4,16.08554,0,3,3,83,1,a military plane that has a cord hanging down that looks attached to the truck driving in the grass below-  the shadow of the plane can be seen in the grass,a military plane that has a cord hanging down that looks attached to the truck driving in the grass but in this picture the shadow can only be seen of the truck,rensink,Chopper,3,32,A2INXY39KBM92F,2021-01-06_13h44.08.545,MetaAwareness,2020.1.2,Win32,60,3J6BHNX0UAV500OK9LG19H4FC1KNKN,A2INXY39KBM92F,33PPO7FECWI8UD5DAQMOOF8WV0WID9,EOP37,EOP37,33PPO7FECWI8UD5DAQMOOF8WV0WID9,33PPO7FECWI8UD5DAQMOOF8WV0WID9,267577,267577,,,,,,,,,,
,,,,4,24.82772,0,4,4,269,1,train tracks in a station with more buildings beyond,train tracks in a station with people,rensink,Station,8,32,A2INXY39KBM92F,2021-01-06_13h44.08.545,MetaAwareness,2020.1.2,Win32,60,3J6BHNX0UAV500OK9LG19H4FC1KNKN,A2INXY39KBM92F,33PPO7FECWI8UD5DAQMOOF8WV0WID9,EOP37,EOP37,33PPO7FECWI8UD5DAQMOOF8WV0WID9,33PPO7FECWI8UD5DAQMOOF8WV0WID9,267577,267577,,,,,,,,,,
,,,,5,5.450975,0,5,5,72,1,nearby building reflects in the lake water,nearby bridge reflects in the lake water,rensink,CanalBridge,5,32,A2INXY39KBM92F,2021-01-06_13h44.08.545,MetaAwareness,2020.1.2,Win32,60,3J6BHNX0UAV500OK9LG19H4FC1KNKN,A2INXY39KBM92F,33PPO7FECWI8UD5DAQMOOF8WV0WID9,EOP37,EOP37,33PPO7FECWI8UD5DAQMOOF8WV0WID9,33PPO7FECWI8UD5DAQMOOF8WV0WID9,267577,267577,,,,,,,,,,
,,,,5,5.64957,0,6,6,212,1,three men holding a large fish on a boat with and orange object on the floor,three men holding a large fish on a boat,rensink,Marling,5,32,A2INXY39KBM92F,2021-01-06_13h44.08.545,MetaAwareness,2020.1.2,Win32,60,3J6BHNX0UAV500OK9LG19H4FC1KNKN,A2INXY39KBM92F,33PPO7FECWI8UD5DAQMOOF8WV0WID9,EOP37,EOP37,33PPO7FECWI8UD5DAQMOOF8WV0WID9,33PPO7FECWI8UD5DAQMOOF8WV0WID9,267577,267577,,,,,,,,,,
,,,,4,6.011445,0,7,7,8,1,a military vehicle is driving down a road shadowed by trees,a military vehicle is driving down a road but a large tree shadow is missing,rensink,Army,2,32,A2INXY39KBM92F,2021-01-06_13h44.08.545,MetaAwareness,2020.1.2,Win32,60,3J6BHNX0UAV500OK9LG19H4FC1KNKN,A2INXY39KBM92F,33PPO7FECWI8UD5DAQMOOF8WV0WID9,EOP37,EOP37,33PPO7FECWI8UD5DAQMOOF8WV0WID9,33PPO7FECWI8UD5DAQMOOF8WV0WID9,267577,267577,,,,,,,,,,
,,,,6,3.285905,0,8,8,245,1,the building is grey color,the building is yellow color,rensink,Pilots,3,32,A2INXY39KBM92F,2021-01-06_13h44.08.545,MetaAwareness,2020.1.2,Win32,60,3J6BHNX0UAV500OK9LG19H4FC1KNKN,A2INXY39KBM92F,33PPO7FECWI8UD5DAQMOOF8WV0WID9,EOP37,EOP37,33PPO7FECWI8UD5DAQMOOF8WV0WID9,33PPO7FECWI8UD5DAQMOOF8WV0WID9,267577,267577,,,,,,,,,,
,,,,4,9.443885,0,9,9,63,1,a man and a camel stand in front of a wall that breaks to expose the skyline,a man and a camel stand in front of a wall that breaks to expose more desert,rensink,Camel,1,32,A2INXY39KBM92F,2021-01-06_13h44.08.545,MetaAwareness,2020.1.2,Win32,60,3J6BHNX0UAV500OK9LG19H4FC1KNKN,A2INXY39KBM92F,33PPO7FECWI8UD5DAQMOOF8WV0WID9,EOP37,EOP37,33PPO7FECWI8UD5DAQMOOF8WV0WID9,33PPO7FECWI8UD5DAQMOOF8WV0WID9,267577,267577,,,,,,,,,,
,,,,4,5.04712,0,10,10,257,1, two soldiers were sitting in the vehicle.,one soldier was sitting in the vehicle.,rensink,Soldiers,3,32,A2INXY39KBM92F,2021-01-06_13h44.08.545,MetaAwareness,2020.1.2,Win32,60,3J6BHNX0UAV500OK9LG19H4FC1KNKN,A2INXY39KBM92F,33PPO7FECWI8UD5DAQMOOF8WV0WID9,EOP37,EOP37,33PPO7FECWI8UD5DAQMOOF8WV0WID9,33PPO7FECWI8UD5DAQMOOF8WV0WID9,267577,267577,,,,,,,,,,
,,,,4,3.87068,0,11,11,203,1, the man wear the blue colour pant,the man wear the light brown colour pant,rensink,Market,1,32,A2INXY39KBM92F,2021-01-06_13h44.08.545,MetaAwareness,2020.1.2,Win32,60,3J6BHNX0UAV500OK9LG19H4FC1KNKN,A2INXY39KBM92F,33PPO7FECWI8UD5DAQMOOF8WV0WID9,EOP37,EOP37,33PPO7FECWI8UD5DAQMOOF8WV0WID9,33PPO7FECWI8UD5DAQMOOF8WV0WID9,267577,267577,,,,,,,,,,
,,,,4,6.460545,0,12,12,175,1,a man kayaks in rapids wearing a red outfit,a man kayaks in rapids wearing a blue outfit,rensink,Kayak,3,32,A2INXY39KBM92F,2021-01-06_13h44.08.545,MetaAwareness,2020.1.2,Win32,60,3J6BHNX0UAV500OK9LG19H4FC1KNKN,A2INXY39KBM92F,33PPO7FECWI8UD5DAQMOOF8WV0WID9,EOP37,EOP37,33PPO7FECWI8UD5DAQMOOF8WV0WID9,33PPO7FECWI8UD5DAQMOOF8WV0WID9,267577,267577,,,,,,,,,,
,,,,4,8.73097,0,13,13,86,1,a field with a helicoptor hovering over a vehicle with a wide shadow,a field with a helicoptor hovering over a vehicle with a short shadow,rensink,Chopper,6,32,A2INXY39KBM92F,2021-01-06_13h44.08.545,MetaAwareness,2020.1.2,Win32,60,3J6BHNX0UAV500OK9LG19H4FC1KNKN,A2INXY39KBM92F,33PPO7FECWI8UD5DAQMOOF8WV0WID9,EOP37,EOP37,33PPO7FECWI8UD5DAQMOOF8WV0WID9,33PPO7FECWI8UD5DAQMOOF8WV0WID9,267577,267577,,,,,,,,,,
,,,,6,9.39648,0,14,14,54,1,four men stand on top of a bus fixing the baggage that is secured to the top,three men stand on top of a bus fixing the baggage that is secured to the top,rensink,Bus,4,32,A2INXY39KBM92F,2021-01-06_13h44.08.545,MetaAwareness,2020.1.2,Win32,60,3J6BHNX0UAV500OK9LG19H4FC1KNKN,A2INXY39KBM92F,33PPO7FECWI8UD5DAQMOOF8WV0WID9,EOP37,EOP37,33PPO7FECWI8UD5DAQMOOF8WV0WID9,33PPO7FECWI8UD5DAQMOOF8WV0WID9,267577,267577,,,,,,,,,,
,,,,5,7.16063,0,15,15,47,1,a white boat full of people about a foot away from a woman standing in the water,a white boat full of people in shallow water about a meter away from a woman standing in the water,rensink,Boat,3,32,A2INXY39KBM92F,2021-01-06_13h44.08.545,MetaAwareness,2020.1.2,Win32,60,3J6BHNX0UAV500OK9LG19H4FC1KNKN,A2INXY39KBM92F,33PPO7FECWI8UD5DAQMOOF8WV0WID9,EOP37,EOP37,33PPO7FECWI8UD5DAQMOOF8WV0WID9,33PPO7FECWI8UD5DAQMOOF8WV0WID9,267577,267577,,,,,,,,,,
,,,,5,5.917025,0,16,16,182,1,a man paddling a boat while approaching a mountain,a man paddling a boat while approaching a mountain with leaves on it,rensink,Kayaker,2,32,A2INXY39KBM92F,2021-01-06_13h44.08.545,MetaAwareness,2020.1.2,Win32,60,3J6BHNX0UAV500OK9LG19H4FC1KNKN,A2INXY39KBM92F,33PPO7FECWI8UD5DAQMOOF8WV0WID9,EOP37,EOP37,33PPO7FECWI8UD5DAQMOOF8WV0WID9,33PPO7FECWI8UD5DAQMOOF8WV0WID9,267577,267577,,,,,,,,,,
,,,,4,29.97611,0,17,17,279,1,a sandy beach with a woman and a large turtle under blue skies,a sandy beach with a woman and a large turn under pink skies,rensink,Turtle,3,32,A2INXY39KBM92F,2021-01-06_13h44.08.545,MetaAwareness,2020.1.2,Win32,60,3J6BHNX0UAV500OK9LG19H4FC1KNKN,A2INXY39KBM92F,33PPO7FECWI8UD5DAQMOOF8WV0WID9,EOP37,EOP37,33PPO7FECWI8UD5DAQMOOF8WV0WID9,33PPO7FECWI8UD5DAQMOOF8WV0WID9,267577,267577,,,,,,,,,,
,,,,5,17.44597,0,18,18,154,1,there are trees and bushes theres a waterfall and a building in the background,there's a waterfall a few trees and plants theres a building in the background with windows ,rensink,Fountain,5,32,A2INXY39KBM92F,2021-01-06_13h44.08.545,MetaAwareness,2020.1.2,Win32,60,3J6BHNX0UAV500OK9LG19H4FC1KNKN,A2INXY39KBM92F,33PPO7FECWI8UD5DAQMOOF8WV0WID9,EOP37,EOP37,33PPO7FECWI8UD5DAQMOOF8WV0WID9,33PPO7FECWI8UD5DAQMOOF8WV0WID9,267577,267577,,,,,,,,,,
,,,,4,9.82589,0,19,19,49,1,a group of people are inside and outside of a boat. there's a beach and water present,on the shore line is a group of people in a boat. there are other people standing near the beach the water appears to be shallow where the boat is,rensink,Boat,5,32,A2INXY39KBM92F,2021-01-06_13h44.08.545,MetaAwareness,2020.1.2,Win32,60,3J6BHNX0UAV500OK9LG19H4FC1KNKN,A2INXY39KBM92F,33PPO7FECWI8UD5DAQMOOF8WV0WID9,EOP37,EOP37,33PPO7FECWI8UD5DAQMOOF8WV0WID9,33PPO7FECWI8UD5DAQMOOF8WV0WID9,267577,267577,,,,,,,,,,
,,,,4,5.842175,0,20,20,122,1,people are looking at a statue that is partially covering a door,people look at a statue that is between two doors,rensink,Egypt,6,32,A2INXY39KBM92F,2021-01-06_13h44.08.545,MetaAwareness,2020.1.2,Win32,60,3J6BHNX0UAV500OK9LG19H4FC1KNKN,A2INXY39KBM92F,33PPO7FECWI8UD5DAQMOOF8WV0WID9,EOP37,EOP37,33PPO7FECWI8UD5DAQMOOF8WV0WID9,33PPO7FECWI8UD5DAQMOOF8WV0WID9,267577,267577,,,,,,,,,,
,,,,4,4.5699,0,21,21,207,1,a man at a market wearing blue jean pants.,a man at a market wearing tan jean pants.,rensink,Market,5,32,A2INXY39KBM92F,2021-01-06_13h44.08.545,MetaAwareness,2020.1.2,Win32,60,3J6BHNX0UAV500OK9LG19H4FC1KNKN,A2INXY39KBM92F,33PPO7FECWI8UD5DAQMOOF8WV0WID9,EOP37,EOP37,33PPO7FECWI8UD5DAQMOOF8WV0WID9,33PPO7FECWI8UD5DAQMOOF8WV0WID9,267577,267577,,,,,,,,,,
,,,,3,6.987595,0,22,22,282,1, a tropical beach with two men pushig a boat out in the calm water,a tropical beach with two men pushing a boat out on a big wave coming in,rensink,Water,2,32,A2INXY39KBM92F,2021-01-06_13h44.08.545,MetaAwareness,2020.1.2,Win32,60,3J6BHNX0UAV500OK9LG19H4FC1KNKN,A2INXY39KBM92F,33PPO7FECWI8UD5DAQMOOF8WV0WID9,EOP37,EOP37,33PPO7FECWI8UD5DAQMOOF8WV0WID9,33PPO7FECWI8UD5DAQMOOF8WV0WID9,267577,267577,,,,,,,,,,
,,,,4,6.40918,0,23,23,128,1,a farmhouse scene with trees reflected in a lake,a farmhouse scene reflected n a lake without trees,rensink,FarmByPond,2,32,A2INXY39KBM92F,2021-01-06_13h44.08.545,MetaAwareness,2020.1.2,Win32,60,3J6BHNX0UAV500OK9LG19H4FC1KNKN,A2INXY39KBM92F,33PPO7FECWI8UD5DAQMOOF8WV0WID9,EOP37,EOP37,33PPO7FECWI8UD5DAQMOOF8WV0WID9,33PPO7FECWI8UD5DAQMOOF8WV0WID9,267577,267577,,,,,,,,,,
,,,,5,12.177865,0,24,24,4,1,a man in a blue shirt driving a horse drawn hay cart,a man in a pink shirt driving a horse drawn hay cart,rensink,Amish,5,32,A2INXY39KBM92F,2021-01-06_13h44.08.545,MetaAwareness,2020.1.2,Win32,60,3J6BHNX0UAV500OK9LG19H4FC1KNKN,A2INXY39KBM92F,33PPO7FECWI8UD5DAQMOOF8WV0WID9,EOP37,EOP37,33PPO7FECWI8UD5DAQMOOF8WV0WID9,33PPO7FECWI8UD5DAQMOOF8WV0WID9,267577,267577,,,,,,,,,,
,,,,4,34.892215,0,25,25,273,1,a brown and a white boat beside it on water,a white boat on water alone,rensink,SummerLake,4,32,A2INXY39KBM92F,2021-01-06_13h44.08.545,MetaAwareness,2020.1.2,Win32,60,3J6BHNX0UAV500OK9LG19H4FC1KNKN,A2INXY39KBM92F,33PPO7FECWI8UD5DAQMOOF8WV0WID9,EOP37,EOP37,33PPO7FECWI8UD5DAQMOOF8WV0WID9,33PPO7FECWI8UD5DAQMOOF8WV0WID9,267577,267577,,,,,,,,,,
,,,,5,5.895985,0,26,26,23,1,a barn with a white fence and green grass,a barn with a white fence and brown grass,rensink,BarnTrack,3,32,A2INXY39KBM92F,2021-01-06_13h44.08.545,MetaAwareness,2020.1.2,Win32,60,3J6BHNX0UAV500OK9LG19H4FC1KNKN,A2INXY39KBM92F,33PPO7FECWI8UD5DAQMOOF8WV0WID9,EOP37,EOP37,33PPO7FECWI8UD5DAQMOOF8WV0WID9,33PPO7FECWI8UD5DAQMOOF8WV0WID9,267577,267577,,,,,,,,,,
,,,,4,11.361095,0,27,27,281,1,three people launch a boat away from an island that has houses with thatched roofs and palm trees,"three people launch a boat away from an island with thatched-roof homes and palm trees, slightly futher away than in the other yellow box",rensink,Water,1,32,A2INXY39KBM92F,2021-01-06_13h44.08.545,MetaAwareness,2020.1.2,Win32,60,3J6BHNX0UAV500OK9LG19H4FC1KNKN,A2INXY39KBM92F,33PPO7FECWI8UD5DAQMOOF8WV0WID9,EOP37,EOP37,33PPO7FECWI8UD5DAQMOOF8WV0WID9,33PPO7FECWI8UD5DAQMOOF8WV0WID9,267577,267577,,,,,,,,,,
,,,,3,3.095535,0,28,28,156,1,the helcopter was in blue color,helcopter wasin red color ,rensink,Harbor,1,32,A2INXY39KBM92F,2021-01-06_13h44.08.545,MetaAwareness,2020.1.2,Win32,60,3J6BHNX0UAV500OK9LG19H4FC1KNKN,A2INXY39KBM92F,33PPO7FECWI8UD5DAQMOOF8WV0WID9,EOP37,EOP37,33PPO7FECWI8UD5DAQMOOF8WV0WID9,33PPO7FECWI8UD5DAQMOOF8WV0WID9,267577,267577,,,,,,,,,,
,,,,4,4.622585,0,29,29,108,1,a woman snorkling underwater next to a green reef.,a woman snorkling underwater next to a red reef. ,rensink,Diver,4,32,A2INXY39KBM92F,2021-01-06_13h44.08.545,MetaAwareness,2020.1.2,Win32,60,3J6BHNX0UAV500OK9LG19H4FC1KNKN,A2INXY39KBM92F,33PPO7FECWI8UD5DAQMOOF8WV0WID9,EOP37,EOP37,33PPO7FECWI8UD5DAQMOOF8WV0WID9,33PPO7FECWI8UD5DAQMOOF8WV0WID9,267577,267577,,,,,,,,,,
,,,,,,,,,,,,,,,,32,A2INXY39KBM92F,2021-01-06_13h44.08.545,MetaAwareness,2020.1.2,Win32,60,3J6BHNX0UAV500OK9LG19H4FC1KNKN,A2INXY39KBM92F,33PPO7FECWI8UD5DAQMOOF8WV0WID9,EOP37,EOP37,33PPO7FECWI8UD5DAQMOOF8WV0WID9,33PPO7FECWI8UD5DAQMOOF8WV0WID9,267577,267577,6,8.33485,someone laying underneath a blue beach umbrella on a crowded beach,someone laying underneath a blue beach umbrella on a crowded beach,same,1,10.098995,members of a marching band crossing a track that all have feather plumes at the front of their hats,a cluttered and rustic looking cafe with 10 hanging lights,different