consent_response.keys,consent_response.rt,key_resp_2.keys,key_resp_2.rt,user_resp.keys,user_resp.rt,trials.thisRepN,trials.thisTrialN,trials.thisN,trials.thisIndex,trials.ran,image_1_text,image_2_text,database,image,number,age,worker_ID,date,expName,psychopyVersion,OS,frameRate,hitId,workerId,assignmentId,a,tp_a,b,tp_b,c,tp_c,catch_same_resp.keys,catch_same_resp.rt,image_1_text_catch_same,image_2_text_catch_same,image_catch_same,catch_different_resp.keys,catch_different_resp.rt,image_1_text_catch_different,image_2_text_catch_different,image_catch_different
space,6.391575,space,20.683795,2,9.678125,0,0,0,291,1,a piece of wood were kept in front of the window near dry leaves.,dry leaves were  near the windows.,rensink,Window,5,29,A3LWYWQE0CB5SC,2021-01-06_15h02.20.483,MetaAwareness,2020.1.2,Win32,60,3OYHVNTV5U1NILOWA0GEO64K2BQOK4,A3LWYWQE0CB5SC,3018Q3ZVOJTNP55KG3PVC61HXTOAR9,VQ107,VQ107,3018Q3ZVOJTNP55KG3PVC61HXTOAR9,3018Q3ZVOJTNP55KG3PVC61HXTOAR9,267577,267577,,,,,,,,,,
,,,,1,9.03471,0,1,1,154,1,there are trees and bushes theres a waterfall and a building in the background,there's a waterfall a few trees and plants theres a building in the background with windows ,rensink,Fountain,5,29,A3LWYWQE0CB5SC,2021-01-06_15h02.20.483,MetaAwareness,2020.1.2,Win32,60,3OYHVNTV5U1NILOWA0GEO64K2BQOK4,A3LWYWQE0CB5SC,3018Q3ZVOJTNP55KG3PVC61HXTOAR9,VQ107,VQ107,3018Q3ZVOJTNP55KG3PVC61HXTOAR9,3018Q3ZVOJTNP55KG3PVC61HXTOAR9,267577,267577,,,,,,,,,,
,,,,2,9.07167,0,2,2,195,1,"a man stands with a boat on the edge of a lake, looking out and possibly having  drink",a boat sits on the edge of a lake with no humans pictures,rensink,Lake,1,29,A3LWYWQE0CB5SC,2021-01-06_15h02.20.483,MetaAwareness,2020.1.2,Win32,60,3OYHVNTV5U1NILOWA0GEO64K2BQOK4,A3LWYWQE0CB5SC,3018Q3ZVOJTNP55KG3PVC61HXTOAR9,VQ107,VQ107,3018Q3ZVOJTNP55KG3PVC61HXTOAR9,3018Q3ZVOJTNP55KG3PVC61HXTOAR9,267577,267577,,,,,,,,,,
,,,,6,7.138795,0,3,3,48,1,a man is in the water by the boat while a couple of others are sitting in the boat,a man is in the water by the boat while a couple of others are sitting in the boat,rensink,Boat,4,29,A3LWYWQE0CB5SC,2021-01-06_15h02.20.483,MetaAwareness,2020.1.2,Win32,60,3OYHVNTV5U1NILOWA0GEO64K2BQOK4,A3LWYWQE0CB5SC,3018Q3ZVOJTNP55KG3PVC61HXTOAR9,VQ107,VQ107,3018Q3ZVOJTNP55KG3PVC61HXTOAR9,3018Q3ZVOJTNP55KG3PVC61HXTOAR9,267577,267577,,,,,,,,,,
,,,,4,11.147455,0,4,4,199,1,a man by the lake appears to be standing by a canoe while taking a photo of a ship in the distance,a canoe by the lake and a ship in the distance on the water,rensink,Lake,5,29,A3LWYWQE0CB5SC,2021-01-06_15h02.20.483,MetaAwareness,2020.1.2,Win32,60,3OYHVNTV5U1NILOWA0GEO64K2BQOK4,A3LWYWQE0CB5SC,3018Q3ZVOJTNP55KG3PVC61HXTOAR9,VQ107,VQ107,3018Q3ZVOJTNP55KG3PVC61HXTOAR9,3018Q3ZVOJTNP55KG3PVC61HXTOAR9,267577,267577,,,,,,,,,,
,,,,6,6.60532,0,5,5,217,1,an ancient building with a rectangular structure on the top,an ancient building with rectangular structure on the top,rensink,Mosque,5,29,A3LWYWQE0CB5SC,2021-01-06_15h02.20.483,MetaAwareness,2020.1.2,Win32,60,3OYHVNTV5U1NILOWA0GEO64K2BQOK4,A3LWYWQE0CB5SC,3018Q3ZVOJTNP55KG3PVC61HXTOAR9,VQ107,VQ107,3018Q3ZVOJTNP55KG3PVC61HXTOAR9,3018Q3ZVOJTNP55KG3PVC61HXTOAR9,267577,267577,,,,,,,,,,
,,,,4,11.7821,0,6,6,49,1,a group of people are inside and outside of a boat. there's a beach and water present,on the shore line is a group of people in a boat. there are other people standing near the beach the water appears to be shallow where the boat is,rensink,Boat,5,29,A3LWYWQE0CB5SC,2021-01-06_15h02.20.483,MetaAwareness,2020.1.2,Win32,60,3OYHVNTV5U1NILOWA0GEO64K2BQOK4,A3LWYWQE0CB5SC,3018Q3ZVOJTNP55KG3PVC61HXTOAR9,VQ107,VQ107,3018Q3ZVOJTNP55KG3PVC61HXTOAR9,3018Q3ZVOJTNP55KG3PVC61HXTOAR9,267577,267577,,,,,,,,,,
,,,,4,11.78436,0,7,7,152,1, the water fountain is small height,the watr fountain is big height,rensink,Fountain,3,29,A3LWYWQE0CB5SC,2021-01-06_15h02.20.483,MetaAwareness,2020.1.2,Win32,60,3OYHVNTV5U1NILOWA0GEO64K2BQOK4,A3LWYWQE0CB5SC,3018Q3ZVOJTNP55KG3PVC61HXTOAR9,VQ107,VQ107,3018Q3ZVOJTNP55KG3PVC61HXTOAR9,3018Q3ZVOJTNP55KG3PVC61HXTOAR9,267577,267577,,,,,,,,,,
,,,,3,325.012615,0,8,8,218,1,an architectureal peir towers over a church like building,a clear sky behind a church like building,rensink,Mosque,6,29,A3LWYWQE0CB5SC,2021-01-06_15h02.20.483,MetaAwareness,2020.1.2,Win32,60,3OYHVNTV5U1NILOWA0GEO64K2BQOK4,A3LWYWQE0CB5SC,3018Q3ZVOJTNP55KG3PVC61HXTOAR9,VQ107,VQ107,3018Q3ZVOJTNP55KG3PVC61HXTOAR9,3018Q3ZVOJTNP55KG3PVC61HXTOAR9,267577,267577,,,,,,,,,,
,,,,5,8.53923,0,9,9,105,1,a woman scuba diving next to green coral,a woman scuba diving next to red coral,rensink,Diver,1,29,A3LWYWQE0CB5SC,2021-01-06_15h02.20.483,MetaAwareness,2020.1.2,Win32,60,3OYHVNTV5U1NILOWA0GEO64K2BQOK4,A3LWYWQE0CB5SC,3018Q3ZVOJTNP55KG3PVC61HXTOAR9,VQ107,VQ107,3018Q3ZVOJTNP55KG3PVC61HXTOAR9,3018Q3ZVOJTNP55KG3PVC61HXTOAR9,267577,267577,,,,,,,,,,
,,,,5,13.544625,0,10,10,47,1,a white boat full of people about a foot away from a woman standing in the water,a white boat full of people in shallow water about a meter away from a woman standing in the water,rensink,Boat,3,29,A3LWYWQE0CB5SC,2021-01-06_15h02.20.483,MetaAwareness,2020.1.2,Win32,60,3OYHVNTV5U1NILOWA0GEO64K2BQOK4,A3LWYWQE0CB5SC,3018Q3ZVOJTNP55KG3PVC61HXTOAR9,VQ107,VQ107,3018Q3ZVOJTNP55KG3PVC61HXTOAR9,3018Q3ZVOJTNP55KG3PVC61HXTOAR9,267577,267577,,,,,,,,,,
,,,,5,5.314805,0,11,11,190,1,the boy sat on the yellow colour chair,the boy sat on the on pink colour chair,rensink,Kids,4,29,A3LWYWQE0CB5SC,2021-01-06_15h02.20.483,MetaAwareness,2020.1.2,Win32,60,3OYHVNTV5U1NILOWA0GEO64K2BQOK4,A3LWYWQE0CB5SC,3018Q3ZVOJTNP55KG3PVC61HXTOAR9,VQ107,VQ107,3018Q3ZVOJTNP55KG3PVC61HXTOAR9,3018Q3ZVOJTNP55KG3PVC61HXTOAR9,267577,267577,,,,,,,,,,
,,,,5,5.0352,0,12,12,15,1,a red barn set on a green field with beautiful trees behind it.,a green barn set on a green field with beautiful trees behind it.,rensink,Barns,2,29,A3LWYWQE0CB5SC,2021-01-06_15h02.20.483,MetaAwareness,2020.1.2,Win32,60,3OYHVNTV5U1NILOWA0GEO64K2BQOK4,A3LWYWQE0CB5SC,3018Q3ZVOJTNP55KG3PVC61HXTOAR9,VQ107,VQ107,3018Q3ZVOJTNP55KG3PVC61HXTOAR9,3018Q3ZVOJTNP55KG3PVC61HXTOAR9,267577,267577,,,,,,,,,,
,,,,5,4.087405,0,13,13,175,1,a man kayaks in rapids wearing a red outfit,a man kayaks in rapids wearing a blue outfit,rensink,Kayak,3,29,A3LWYWQE0CB5SC,2021-01-06_15h02.20.483,MetaAwareness,2020.1.2,Win32,60,3OYHVNTV5U1NILOWA0GEO64K2BQOK4,A3LWYWQE0CB5SC,3018Q3ZVOJTNP55KG3PVC61HXTOAR9,VQ107,VQ107,3018Q3ZVOJTNP55KG3PVC61HXTOAR9,3018Q3ZVOJTNP55KG3PVC61HXTOAR9,267577,267577,,,,,,,,,,
,,,,5,5.98134,0,14,14,134,1,a construction sight with a man holding a box in a dim green shirt,a construction site with a man holding a box with a bright green shirt,rensink,Farmer,2,29,A3LWYWQE0CB5SC,2021-01-06_15h02.20.483,MetaAwareness,2020.1.2,Win32,60,3OYHVNTV5U1NILOWA0GEO64K2BQOK4,A3LWYWQE0CB5SC,3018Q3ZVOJTNP55KG3PVC61HXTOAR9,VQ107,VQ107,3018Q3ZVOJTNP55KG3PVC61HXTOAR9,3018Q3ZVOJTNP55KG3PVC61HXTOAR9,267577,267577,,,,,,,,,,
,,,,5,5.64826,0,15,15,125,1,egyptian statue in front of temple entrance,egyptian statue to the side of temple entrance,rensink,Egypt,9,29,A3LWYWQE0CB5SC,2021-01-06_15h02.20.483,MetaAwareness,2020.1.2,Win32,60,3OYHVNTV5U1NILOWA0GEO64K2BQOK4,A3LWYWQE0CB5SC,3018Q3ZVOJTNP55KG3PVC61HXTOAR9,VQ107,VQ107,3018Q3ZVOJTNP55KG3PVC61HXTOAR9,3018Q3ZVOJTNP55KG3PVC61HXTOAR9,267577,267577,,,,,,,,,,
,,,,5,3.38669,0,16,16,27,1,the grass is green in front of rows of barrels,the grass is gray in front of rows of barrels,rensink,Barrels,2,29,A3LWYWQE0CB5SC,2021-01-06_15h02.20.483,MetaAwareness,2020.1.2,Win32,60,3OYHVNTV5U1NILOWA0GEO64K2BQOK4,A3LWYWQE0CB5SC,3018Q3ZVOJTNP55KG3PVC61HXTOAR9,VQ107,VQ107,3018Q3ZVOJTNP55KG3PVC61HXTOAR9,3018Q3ZVOJTNP55KG3PVC61HXTOAR9,267577,267577,,,,,,,,,,
,,,,4,9.46357,0,17,17,141,1,"a man fishing in the lake, dressed with oversized pants.","a man fishing in the lake, dressed in oversized pants, with strong currents comin through.",rensink,Fishing,3,29,A3LWYWQE0CB5SC,2021-01-06_15h02.20.483,MetaAwareness,2020.1.2,Win32,60,3OYHVNTV5U1NILOWA0GEO64K2BQOK4,A3LWYWQE0CB5SC,3018Q3ZVOJTNP55KG3PVC61HXTOAR9,VQ107,VQ107,3018Q3ZVOJTNP55KG3PVC61HXTOAR9,3018Q3ZVOJTNP55KG3PVC61HXTOAR9,267577,267577,,,,,,,,,,
,,,,4,4.844675,0,18,18,61,1,a big ship on the ocean next to a small boat,a small boat on the ocean,rensink,Cactus,6,29,A3LWYWQE0CB5SC,2021-01-06_15h02.20.483,MetaAwareness,2020.1.2,Win32,60,3OYHVNTV5U1NILOWA0GEO64K2BQOK4,A3LWYWQE0CB5SC,3018Q3ZVOJTNP55KG3PVC61HXTOAR9,VQ107,VQ107,3018Q3ZVOJTNP55KG3PVC61HXTOAR9,3018Q3ZVOJTNP55KG3PVC61HXTOAR9,267577,267577,,,,,,,,,,
,,,,5,6.765005,0,19,19,52,1,a cluttered looking bus with four men standing on top of it,a cluttered looking bus with three men standing on top of it,rensink,Bus,2,29,A3LWYWQE0CB5SC,2021-01-06_15h02.20.483,MetaAwareness,2020.1.2,Win32,60,3OYHVNTV5U1NILOWA0GEO64K2BQOK4,A3LWYWQE0CB5SC,3018Q3ZVOJTNP55KG3PVC61HXTOAR9,VQ107,VQ107,3018Q3ZVOJTNP55KG3PVC61HXTOAR9,3018Q3ZVOJTNP55KG3PVC61HXTOAR9,267577,267577,,,,,,,,,,
,,,,6,14.549055,0,20,20,97,1,two women and a man in native dress smiling in front of a light,two women and a man in native dress smiling in front of a green light,rensink,Description,6,29,A3LWYWQE0CB5SC,2021-01-06_15h02.20.483,MetaAwareness,2020.1.2,Win32,60,3OYHVNTV5U1NILOWA0GEO64K2BQOK4,A3LWYWQE0CB5SC,3018Q3ZVOJTNP55KG3PVC61HXTOAR9,VQ107,VQ107,3018Q3ZVOJTNP55KG3PVC61HXTOAR9,3018Q3ZVOJTNP55KG3PVC61HXTOAR9,267577,267577,,,,,,,,,,
,,,,4,6.581795,0,21,21,198,1, a man stands near a canoe on a lake shore,a canoe is on the shore of a lake,rensink,Lake,4,29,A3LWYWQE0CB5SC,2021-01-06_15h02.20.483,MetaAwareness,2020.1.2,Win32,60,3OYHVNTV5U1NILOWA0GEO64K2BQOK4,A3LWYWQE0CB5SC,3018Q3ZVOJTNP55KG3PVC61HXTOAR9,VQ107,VQ107,3018Q3ZVOJTNP55KG3PVC61HXTOAR9,3018Q3ZVOJTNP55KG3PVC61HXTOAR9,267577,267577,,,,,,,,,,
,,,,5,6.835035,0,22,22,5,1,a horse and carriage with hay in the carriage in compartment. the riders wearing a blue shit,a horse and carriage with hay in the carriage compartment. the rider's wearing a pink shirt,rensink,Amish,6,29,A3LWYWQE0CB5SC,2021-01-06_15h02.20.483,MetaAwareness,2020.1.2,Win32,60,3OYHVNTV5U1NILOWA0GEO64K2BQOK4,A3LWYWQE0CB5SC,3018Q3ZVOJTNP55KG3PVC61HXTOAR9,VQ107,VQ107,3018Q3ZVOJTNP55KG3PVC61HXTOAR9,3018Q3ZVOJTNP55KG3PVC61HXTOAR9,267577,267577,,,,,,,,,,
,,,,5,8.64537,0,23,23,115,1,a man and a woman dining outside by a railing,a man and a woman dining outside by a railing near their heads,rensink,Eating,4,29,A3LWYWQE0CB5SC,2021-01-06_15h02.20.483,MetaAwareness,2020.1.2,Win32,60,3OYHVNTV5U1NILOWA0GEO64K2BQOK4,A3LWYWQE0CB5SC,3018Q3ZVOJTNP55KG3PVC61HXTOAR9,VQ107,VQ107,3018Q3ZVOJTNP55KG3PVC61HXTOAR9,3018Q3ZVOJTNP55KG3PVC61HXTOAR9,267577,267577,,,,,,,,,,
,,,,5,4.1936,0,24,24,111,1, a scuba diver under water with green coral and a yellow fish,a scuba diver under water with red coral and a yellow fish,rensink,Diver,7,29,A3LWYWQE0CB5SC,2021-01-06_15h02.20.483,MetaAwareness,2020.1.2,Win32,60,3OYHVNTV5U1NILOWA0GEO64K2BQOK4,A3LWYWQE0CB5SC,3018Q3ZVOJTNP55KG3PVC61HXTOAR9,VQ107,VQ107,3018Q3ZVOJTNP55KG3PVC61HXTOAR9,3018Q3ZVOJTNP55KG3PVC61HXTOAR9,267577,267577,,,,,,,,,,
,,,,5,7.86336,0,25,25,76,1,a big castle which has half of its front door hidden by a wall,a big castle which has most of its front door hidden by a wall,rensink,Castle,2,29,A3LWYWQE0CB5SC,2021-01-06_15h02.20.483,MetaAwareness,2020.1.2,Win32,60,3OYHVNTV5U1NILOWA0GEO64K2BQOK4,A3LWYWQE0CB5SC,3018Q3ZVOJTNP55KG3PVC61HXTOAR9,VQ107,VQ107,3018Q3ZVOJTNP55KG3PVC61HXTOAR9,3018Q3ZVOJTNP55KG3PVC61HXTOAR9,267577,267577,,,,,,,,,,
,,,,4,9.18099,0,26,26,85,1,a vehicle is parked in a field a man is in the back a helicopter is hovering above,an army type vehicle parked in a field with a man in the back and a helicopter hovering above it ,rensink,Chopper,5,29,A3LWYWQE0CB5SC,2021-01-06_15h02.20.483,MetaAwareness,2020.1.2,Win32,60,3OYHVNTV5U1NILOWA0GEO64K2BQOK4,A3LWYWQE0CB5SC,3018Q3ZVOJTNP55KG3PVC61HXTOAR9,VQ107,VQ107,3018Q3ZVOJTNP55KG3PVC61HXTOAR9,3018Q3ZVOJTNP55KG3PVC61HXTOAR9,267577,267577,,,,,,,,,,
,,,,5,3.38438,0,27,27,257,1, two soldiers were sitting in the vehicle.,one soldier was sitting in the vehicle.,rensink,Soldiers,3,29,A3LWYWQE0CB5SC,2021-01-06_15h02.20.483,MetaAwareness,2020.1.2,Win32,60,3OYHVNTV5U1NILOWA0GEO64K2BQOK4,A3LWYWQE0CB5SC,3018Q3ZVOJTNP55KG3PVC61HXTOAR9,VQ107,VQ107,3018Q3ZVOJTNP55KG3PVC61HXTOAR9,3018Q3ZVOJTNP55KG3PVC61HXTOAR9,267577,267577,,,,,,,,,,
,,,,4,4.01452,0,28,28,233,1,there has a large tree and small tree,there has a small tree,rensink,Obelisk,2,29,A3LWYWQE0CB5SC,2021-01-06_15h02.20.483,MetaAwareness,2020.1.2,Win32,60,3OYHVNTV5U1NILOWA0GEO64K2BQOK4,A3LWYWQE0CB5SC,3018Q3ZVOJTNP55KG3PVC61HXTOAR9,VQ107,VQ107,3018Q3ZVOJTNP55KG3PVC61HXTOAR9,3018Q3ZVOJTNP55KG3PVC61HXTOAR9,267577,267577,,,,,,,,,,
,,,,5,2.800865,0,29,29,258,1,four soldiers sit in the back of an army vehicle at a military checkpoint,three soldiers sit in the back of an army vehicle at a military checkpoint,rensink,Soldiers,4,29,A3LWYWQE0CB5SC,2021-01-06_15h02.20.483,MetaAwareness,2020.1.2,Win32,60,3OYHVNTV5U1NILOWA0GEO64K2BQOK4,A3LWYWQE0CB5SC,3018Q3ZVOJTNP55KG3PVC61HXTOAR9,VQ107,VQ107,3018Q3ZVOJTNP55KG3PVC61HXTOAR9,3018Q3ZVOJTNP55KG3PVC61HXTOAR9,267577,267577,,,,,,,,,,
,,,,,,,,,,,,,,,,29,A3LWYWQE0CB5SC,2021-01-06_15h02.20.483,MetaAwareness,2020.1.2,Win32,60,3OYHVNTV5U1NILOWA0GEO64K2BQOK4,A3LWYWQE0CB5SC,3018Q3ZVOJTNP55KG3PVC61HXTOAR9,VQ107,VQ107,3018Q3ZVOJTNP55KG3PVC61HXTOAR9,3018Q3ZVOJTNP55KG3PVC61HXTOAR9,267577,267577,6,7.97351,someone laying underneath a blue beach umbrella on a crowded beach,someone laying underneath a blue beach umbrella on a crowded beach,same,1,11.17963,members of a marching band crossing a track that all have feather plumes at the front of their hats,a cluttered and rustic looking cafe with 10 hanging lights,different