consent_response.keys,consent_response.rt,key_resp_2.keys,key_resp_2.rt,user_resp.keys,user_resp.rt,trials.thisRepN,trials.thisTrialN,trials.thisN,trials.thisIndex,trials.ran,image_1_text,image_2_text,database,image,number,age,worker_ID,date,expName,psychopyVersion,OS,frameRate,hitId,workerId,assignmentId,a,tp_a,b,tp_b,c,tp_c,catch_same_resp.keys,catch_same_resp.rt,image_1_text_catch_same,image_2_text_catch_same,image_catch_same,catch_different_resp.keys,catch_different_resp.rt,image_1_text_catch_different,image_2_text_catch_different,image_catch_different
space,5.01,space,2.289,4,8.999,0,0,0,294,1, in this picture the chees wa in ,i this box no chees in only apple ,rensink,Wine,1,38,A3M9ZOPLZIQ2A,2021-01-06_15h40.54.420,MetaAwareness,2020.1.2,Win32,60,3P6ENY9P7AZMK9CL6K0CRHS6YMPIH3,A3M9ZOPLZIQ2A,3ATTHHXXWBRMSJAU1QN0IMBOBIJIXM,XHTA7,XHTA7,3ATTHHXXWBRMSJAU1QN0IMBOBIJIXM,3ATTHHXXWBRMSJAU1QN0IMBOBIJIXM,267577,267577,,,,,,,,,,
,,,,5,1.889,0,1,1,240,1,a snorkeller greets a fish off the coast of a reef,a snorkeller greets a fish off the coast of a reef,rensink,OtherDiver,5,38,A3M9ZOPLZIQ2A,2021-01-06_15h40.54.420,MetaAwareness,2020.1.2,Win32,60,3P6ENY9P7AZMK9CL6K0CRHS6YMPIH3,A3M9ZOPLZIQ2A,3ATTHHXXWBRMSJAU1QN0IMBOBIJIXM,XHTA7,XHTA7,3ATTHHXXWBRMSJAU1QN0IMBOBIJIXM,3ATTHHXXWBRMSJAU1QN0IMBOBIJIXM,267577,267577,,,,,,,,,,
,,,,6,2.338,0,2,2,69,1,a european city by the water with a reflection of a building in the water,a european city by the water without a reflection of a building in the water,rensink,CanalBridge,2,38,A3M9ZOPLZIQ2A,2021-01-06_15h40.54.420,MetaAwareness,2020.1.2,Win32,60,3P6ENY9P7AZMK9CL6K0CRHS6YMPIH3,A3M9ZOPLZIQ2A,3ATTHHXXWBRMSJAU1QN0IMBOBIJIXM,XHTA7,XHTA7,3ATTHHXXWBRMSJAU1QN0IMBOBIJIXM,3ATTHHXXWBRMSJAU1QN0IMBOBIJIXM,267577,267577,,,,,,,,,,
,,,,5,1.789,0,3,3,168,1,three children are standing on ice near a person in a paddle boat in the water,three children are standing on ice near a body of water with no boat,rensink,Ice,1,38,A3M9ZOPLZIQ2A,2021-01-06_15h40.54.420,MetaAwareness,2020.1.2,Win32,60,3P6ENY9P7AZMK9CL6K0CRHS6YMPIH3,A3M9ZOPLZIQ2A,3ATTHHXXWBRMSJAU1QN0IMBOBIJIXM,XHTA7,XHTA7,3ATTHHXXWBRMSJAU1QN0IMBOBIJIXM,3ATTHHXXWBRMSJAU1QN0IMBOBIJIXM,267577,267577,,,,,,,,,,
,,,,4,1.014,0,4,4,210,1,"3 fisherman standing on a boat holding a marlin they've caught, with a yellow tarp on the deck","3 fisherman standing on a boat holding a marlin they've caught, with no yellow tarp on the deck",rensink,Marling,3,38,A3M9ZOPLZIQ2A,2021-01-06_15h40.54.420,MetaAwareness,2020.1.2,Win32,60,3P6ENY9P7AZMK9CL6K0CRHS6YMPIH3,A3M9ZOPLZIQ2A,3ATTHHXXWBRMSJAU1QN0IMBOBIJIXM,XHTA7,XHTA7,3ATTHHXXWBRMSJAU1QN0IMBOBIJIXM,3ATTHHXXWBRMSJAU1QN0IMBOBIJIXM,267577,267577,,,,,,,,,,
,,,,6,1.023,0,5,5,19,1,there is a red farmhouse on rolling green hills,there is a green farmhouse on rolling green hills,rensink,Barns,6,38,A3M9ZOPLZIQ2A,2021-01-06_15h40.54.420,MetaAwareness,2020.1.2,Win32,60,3P6ENY9P7AZMK9CL6K0CRHS6YMPIH3,A3M9ZOPLZIQ2A,3ATTHHXXWBRMSJAU1QN0IMBOBIJIXM,XHTA7,XHTA7,3ATTHHXXWBRMSJAU1QN0IMBOBIJIXM,3ATTHHXXWBRMSJAU1QN0IMBOBIJIXM,267577,267577,,,,,,,,,,
,,,,5,0.935,0,6,6,284,1,"a man paddles a boat on an island, while two others pull it to shore","a man paddles a boat onto an island, while two others pull it to shore",rensink,Water,4,38,A3M9ZOPLZIQ2A,2021-01-06_15h40.54.420,MetaAwareness,2020.1.2,Win32,60,3P6ENY9P7AZMK9CL6K0CRHS6YMPIH3,A3M9ZOPLZIQ2A,3ATTHHXXWBRMSJAU1QN0IMBOBIJIXM,XHTA7,XHTA7,3ATTHHXXWBRMSJAU1QN0IMBOBIJIXM,3ATTHHXXWBRMSJAU1QN0IMBOBIJIXM,267577,267577,,,,,,,,,,
,,,,6,1.153,0,7,7,291,1,a piece of wood were kept in front of the window near dry leaves.,dry leaves were  near the windows.,rensink,Window,5,38,A3M9ZOPLZIQ2A,2021-01-06_15h40.54.420,MetaAwareness,2020.1.2,Win32,60,3P6ENY9P7AZMK9CL6K0CRHS6YMPIH3,A3M9ZOPLZIQ2A,3ATTHHXXWBRMSJAU1QN0IMBOBIJIXM,XHTA7,XHTA7,3ATTHHXXWBRMSJAU1QN0IMBOBIJIXM,3ATTHHXXWBRMSJAU1QN0IMBOBIJIXM,267577,267577,,,,,,,,,,
,,,,4,1.038,0,8,8,110,1,an underwater green corral rock,an underwater red corral rock,rensink,Diver,6,38,A3M9ZOPLZIQ2A,2021-01-06_15h40.54.420,MetaAwareness,2020.1.2,Win32,60,3P6ENY9P7AZMK9CL6K0CRHS6YMPIH3,A3M9ZOPLZIQ2A,3ATTHHXXWBRMSJAU1QN0IMBOBIJIXM,XHTA7,XHTA7,3ATTHHXXWBRMSJAU1QN0IMBOBIJIXM,3ATTHHXXWBRMSJAU1QN0IMBOBIJIXM,267577,267577,,,,,,,,,,
,,,,5,1.142,0,9,9,106,1,the unde water coral is  green color,the underwater coral is red color,rensink,Diver,2,38,A3M9ZOPLZIQ2A,2021-01-06_15h40.54.420,MetaAwareness,2020.1.2,Win32,60,3P6ENY9P7AZMK9CL6K0CRHS6YMPIH3,A3M9ZOPLZIQ2A,3ATTHHXXWBRMSJAU1QN0IMBOBIJIXM,XHTA7,XHTA7,3ATTHHXXWBRMSJAU1QN0IMBOBIJIXM,3ATTHHXXWBRMSJAU1QN0IMBOBIJIXM,267577,267577,,,,,,,,,,
,,,,4,1.135,0,10,10,226,1,two women with fruit in front of a white building,two women with fruit in front of an orange building ,rensink,Nurses,1,38,A3M9ZOPLZIQ2A,2021-01-06_15h40.54.420,MetaAwareness,2020.1.2,Win32,60,3P6ENY9P7AZMK9CL6K0CRHS6YMPIH3,A3M9ZOPLZIQ2A,3ATTHHXXWBRMSJAU1QN0IMBOBIJIXM,XHTA7,XHTA7,3ATTHHXXWBRMSJAU1QN0IMBOBIJIXM,3ATTHHXXWBRMSJAU1QN0IMBOBIJIXM,267577,267577,,,,,,,,,,
,,,,5,1.024,0,11,11,64,1,a man standing next to a camel in the middle of the desert with no sand behind the tower,a man standing next to a camel in the midel of the desert with sand behind the tower,rensink,Camel,2,38,A3M9ZOPLZIQ2A,2021-01-06_15h40.54.420,MetaAwareness,2020.1.2,Win32,60,3P6ENY9P7AZMK9CL6K0CRHS6YMPIH3,A3M9ZOPLZIQ2A,3ATTHHXXWBRMSJAU1QN0IMBOBIJIXM,XHTA7,XHTA7,3ATTHHXXWBRMSJAU1QN0IMBOBIJIXM,3ATTHHXXWBRMSJAU1QN0IMBOBIJIXM,267577,267577,,,,,,,,,,
,,,,6,0.968,0,12,12,136,1,there is a man on a construction truck and he is wearing a dark green plaid shirt. ,there is a man on a construction truck and he is wearing a bright green plaid shirt. ,rensink,Farmer,4,38,A3M9ZOPLZIQ2A,2021-01-06_15h40.54.420,MetaAwareness,2020.1.2,Win32,60,3P6ENY9P7AZMK9CL6K0CRHS6YMPIH3,A3M9ZOPLZIQ2A,3ATTHHXXWBRMSJAU1QN0IMBOBIJIXM,XHTA7,XHTA7,3ATTHHXXWBRMSJAU1QN0IMBOBIJIXM,3ATTHHXXWBRMSJAU1QN0IMBOBIJIXM,267577,267577,,,,,,,,,,
,,,,5,0.947,0,13,13,122,1,people are looking at a statue that is partially covering a door,people look at a statue that is between two doors,rensink,Egypt,6,38,A3M9ZOPLZIQ2A,2021-01-06_15h40.54.420,MetaAwareness,2020.1.2,Win32,60,3P6ENY9P7AZMK9CL6K0CRHS6YMPIH3,A3M9ZOPLZIQ2A,3ATTHHXXWBRMSJAU1QN0IMBOBIJIXM,XHTA7,XHTA7,3ATTHHXXWBRMSJAU1QN0IMBOBIJIXM,3ATTHHXXWBRMSJAU1QN0IMBOBIJIXM,267577,267577,,,,,,,,,,
,,,,4,0.888,0,14,14,221,1,tree was small amout of in  ,tree branches lot of amout,rensink,NotreDame,1,38,A3M9ZOPLZIQ2A,2021-01-06_15h40.54.420,MetaAwareness,2020.1.2,Win32,60,3P6ENY9P7AZMK9CL6K0CRHS6YMPIH3,A3M9ZOPLZIQ2A,3ATTHHXXWBRMSJAU1QN0IMBOBIJIXM,XHTA7,XHTA7,3ATTHHXXWBRMSJAU1QN0IMBOBIJIXM,3ATTHHXXWBRMSJAU1QN0IMBOBIJIXM,267577,267577,,,,,,,,,,
,,,,5,0.938,0,15,15,275,1,people are relaxing on the lake. there are three boats,people are relaxing on the lake. there are two boats,rensink,SummerLake,6,38,A3M9ZOPLZIQ2A,2021-01-06_15h40.54.420,MetaAwareness,2020.1.2,Win32,60,3P6ENY9P7AZMK9CL6K0CRHS6YMPIH3,A3M9ZOPLZIQ2A,3ATTHHXXWBRMSJAU1QN0IMBOBIJIXM,XHTA7,XHTA7,3ATTHHXXWBRMSJAU1QN0IMBOBIJIXM,3ATTHHXXWBRMSJAU1QN0IMBOBIJIXM,267577,267577,,,,,,,,,,
,,,,6,0.862,0,16,16,62,1,an outdoor view of a lake with a ship in it,an outdoor view of a lake with a small boat in it,rensink,Cactus,7,38,A3M9ZOPLZIQ2A,2021-01-06_15h40.54.420,MetaAwareness,2020.1.2,Win32,60,3P6ENY9P7AZMK9CL6K0CRHS6YMPIH3,A3M9ZOPLZIQ2A,3ATTHHXXWBRMSJAU1QN0IMBOBIJIXM,XHTA7,XHTA7,3ATTHHXXWBRMSJAU1QN0IMBOBIJIXM,3ATTHHXXWBRMSJAU1QN0IMBOBIJIXM,267577,267577,,,,,,,,,,
,,,,5,0.805,0,17,17,247,1,3 pilots standing in front of a helicopter with a gray building in the background,3 pilots standing in front of a helicopter with a yellow building in the background,rensink,Pilots,5,38,A3M9ZOPLZIQ2A,2021-01-06_15h40.54.420,MetaAwareness,2020.1.2,Win32,60,3P6ENY9P7AZMK9CL6K0CRHS6YMPIH3,A3M9ZOPLZIQ2A,3ATTHHXXWBRMSJAU1QN0IMBOBIJIXM,XHTA7,XHTA7,3ATTHHXXWBRMSJAU1QN0IMBOBIJIXM,3ATTHHXXWBRMSJAU1QN0IMBOBIJIXM,267577,267577,,,,,,,,,,
,,,,4,0.84,0,18,18,20,1,a building in a beautiful meadow that's painted red. ,a building in a beautiful meadow that's paited green.,rensink,Barns,7,38,A3M9ZOPLZIQ2A,2021-01-06_15h40.54.420,MetaAwareness,2020.1.2,Win32,60,3P6ENY9P7AZMK9CL6K0CRHS6YMPIH3,A3M9ZOPLZIQ2A,3ATTHHXXWBRMSJAU1QN0IMBOBIJIXM,XHTA7,XHTA7,3ATTHHXXWBRMSJAU1QN0IMBOBIJIXM,3ATTHHXXWBRMSJAU1QN0IMBOBIJIXM,267577,267577,,,,,,,,,,
,,,,5,0.797,0,19,19,267,1,empty train station tracks with a highway overpass near the entrance,empty train station tracks with the sky in the distant entrance,rensink,Station,6,38,A3M9ZOPLZIQ2A,2021-01-06_15h40.54.420,MetaAwareness,2020.1.2,Win32,60,3P6ENY9P7AZMK9CL6K0CRHS6YMPIH3,A3M9ZOPLZIQ2A,3ATTHHXXWBRMSJAU1QN0IMBOBIJIXM,XHTA7,XHTA7,3ATTHHXXWBRMSJAU1QN0IMBOBIJIXM,3ATTHHXXWBRMSJAU1QN0IMBOBIJIXM,267577,267577,,,,,,,,,,
,,,,6,0.914,0,20,20,290,1,a scenic view in front of a window with a log on the bottom left corner,a schenic view in front of a window without a log in the bottom left corner,rensink,Window,4,38,A3M9ZOPLZIQ2A,2021-01-06_15h40.54.420,MetaAwareness,2020.1.2,Win32,60,3P6ENY9P7AZMK9CL6K0CRHS6YMPIH3,A3M9ZOPLZIQ2A,3ATTHHXXWBRMSJAU1QN0IMBOBIJIXM,XHTA7,XHTA7,3ATTHHXXWBRMSJAU1QN0IMBOBIJIXM,3ATTHHXXWBRMSJAU1QN0IMBOBIJIXM,267577,267577,,,,,,,,,,
,,,,6,1.946,0,21,21,144,1,a lake under blue skies with a fisherman to the left of the large mountain,a lake under blue skies with a fisherman in front of the large mountain,rensink,Fishing,6,38,A3M9ZOPLZIQ2A,2021-01-06_15h40.54.420,MetaAwareness,2020.1.2,Win32,60,3P6ENY9P7AZMK9CL6K0CRHS6YMPIH3,A3M9ZOPLZIQ2A,3ATTHHXXWBRMSJAU1QN0IMBOBIJIXM,XHTA7,XHTA7,3ATTHHXXWBRMSJAU1QN0IMBOBIJIXM,3ATTHHXXWBRMSJAU1QN0IMBOBIJIXM,267577,267577,,,,,,,,,,
,,,,5,0.837,0,22,22,108,1,a woman snorkling underwater next to a green reef.,a woman snorkling underwater next to a red reef. ,rensink,Diver,4,38,A3M9ZOPLZIQ2A,2021-01-06_15h40.54.420,MetaAwareness,2020.1.2,Win32,60,3P6ENY9P7AZMK9CL6K0CRHS6YMPIH3,A3M9ZOPLZIQ2A,3ATTHHXXWBRMSJAU1QN0IMBOBIJIXM,XHTA7,XHTA7,3ATTHHXXWBRMSJAU1QN0IMBOBIJIXM,3ATTHHXXWBRMSJAU1QN0IMBOBIJIXM,267577,267577,,,,,,,,,,
,,,,4,0.888,0,23,23,76,1,a big castle which has half of its front door hidden by a wall,a big castle which has most of its front door hidden by a wall,rensink,Castle,2,38,A3M9ZOPLZIQ2A,2021-01-06_15h40.54.420,MetaAwareness,2020.1.2,Win32,60,3P6ENY9P7AZMK9CL6K0CRHS6YMPIH3,A3M9ZOPLZIQ2A,3ATTHHXXWBRMSJAU1QN0IMBOBIJIXM,XHTA7,XHTA7,3ATTHHXXWBRMSJAU1QN0IMBOBIJIXM,3ATTHHXXWBRMSJAU1QN0IMBOBIJIXM,267577,267577,,,,,,,,,,
,,,,5,0.961,0,24,24,148,1,a water plane on the water surface with a red stripe on it,a water plane on the water surface with a blue stripe on it,rensink,Floatplane,4,38,A3M9ZOPLZIQ2A,2021-01-06_15h40.54.420,MetaAwareness,2020.1.2,Win32,60,3P6ENY9P7AZMK9CL6K0CRHS6YMPIH3,A3M9ZOPLZIQ2A,3ATTHHXXWBRMSJAU1QN0IMBOBIJIXM,XHTA7,XHTA7,3ATTHHXXWBRMSJAU1QN0IMBOBIJIXM,3ATTHHXXWBRMSJAU1QN0IMBOBIJIXM,267577,267577,,,,,,,,,,
,,,,6,0.794,0,25,25,5,1,a horse and carriage with hay in the carriage in compartment. the riders wearing a blue shit,a horse and carriage with hay in the carriage compartment. the rider's wearing a pink shirt,rensink,Amish,6,38,A3M9ZOPLZIQ2A,2021-01-06_15h40.54.420,MetaAwareness,2020.1.2,Win32,60,3P6ENY9P7AZMK9CL6K0CRHS6YMPIH3,A3M9ZOPLZIQ2A,3ATTHHXXWBRMSJAU1QN0IMBOBIJIXM,XHTA7,XHTA7,3ATTHHXXWBRMSJAU1QN0IMBOBIJIXM,3ATTHHXXWBRMSJAU1QN0IMBOBIJIXM,267577,267577,,,,,,,,,,
,,,,4,0.601,0,26,26,184,1,a person is kayaking along a cliff face,"a person is kayaking along a cliff face, nearing the end",rensink,Kayaker,4,38,A3M9ZOPLZIQ2A,2021-01-06_15h40.54.420,MetaAwareness,2020.1.2,Win32,60,3P6ENY9P7AZMK9CL6K0CRHS6YMPIH3,A3M9ZOPLZIQ2A,3ATTHHXXWBRMSJAU1QN0IMBOBIJIXM,XHTA7,XHTA7,3ATTHHXXWBRMSJAU1QN0IMBOBIJIXM,3ATTHHXXWBRMSJAU1QN0IMBOBIJIXM,267577,267577,,,,,,,,,,
,,,,5,0.927,0,27,27,172,1,a boat with someone on it on water,no boat on the water,rensink,Ice,5,38,A3M9ZOPLZIQ2A,2021-01-06_15h40.54.420,MetaAwareness,2020.1.2,Win32,60,3P6ENY9P7AZMK9CL6K0CRHS6YMPIH3,A3M9ZOPLZIQ2A,3ATTHHXXWBRMSJAU1QN0IMBOBIJIXM,XHTA7,XHTA7,3ATTHHXXWBRMSJAU1QN0IMBOBIJIXM,3ATTHHXXWBRMSJAU1QN0IMBOBIJIXM,267577,267577,,,,,,,,,,
,,,,6,0.913,0,28,28,21,1, the grass was fully i the ground ,no grass in the field,rensink,BarnTrack,1,38,A3M9ZOPLZIQ2A,2021-01-06_15h40.54.420,MetaAwareness,2020.1.2,Win32,60,3P6ENY9P7AZMK9CL6K0CRHS6YMPIH3,A3M9ZOPLZIQ2A,3ATTHHXXWBRMSJAU1QN0IMBOBIJIXM,XHTA7,XHTA7,3ATTHHXXWBRMSJAU1QN0IMBOBIJIXM,3ATTHHXXWBRMSJAU1QN0IMBOBIJIXM,267577,267577,,,,,,,,,,
,,,,4,0.887,0,29,29,283,1,the boat so far to the landthe b,the boat near to the land,rensink,Water,3,38,A3M9ZOPLZIQ2A,2021-01-06_15h40.54.420,MetaAwareness,2020.1.2,Win32,60,3P6ENY9P7AZMK9CL6K0CRHS6YMPIH3,A3M9ZOPLZIQ2A,3ATTHHXXWBRMSJAU1QN0IMBOBIJIXM,XHTA7,XHTA7,3ATTHHXXWBRMSJAU1QN0IMBOBIJIXM,3ATTHHXXWBRMSJAU1QN0IMBOBIJIXM,267577,267577,,,,,,,,,,
,,,,,,,,,,,,,,,,38,A3M9ZOPLZIQ2A,2021-01-06_15h40.54.420,MetaAwareness,2020.1.2,Win32,60,3P6ENY9P7AZMK9CL6K0CRHS6YMPIH3,A3M9ZOPLZIQ2A,3ATTHHXXWBRMSJAU1QN0IMBOBIJIXM,XHTA7,XHTA7,3ATTHHXXWBRMSJAU1QN0IMBOBIJIXM,3ATTHHXXWBRMSJAU1QN0IMBOBIJIXM,267577,267577,5,0.778,someone laying underneath a blue beach umbrella on a crowded beach,someone laying underneath a blue beach umbrella on a crowded beach,same,6,0.859,members of a marching band crossing a track that all have feather plumes at the front of their hats,a cluttered and rustic looking cafe with 10 hanging lights,different