workerId,assignmentId,hitId,unmod_image,unmod_image_splash,mod_image,mod_image_splash,expTimer,response,trial_number,rt,x,y
A1251G78LIS2M3,NA,NA,catchAirplane-a,catchAirplane-as,catchAirplane-b,catchAirplane-bs,343.924,-1,1,11963,505,278
A1251G78LIS2M3,NA,NA,catchBoat-a,catchBoat-as,catchBoat-b,catchBoat-bs,360.396,-1,2,14910,296,132
A1251G78LIS2M3,NA,NA,wolfe_052_R_speaker-a,wolfe_052_R_speaker-as,wolfe_052_R_speaker-b,wolfe_052_R_speaker-bs,370.97,-1,3,9055,488,334
A1251G78LIS2M3,NA,NA,wolfe_125_R_sofa-a,wolfe_125_R_sofa-as,wolfe_125_R_sofa-b,wolfe_125_R_sofa-bs,383.26,-1,4,10388,450,162
A1251G78LIS2M3,NA,NA,wolfe_016_R_art-a,wolfe_016_R_art-as,wolfe_016_R_art-b,wolfe_016_R_art-bs,392.448,-1,5,8361,619,194
A1251G78LIS2M3,NA,NA,wolfe_031_R_log-a,wolfe_031_R_log-as,wolfe_031_R_log-b,wolfe_031_R_log-bs,401.72,-1,6,8329,492,44
A1251G78LIS2M3,NA,NA,wolfe_027_R_soapdish-a,wolfe_027_R_soapdish-as,wolfe_027_R_soapdish-b,wolfe_027_R_soapdish-bs,414.037,-1,7,11521,628,276
A1251G78LIS2M3,NA,NA,wolfe_004_R_electricalgrid-a,wolfe_004_R_electricalgrid-as,wolfe_004_R_electricalgrid-b,wolfe_004_R_electricalgrid-bs,422.72,-1,8,8020,414,36
A1251G78LIS2M3,NA,NA,wolfe_102_R_shoppingbag-a,wolfe_102_R_shoppingbag-as,wolfe_102_R_shoppingbag-b,wolfe_102_R_shoppingbag-bs,432.411,-1,9,9188,473,357
A1251G78LIS2M3,NA,NA,wolfe_099_R_sconce-a,wolfe_099_R_sconce-as,wolfe_099_R_sconce-b,wolfe_099_R_sconce-bs,441.941,-1,10,7983,480,169
A1251G78LIS2M3,NA,NA,wolfe_005_R_mirror-a,wolfe_005_R_mirror-as,wolfe_005_R_mirror-b,wolfe_005_R_mirror-bs,450.68,-1,11,8263,507,218
A1251G78LIS2M3,NA,NA,wolfe_080_R_plant-a,wolfe_080_R_plant-as,wolfe_080_R_plant-b,wolfe_080_R_plant-bs,463.597,-1,12,11709,350,241
A1251G78LIS2M3,NA,NA,wolfe_101_R_cup-a,wolfe_101_R_cup-as,wolfe_101_R_cup-b,wolfe_101_R_cup-bs,473.34,-1,13,9280,349,142
A1251G78LIS2M3,NA,NA,wolfe_069_R_things-a,wolfe_069_R_things-as,wolfe_069_R_things-b,wolfe_069_R_things-bs,485.236,-1,14,11484,589,128
A1251G78LIS2M3,NA,NA,wolfe_068_R_faucet-a,wolfe_068_R_faucet-as,wolfe_068_R_faucet-b,wolfe_068_R_faucet-bs,499.923,-1,15,14061,380,308
A1251G78LIS2M3,NA,NA,wolfe_077_R_footrest-a,wolfe_077_R_footrest-as,wolfe_077_R_footrest-b,wolfe_077_R_footrest-bs,519.225,-1,16,18874,344,352
A1251G78LIS2M3,NA,NA,wolfe_055_R_carpet-a,wolfe_055_R_carpet-as,wolfe_055_R_carpet-b,wolfe_055_R_carpet-bs,545.35,-1,17,25665,414,398
A1251G78LIS2M3,NA,NA,wolfe_010_R_candle-a,wolfe_010_R_candle-as,wolfe_010_R_candle-b,wolfe_010_R_candle-bs,545.355,-1,18,26078,414,398
A1251G78LIS2M3,NA,NA,wolfe_050_R_book-a,wolfe_050_R_book-as,wolfe_050_R_book-b,wolfe_050_R_book-bs,580.2,-1,19,34631,195,342
A1251G78LIS2M3,NA,NA,wolfe_120_R_art-a,wolfe_120_R_art-as,wolfe_120_R_art-b,wolfe_120_R_art-bs,592.86,-1,20,11699,448,148
A1251G78LIS2M3,NA,NA,wolfe_054_R_firewood-a,wolfe_054_R_firewood-as,wolfe_054_R_firewood-b,wolfe_054_R_firewood-bs,604.121,-1,21,9329,632,322
A1251G78LIS2M3,NA,NA,wolfe_073_R_coffeemug-a,wolfe_073_R_coffeemug-as,wolfe_073_R_coffeemug-b,wolfe_073_R_coffeemug-bs,614.61,-1,22,8136,629,229
A1251G78LIS2M3,NA,NA,wolfe_106_R_toweldispenser-a,wolfe_106_R_toweldispenser-as,wolfe_106_R_toweldispenser-b,wolfe_106_R_toweldispenser-bs,625.39,-1,23,9110,420,142
A1251G78LIS2M3,NA,NA,wolfe_095_R_candle-a,wolfe_095_R_candle-as,wolfe_095_R_candle-b,wolfe_095_R_candle-bs,637.96,-1,24,10609,463,289
A1251G78LIS2M3,NA,NA,wolfe_047_R_handle-a,wolfe_047_R_handle-as,wolfe_047_R_handle-b,wolfe_047_R_handle-bs,652.03,-1,25,12387,542,423
A1251G78LIS2M3,NA,NA,wolfe_013_R_lamp-a,wolfe_013_R_lamp-as,wolfe_013_R_lamp-b,wolfe_013_R_lamp-bs,671.701,-1,26,17742,518,168
A1251G78LIS2M3,NA,NA,wolfe_091_R_airfreshener-a,wolfe_091_R_airfreshener-as,wolfe_091_R_airfreshener-b,wolfe_091_R_airfreshener-bs,691.46,-1,27,18538,493,192
A1251G78LIS2M3,NA,NA,wolfe_081_R_football-a,wolfe_081_R_football-as,wolfe_081_R_football-b,wolfe_081_R_football-bs,710.97,-1,28,17937,362,357
A1251G78LIS2M3,NA,NA,wolfe_042_R_tap-a,wolfe_042_R_tap-as,wolfe_042_R_tap-b,wolfe_042_R_tap-bs,723.24,-1,29,10270,347,239
A1251G78LIS2M3,NA,NA,wolfe_007_R_soap-a,wolfe_007_R_soap-as,wolfe_007_R_soap-b,wolfe_007_R_soap-bs,734.668,-1,30,9149,493,484
A1251G78LIS2M3,NA,NA,wolfe_117_R_plant_sized-a,wolfe_117_R_plant_sized-as,wolfe_117_R_plant_sized-b,wolfe_117_R_plant_sized-bs,749.889,-1,31,12981,595,348
A1251G78LIS2M3,NA,NA,wolfe_033_R_vase-a,wolfe_033_R_vase-as,wolfe_033_R_vase-b,wolfe_033_R_vase-bs,759.467,-1,32,8087,585,196
A1251G78LIS2M3,NA,NA,catchCow-a,catchCow-as,catchCow-b,catchCow-bs,769.996,-1,33,9193,381,188
