workerId,assignmentId,hitId,unmod_image,unmod_image_splash,mod_image,mod_image_splash,expTimer,response,trial_number,rt,x,y
A1LQZMAUNWD6FW,NA,NA,catchAirplane-a,catchAirplane-as,catchAirplane-b,catchAirplane-bs,21.631,-1,1,6144,346,199
A1LQZMAUNWD6FW,NA,NA,catchBoat-a,catchBoat-as,catchBoat-b,catchBoat-bs,21.64,-1,2,7853,346,199
A1LQZMAUNWD6FW,NA,NA,wolfe_056_L_comforter-a,wolfe_056_L_comforter-as,wolfe_056_L_comforter-b,wolfe_056_L_comforter-bs,35.008,-1,3,9361,464,135
A1LQZMAUNWD6FW,NA,NA,wolfe_031_L_log-a,wolfe_031_L_log-as,wolfe_031_L_log-b,wolfe_031_L_log-bs,35.01,-1,4,9680,464,135
A1LQZMAUNWD6FW,NA,NA,wolfe_107_L_shirts-a,wolfe_107_L_shirts-as,wolfe_107_L_shirts-b,wolfe_107_L_shirts-bs,56.678,-1,5,19852,143,268
A1LQZMAUNWD6FW,NA,NA,wolfe_048_L_art-a,wolfe_048_L_art-as,wolfe_048_L_art-b,wolfe_048_L_art-bs,74.557,-1,6,13703,42,281
A1LQZMAUNWD6FW,NA,NA,wolfe_077_L_footrest-a,wolfe_077_L_footrest-as,wolfe_077_L_footrest-b,wolfe_077_L_footrest-bs,99.48,-1,7,23161,283,258
A1LQZMAUNWD6FW,NA,NA,wolfe_040_L_painting-a,wolfe_040_L_painting-as,wolfe_040_L_painting-b,wolfe_040_L_painting-bs,111.728,-1,8,10122,136,83
A1LQZMAUNWD6FW,NA,NA,wolfe_029_L_glass-a,wolfe_029_L_glass-as,wolfe_029_L_glass-b,wolfe_029_L_glass-bs,137.511,-1,9,24470,173,257
A1LQZMAUNWD6FW,NA,NA,wolfe_122_L_chair-a,wolfe_122_L_chair-as,wolfe_122_L_chair-b,wolfe_122_L_chair-bs,159.081,-1,10,20169,271,152
A1LQZMAUNWD6FW,NA,NA,wolfe_025_L_vase-a,wolfe_025_L_vase-as,wolfe_025_L_vase-b,wolfe_025_L_vase-bs,182.428,-1,11,22071,42,314
A1LQZMAUNWD6FW,NA,NA,wolfe_126_L_candles-a,wolfe_126_L_candles-as,wolfe_126_L_candles-b,wolfe_126_L_candles-bs,193.649,-1,12,9956,28,284
A1LQZMAUNWD6FW,NA,NA,wolfe_018_L_plant-a,wolfe_018_L_plant-as,wolfe_018_L_plant-b,wolfe_018_L_plant-bs,207.675,-1,13,12619,76,254
A1LQZMAUNWD6FW,NA,NA,wolfe_123_L_pot-a,wolfe_123_L_pot-as,wolfe_123_L_pot-b,wolfe_123_L_pot-bs,232.837,-1,14,23797,20,389
A1LQZMAUNWD6FW,NA,NA,wolfe_102_L_shoppingbag-a,wolfe_102_L_shoppingbag-as,wolfe_102_L_shoppingbag-b,wolfe_102_L_shoppingbag-bs,244.166,-1,15,9873,184,349
A1LQZMAUNWD6FW,NA,NA,wolfe_099_L_sconce-a,wolfe_099_L_sconce-as,wolfe_099_L_sconce-b,wolfe_099_L_sconce-bs,256.119,-1,16,9527,188,178
A1LQZMAUNWD6FW,NA,NA,wolfe_014_L_lamp-a,wolfe_014_L_lamp-as,wolfe_014_L_lamp-b,wolfe_014_L_lamp-bs,268.69,-1,17,11962,165,121
A1LQZMAUNWD6FW,NA,NA,wolfe_119_L_painting-a,wolfe_119_L_painting-as,wolfe_119_L_painting-b,wolfe_119_L_painting-bs,283.756,-1,18,13762,253,245
A1LQZMAUNWD6FW,NA,NA,wolfe_059_L_car-a,wolfe_059_L_car-as,wolfe_059_L_car-b,wolfe_059_L_car-bs,315.415,-1,19,30040,230,162
A1LQZMAUNWD6FW,NA,NA,wolfe_016_L_art-a,wolfe_016_L_art-as,wolfe_016_L_art-b,wolfe_016_L_art-bs,326.612,-1,20,9833,51,202
A1LQZMAUNWD6FW,NA,NA,wolfe_033_L_vase-a,wolfe_033_L_vase-as,wolfe_033_L_vase-b,wolfe_033_L_vase-bs,338.781,-1,21,11385,69,203
A1LQZMAUNWD6FW,NA,NA,wolfe_121_L_car-a,wolfe_121_L_car-as,wolfe_121_L_car-b,wolfe_121_L_car-bs,350.976,-1,22,12143,39,349
A1LQZMAUNWD6FW,NA,NA,wolfe_108_L_boa-a,wolfe_108_L_boa-as,wolfe_108_L_boa-b,wolfe_108_L_boa-bs,364.977,-1,23,13640,319,219
A1LQZMAUNWD6FW,NA,NA,wolfe_046_L_remote-a,wolfe_046_L_remote-as,wolfe_046_L_remote-b,wolfe_046_L_remote-bs,385.579,-1,24,19257,288,320
A1LQZMAUNWD6FW,NA,NA,wolfe_089_L_poster-a,wolfe_089_L_poster-as,wolfe_089_L_poster-b,wolfe_089_L_poster-bs,397.998,-1,25,11511,296,119
A1LQZMAUNWD6FW,NA,NA,wolfe_128_L_pot-a,wolfe_128_L_pot-as,wolfe_128_L_pot-b,wolfe_128_L_pot-bs,408.481,-1,26,9499,163,256
A1LQZMAUNWD6FW,NA,NA,wolfe_019_L_lamp_sized-a,wolfe_019_L_lamp_sized-as,wolfe_019_L_lamp_sized-b,wolfe_019_L_lamp_sized-bs,420.647,-1,27,11409,189,140
A1LQZMAUNWD6FW,NA,NA,wolfe_103_L_hook-a,wolfe_103_L_hook-as,wolfe_103_L_hook-b,wolfe_103_L_hook-bs,436.775,-1,28,15469,17,101
A1LQZMAUNWD6FW,NA,NA,wolfe_113_L_plant-a,wolfe_113_L_plant-as,wolfe_113_L_plant-b,wolfe_113_L_plant-bs,451.579,-1,29,13514,317,263
A1LQZMAUNWD6FW,NA,NA,wolfe_032_L_bottle-a,wolfe_032_L_bottle-as,wolfe_032_L_bottle-b,wolfe_032_L_bottle-bs,471.576,-1,30,19176,244,151
A1LQZMAUNWD6FW,NA,NA,wolfe_064_L_bottles-a,wolfe_064_L_bottles-as,wolfe_064_L_bottles-b,wolfe_064_L_bottles-bs,482.036,-1,31,4194,124,191
A1LQZMAUNWD6FW,NA,NA,catchCow-a,catchCow-as,catchCow-b,catchCow-bs,482.045,-1,33,8977,124,191
A1LQZMAUNWD6FW,NA,NA,wolfe_079_L_bowl-a,wolfe_079_L_bowl-as,wolfe_079_L_bowl-b,wolfe_079_L_bowl-bs,482.041,-1,32,6297,124,191
