workerId,assignmentId,hitId,unmod_image,unmod_image_splash,mod_image,mod_image_splash,expTimer,response,trial_number,rt,x,y
A1P3HHEXWNLJMP,NA,NA,catchAirplane-a,catchAirplane-as,catchAirplane-b,catchAirplane-bs,86.699,-1,1,8067,224,235
A1P3HHEXWNLJMP,NA,NA,catchBoat-a,catchBoat-as,catchBoat-b,catchBoat-bs,97.32,-1,2,7240,401,271
A1P3HHEXWNLJMP,NA,NA,wolfe_042_R_tap-a,wolfe_042_R_tap-as,wolfe_042_R_tap-b,wolfe_042_R_tap-bs,128.419,-1,3,29755,344,227
A1P3HHEXWNLJMP,NA,NA,wolfe_104_R_bottle-a,wolfe_104_R_bottle-as,wolfe_104_R_bottle-b,wolfe_104_R_bottle-bs,138.494,-1,4,8869,343,282
A1P3HHEXWNLJMP,NA,NA,wolfe_097_R_light-a,wolfe_097_R_light-as,wolfe_097_R_light-b,wolfe_097_R_light-bs,154.569,-1,5,15010,342,170
A1P3HHEXWNLJMP,NA,NA,wolfe_106_R_toweldispenser-a,wolfe_106_R_toweldispenser-as,wolfe_106_R_toweldispenser-b,wolfe_106_R_toweldispenser-bs,168.5,-1,6,13094,414,142
A1P3HHEXWNLJMP,NA,NA,wolfe_045_R_musicdock-a,wolfe_045_R_musicdock-as,wolfe_045_R_musicdock-b,wolfe_045_R_musicdock-bs,178.877,-1,7,8779,578,274
A1P3HHEXWNLJMP,NA,NA,wolfe_062_R_flowers-a,wolfe_062_R_flowers-as,wolfe_062_R_flowers-b,wolfe_062_R_flowers-bs,189.385,-1,8,8538,556,283
A1P3HHEXWNLJMP,NA,NA,wolfe_107_R_shirts-a,wolfe_107_R_shirts-as,wolfe_107_R_shirts-b,wolfe_107_R_shirts-bs,197.821,-1,9,7009,527,244
A1P3HHEXWNLJMP,NA,NA,wolfe_087_R_towelhandle-a,wolfe_087_R_towelhandle-as,wolfe_087_R_towelhandle-b,wolfe_087_R_towelhandle-bs,207.46,-1,10,8606,616,340
A1P3HHEXWNLJMP,NA,NA,wolfe_009_R_carpet-a,wolfe_009_R_carpet-as,wolfe_009_R_carpet-b,wolfe_009_R_carpet-bs,215.353,-1,11,7053,436,432
A1P3HHEXWNLJMP,NA,NA,wolfe_050_R_book-a,wolfe_050_R_book-as,wolfe_050_R_book-b,wolfe_050_R_book-bs,225.698,-1,12,9018,579,65
A1P3HHEXWNLJMP,NA,NA,wolfe_027_R_soapdish-a,wolfe_027_R_soapdish-as,wolfe_027_R_soapdish-b,wolfe_027_R_soapdish-bs,235.659,-1,13,8736,633,275
A1P3HHEXWNLJMP,NA,NA,wolfe_005_R_mirror-a,wolfe_005_R_mirror-as,wolfe_005_R_mirror-b,wolfe_005_R_mirror-bs,245.003,-1,14,8480,512,232
A1P3HHEXWNLJMP,NA,NA,wolfe_033_R_vase-a,wolfe_033_R_vase-as,wolfe_033_R_vase-b,wolfe_033_R_vase-bs,256.698,-1,15,10832,590,206
A1P3HHEXWNLJMP,NA,NA,wolfe_056_R_comforter-a,wolfe_056_R_comforter-as,wolfe_056_R_comforter-b,wolfe_056_R_comforter-bs,264.1,-1,16,6749,486,341
A1P3HHEXWNLJMP,NA,NA,wolfe_075_R_light-a,wolfe_075_R_light-as,wolfe_075_R_light-b,wolfe_075_R_light-bs,313.93,-1,17,48802,526,55
A1P3HHEXWNLJMP,NA,NA,wolfe_085_R_switchboard-a,wolfe_085_R_switchboard-as,wolfe_085_R_switchboard-b,wolfe_085_R_switchboard-bs,323.098,-1,18,8521,474,301
A1P3HHEXWNLJMP,NA,NA,wolfe_038_R_art-a,wolfe_038_R_art-as,wolfe_038_R_art-b,wolfe_038_R_art-bs,330.527,-1,19,6784,361,170
A1P3HHEXWNLJMP,NA,NA,wolfe_046_R_remote-a,wolfe_046_R_remote-as,wolfe_046_R_remote-b,wolfe_046_R_remote-bs,342.604,-1,20,10592,371,319
A1P3HHEXWNLJMP,NA,NA,wolfe_098_R_slippers-a,wolfe_098_R_slippers-as,wolfe_098_R_slippers-b,wolfe_098_R_slippers-bs,351.986,-1,21,8423,408,372
A1P3HHEXWNLJMP,NA,NA,wolfe_110_R_plant-a,wolfe_110_R_plant-as,wolfe_110_R_plant-b,wolfe_110_R_plant-bs,361.241,-1,22,8689,476,356
A1P3HHEXWNLJMP,NA,NA,wolfe_021_R_keyboard-a,wolfe_021_R_keyboard-as,wolfe_021_R_keyboard-b,wolfe_021_R_keyboard-bs,368.905,-1,23,7030,540,353
A1P3HHEXWNLJMP,NA,NA,wolfe_092_R_candles-a,wolfe_092_R_candles-as,wolfe_092_R_candles-b,wolfe_092_R_candles-bs,378.686,-1,24,8804,646,453
A1P3HHEXWNLJMP,NA,NA,wolfe_063_R_laptop-a,wolfe_063_R_laptop-as,wolfe_063_R_laptop-b,wolfe_063_R_laptop-bs,388.458,-1,25,8519,613,285
A1P3HHEXWNLJMP,NA,NA,wolfe_049_R_painting-a,wolfe_049_R_painting-as,wolfe_049_R_painting-b,wolfe_049_R_painting-bs,402.227,-1,26,12602,520,135
A1P3HHEXWNLJMP,NA,NA,wolfe_077_R_footrest-a,wolfe_077_R_footrest-as,wolfe_077_R_footrest-b,wolfe_077_R_footrest-bs,436.955,-1,27,33234,347,360
A1P3HHEXWNLJMP,NA,NA,wolfe_004_R_electricalgrid-a,wolfe_004_R_electricalgrid-as,wolfe_004_R_electricalgrid-b,wolfe_004_R_electricalgrid-bs,455.333,-1,28,16767,423,34
A1P3HHEXWNLJMP,NA,NA,wolfe_071_R_art-a,wolfe_071_R_art-as,wolfe_071_R_art-b,wolfe_071_R_art-bs,463.023,-1,29,6815,502,266
A1P3HHEXWNLJMP,NA,NA,wolfe_080_R_plant-a,wolfe_080_R_plant-as,wolfe_080_R_plant-b,wolfe_080_R_plant-bs,472.978,-1,30,8648,357,238
A1P3HHEXWNLJMP,NA,NA,wolfe_099_R_sconce-a,wolfe_099_R_sconce-as,wolfe_099_R_sconce-b,wolfe_099_R_sconce-bs,480.557,-1,31,6874,475,178
A1P3HHEXWNLJMP,NA,NA,wolfe_017_R_wood-a,wolfe_017_R_wood-as,wolfe_017_R_wood-b,wolfe_017_R_wood-bs,488.238,-1,32,6818,635,318
A1P3HHEXWNLJMP,NA,NA,catchCow-a,catchCow-as,catchCow-b,catchCow-bs,495.48,-1,33,6680,402,238
