workerId,assignmentId,hitId,unmod_image,unmod_image_splash,mod_image,mod_image_splash,expTimer,response,trial_number,rt,x,y
A1XVEKS9O73ERE,NA,NA,catchAirplane-a,catchAirplane-as,catchAirplane-b,catchAirplane-bs,35.182,-1,1,4539,514,301
A1XVEKS9O73ERE,NA,NA,catchBoat-a,catchBoat-as,catchBoat-b,catchBoat-bs,45.022,-1,2,7350,311,243
A1XVEKS9O73ERE,NA,NA,wolfe_028_L_vase-a,wolfe_028_L_vase-as,wolfe_028_L_vase-b,wolfe_028_L_vase-bs,54.318,-1,3,6407,237,264
A1XVEKS9O73ERE,NA,NA,wolfe_061_L_glass-a,wolfe_061_L_glass-as,wolfe_061_L_glass-b,wolfe_061_L_glass-bs,64.174,-1,4,7515,252,208
A1XVEKS9O73ERE,NA,NA,wolfe_009_L_carpet-a,wolfe_009_L_carpet-as,wolfe_009_L_carpet-b,wolfe_009_L_carpet-bs,73.966,-1,5,7672,150,290
A1XVEKS9O73ERE,NA,NA,wolfe_116_L_basket-a,wolfe_116_L_basket-as,wolfe_116_L_basket-b,wolfe_116_L_basket-bs,82.863,-1,6,7247,136,444
A1XVEKS9O73ERE,NA,NA,wolfe_085_L_switchboard-a,wolfe_085_L_switchboard-as,wolfe_085_L_switchboard-b,wolfe_085_L_switchboard-bs,92.166,-1,7,7055,180,292
A1XVEKS9O73ERE,NA,NA,wolfe_020_L_walldeco-a,wolfe_020_L_walldeco-as,wolfe_020_L_walldeco-b,wolfe_020_L_walldeco-bs,100.646,-1,8,6733,13,118
A1XVEKS9O73ERE,NA,NA,wolfe_106_L_toweldispenser-a,wolfe_106_L_toweldispenser-as,wolfe_106_L_toweldispenser-b,wolfe_106_L_toweldispenser-bs,109.182,-1,9,6639,262,145
A1XVEKS9O73ERE,NA,NA,wolfe_058_L_clutch-a,wolfe_058_L_clutch-as,wolfe_058_L_clutch-b,wolfe_058_L_clutch-bs,115.926,-1,10,5043,179,366
A1XVEKS9O73ERE,NA,NA,wolfe_056_L_comforter-a,wolfe_056_L_comforter-as,wolfe_056_L_comforter-b,wolfe_056_L_comforter-bs,122.486,-1,11,5167,165,331
A1XVEKS9O73ERE,NA,NA,wolfe_023_L_remote-a,wolfe_023_L_remote-as,wolfe_023_L_remote-b,wolfe_023_L_remote-bs,129.462,-1,12,5037,249,447
A1XVEKS9O73ERE,NA,NA,wolfe_049_L_painting-a,wolfe_049_L_painting-as,wolfe_049_L_painting-b,wolfe_049_L_painting-bs,136.334,-1,13,5214,152,142
A1XVEKS9O73ERE,NA,NA,wolfe_105_L_hat-a,wolfe_105_L_hat-as,wolfe_105_L_hat-b,wolfe_105_L_hat-bs,143.022,-1,14,5103,136,417
A1XVEKS9O73ERE,NA,NA,wolfe_101_L_cup-a,wolfe_101_L_cup-as,wolfe_101_L_cup-b,wolfe_101_L_cup-bs,151.494,-1,15,6684,312,146
A1XVEKS9O73ERE,NA,NA,wolfe_046_L_remote-a,wolfe_046_L_remote-as,wolfe_046_L_remote-b,wolfe_046_L_remote-bs,159.438,-1,16,6034,293,321
A1XVEKS9O73ERE,NA,NA,wolfe_014_L_lamp-a,wolfe_014_L_lamp-as,wolfe_014_L_lamp-b,wolfe_014_L_lamp-bs,166.829,-1,17,5016,190,140
A1XVEKS9O73ERE,NA,NA,wolfe_062_L_flowers-a,wolfe_062_L_flowers-as,wolfe_062_L_flowers-b,wolfe_062_L_flowers-bs,173.31,-1,18,4808,103,277
A1XVEKS9O73ERE,NA,NA,wolfe_016_L_art-a,wolfe_016_L_art-as,wolfe_016_L_art-b,wolfe_016_L_art-bs,179.99,-1,19,4775,66,176
A1XVEKS9O73ERE,NA,NA,wolfe_069_L_things-a,wolfe_069_L_things-as,wolfe_069_L_things-b,wolfe_069_L_things-bs,186.638,-1,20,4712,67,122
A1XVEKS9O73ERE,NA,NA,wolfe_008_L_bottle-a,wolfe_008_L_bottle-as,wolfe_008_L_bottle-b,wolfe_008_L_bottle-bs,193.134,-1,21,4782,80,296
A1XVEKS9O73ERE,NA,NA,wolfe_065_L_cd-a,wolfe_065_L_cd-as,wolfe_065_L_cd-b,wolfe_065_L_cd-bs,200.062,-1,22,4641,188,195
A1XVEKS9O73ERE,NA,NA,wolfe_112_L_basket-a,wolfe_112_L_basket-as,wolfe_112_L_basket-b,wolfe_112_L_basket-bs,206.358,-1,23,4923,90,390
A1XVEKS9O73ERE,NA,NA,wolfe_066_L_vase-a,wolfe_066_L_vase-as,wolfe_066_L_vase-b,wolfe_066_L_vase-bs,213.15,-1,24,4858,90,177
A1XVEKS9O73ERE,NA,NA,wolfe_087_L_towelhandle-a,wolfe_087_L_towelhandle-as,wolfe_087_L_towelhandle-b,wolfe_087_L_towelhandle-bs,219.926,-1,25,5158,54,340
A1XVEKS9O73ERE,NA,NA,wolfe_098_L_slippers-a,wolfe_098_L_slippers-as,wolfe_098_L_slippers-b,wolfe_098_L_slippers-bs,226.887,-1,26,5251,270,369
A1XVEKS9O73ERE,NA,NA,wolfe_057_L_bin-a,wolfe_057_L_bin-as,wolfe_057_L_bin-b,wolfe_057_L_bin-bs,234.702,-1,27,6629,262,342
A1XVEKS9O73ERE,NA,NA,wolfe_072_L_handle-a,wolfe_072_L_handle-as,wolfe_072_L_handle-b,wolfe_072_L_handle-bs,240.949,-1,28,4837,98,418
A1XVEKS9O73ERE,NA,NA,wolfe_051_L_owl-a,wolfe_051_L_owl-as,wolfe_051_L_owl-b,wolfe_051_L_owl-bs,247.022,-1,29,4697,276,299
A1XVEKS9O73ERE,NA,NA,wolfe_029_L_glass-a,wolfe_029_L_glass-as,wolfe_029_L_glass-b,wolfe_029_L_glass-bs,253.222,-1,30,4662,185,260
A1XVEKS9O73ERE,NA,NA,wolfe_003_L_ducks-a,wolfe_003_L_ducks-as,wolfe_003_L_ducks-b,wolfe_003_L_ducks-bs,259.175,-1,31,4868,284,316
A1XVEKS9O73ERE,NA,NA,wolfe_034_L_handle-a,wolfe_034_L_handle-as,wolfe_034_L_handle-b,wolfe_034_L_handle-bs,265.463,-1,32,4685,130,325
A1XVEKS9O73ERE,NA,NA,catchCow-a,catchCow-as,catchCow-b,catchCow-bs,271.406,-1,33,5027,421,239
