workerId,assignmentId,hitId,unmod_image,unmod_image_splash,mod_image,mod_image_splash,expTimer,response,trial_number,rt,x,y
A288RSAGJBLY9,NA,NA,catchAirplane-a,catchAirplane-as,catchAirplane-b,catchAirplane-bs,25.564,-1,1,7488,309,294
A288RSAGJBLY9,NA,NA,catchBoat-a,catchBoat-as,catchBoat-b,catchBoat-bs,34.002,-1,2,6781,407,270
A288RSAGJBLY9,NA,NA,wolfe_123_L_pot-a,wolfe_123_L_pot-as,wolfe_123_L_pot-b,wolfe_123_L_pot-bs,42.564,-1,3,6759,27,382
A288RSAGJBLY9,NA,NA,wolfe_126_L_candles-a,wolfe_126_L_candles-as,wolfe_126_L_candles-b,wolfe_126_L_candles-bs,50.372,-1,4,6445,32,285
A288RSAGJBLY9,NA,NA,wolfe_121_L_car-a,wolfe_121_L_car-as,wolfe_121_L_car-b,wolfe_121_L_car-bs,59.688,-1,5,7963,43,341
A288RSAGJBLY9,NA,NA,wolfe_073_L_coffeemug-a,wolfe_073_L_coffeemug-as,wolfe_073_L_coffeemug-b,wolfe_073_L_coffeemug-bs,81.121,-1,6,19462,44,229
A288RSAGJBLY9,NA,NA,wolfe_089_L_poster-a,wolfe_089_L_poster-as,wolfe_089_L_poster-b,wolfe_089_L_poster-bs,89.098,-1,7,6566,295,133
A288RSAGJBLY9,NA,NA,wolfe_053_L_handle-a,wolfe_053_L_handle-as,wolfe_053_L_handle-b,wolfe_053_L_handle-bs,97.401,-1,8,6646,175,327
A288RSAGJBLY9,NA,NA,wolfe_024_L_towels-a,wolfe_024_L_towels-as,wolfe_024_L_towels-b,wolfe_024_L_towels-bs,103.802,-1,9,4913,293,426
A288RSAGJBLY9,NA,NA,wolfe_068_L_faucet-a,wolfe_068_L_faucet-as,wolfe_068_L_faucet-b,wolfe_068_L_faucet-bs,110.462,-1,10,4768,309,306
A288RSAGJBLY9,NA,NA,wolfe_033_L_vase-a,wolfe_033_L_vase-as,wolfe_033_L_vase-b,wolfe_033_L_vase-bs,118.607,-1,11,6591,78,205
A288RSAGJBLY9,NA,NA,wolfe_087_L_towelhandle-a,wolfe_087_L_towelhandle-as,wolfe_087_L_towelhandle-b,wolfe_087_L_towelhandle-bs,126.416,-1,12,6423,42,347
A288RSAGJBLY9,NA,NA,wolfe_080_L_plant-a,wolfe_080_L_plant-as,wolfe_080_L_plant-b,wolfe_080_L_plant-bs,134.709,-1,13,6612,314,248
A288RSAGJBLY9,NA,NA,wolfe_050_L_book-a,wolfe_050_L_book-as,wolfe_050_L_book-b,wolfe_050_L_book-bs,142.809,-1,14,6602,109,60
A288RSAGJBLY9,NA,NA,wolfe_083_L_knob-a,wolfe_083_L_knob-as,wolfe_083_L_knob-b,wolfe_083_L_knob-bs,157.434,-1,15,10809,344,374
A288RSAGJBLY9,NA,NA,wolfe_111_L_pot-a,wolfe_111_L_pot-as,wolfe_111_L_pot-b,wolfe_111_L_pot-bs,168.292,-1,16,9585,196,388
A288RSAGJBLY9,NA,NA,wolfe_110_L_plant-a,wolfe_110_L_plant-as,wolfe_110_L_plant-b,wolfe_110_L_plant-bs,174.299,-1,17,4937,192,366
A288RSAGJBLY9,NA,NA,wolfe_029_L_glass-a,wolfe_029_L_glass-as,wolfe_029_L_glass-b,wolfe_029_L_glass-bs,180.489,-1,18,4723,189,279
A288RSAGJBLY9,NA,NA,wolfe_104_L_bottle-a,wolfe_104_L_bottle-as,wolfe_104_L_bottle-b,wolfe_104_L_bottle-bs,188.576,-1,19,6500,327,289
A288RSAGJBLY9,NA,NA,wolfe_018_L_plant-a,wolfe_018_L_plant-as,wolfe_018_L_plant-b,wolfe_018_L_plant-bs,198.511,-1,20,8729,90,286
A288RSAGJBLY9,NA,NA,wolfe_052_L_speaker-a,wolfe_052_L_speaker-as,wolfe_052_L_speaker-b,wolfe_052_L_speaker-bs,204.564,-1,21,4769,172,341
A288RSAGJBLY9,NA,NA,wolfe_004_L_electricalgrid-a,wolfe_004_L_electricalgrid-as,wolfe_004_L_electricalgrid-b,wolfe_004_L_electricalgrid-bs,211.404,-1,22,4796,272,116
A288RSAGJBLY9,NA,NA,wolfe_009_L_carpet-a,wolfe_009_L_carpet-as,wolfe_009_L_carpet-b,wolfe_009_L_carpet-bs,217.468,-1,23,4937,227,469
A288RSAGJBLY9,NA,NA,wolfe_085_L_switchboard-a,wolfe_085_L_switchboard-as,wolfe_085_L_switchboard-b,wolfe_085_L_switchboard-bs,228.461,-1,24,8943,192,307
A288RSAGJBLY9,NA,NA,wolfe_109_L_pillow-a,wolfe_109_L_pillow-as,wolfe_109_L_pillow-b,wolfe_109_L_pillow-bs,238.756,-1,25,5150,273,295
A288RSAGJBLY9,NA,NA,wolfe_105_L_hat-a,wolfe_105_L_hat-as,wolfe_105_L_hat-b,wolfe_105_L_hat-bs,244.965,-1,26,4948,114,432
A288RSAGJBLY9,NA,NA,wolfe_101_L_cup-a,wolfe_101_L_cup-as,wolfe_101_L_cup-b,wolfe_101_L_cup-bs,261.695,-1,27,14951,329,144
A288RSAGJBLY9,NA,NA,wolfe_114_L_bird-a,wolfe_114_L_bird-as,wolfe_114_L_bird-b,wolfe_114_L_bird-bs,269.593,-1,28,6525,299,361
A288RSAGJBLY9,NA,NA,wolfe_084_L_light-a,wolfe_084_L_light-as,wolfe_084_L_light-b,wolfe_084_L_light-bs,277.537,-1,29,6513,146,156
A288RSAGJBLY9,NA,NA,wolfe_078_L_faucet-a,wolfe_078_L_faucet-as,wolfe_078_L_faucet-b,wolfe_078_L_faucet-bs,285.446,-1,30,6737,268,368
A288RSAGJBLY9,NA,NA,wolfe_035_L_fruit-a,wolfe_035_L_fruit-as,wolfe_035_L_fruit-b,wolfe_035_L_fruit-bs,291.577,-1,31,4915,124,286
A288RSAGJBLY9,NA,NA,wolfe_012_L_tubaccesory-a,wolfe_012_L_tubaccesory-as,wolfe_012_L_tubaccesory-b,wolfe_012_L_tubaccesory-bs,301.556,-1,32,8650,224,354
A288RSAGJBLY9,NA,NA,catchCow-a,catchCow-as,catchCow-b,catchCow-bs,309.095,-1,33,6547,361,278
