workerId,assignmentId,hitId,unmod_image,unmod_image_splash,mod_image,mod_image_splash,expTimer,response,trial_number,rt,x,y
A2H6B2E7W89FJ0,NA,NA,catchAirplane-a,catchAirplane-as,catchAirplane-b,catchAirplane-bs,42.296,-1,1,4911,284,259
A2H6B2E7W89FJ0,NA,NA,catchBoat-a,catchBoat-as,catchBoat-b,catchBoat-bs,50.176,-1,2,6741,372,267
A2H6B2E7W89FJ0,NA,NA,wolfe_055_R_carpet-a,wolfe_055_R_carpet-as,wolfe_055_R_carpet-b,wolfe_055_R_carpet-bs,63.833,-1,3,12902,406,392
A2H6B2E7W89FJ0,NA,NA,wolfe_084_R_light-a,wolfe_084_R_light-as,wolfe_084_R_light-b,wolfe_084_R_light-bs,79.701,-1,4,15476,529,158
A2H6B2E7W89FJ0,NA,NA,wolfe_080_R_plant-a,wolfe_080_R_plant-as,wolfe_080_R_plant-b,wolfe_080_R_plant-bs,88.935,-1,5,8614,351,237
A2H6B2E7W89FJ0,NA,NA,wolfe_050_R_book-a,wolfe_050_R_book-as,wolfe_050_R_book-b,wolfe_050_R_book-bs,98.413,-1,6,8755,561,60
A2H6B2E7W89FJ0,NA,NA,wolfe_065_R_cd-a,wolfe_065_R_cd-as,wolfe_065_R_cd-b,wolfe_065_R_cd-bs,105.748,-1,7,6866,486,191
A2H6B2E7W89FJ0,NA,NA,wolfe_004_R_electricalgrid-a,wolfe_004_R_electricalgrid-as,wolfe_004_R_electricalgrid-b,wolfe_004_R_electricalgrid-bs,115.12,-1,8,8805,412,37
A2H6B2E7W89FJ0,NA,NA,wolfe_001_R_mirror-a,wolfe_001_R_mirror-as,wolfe_001_R_mirror-b,wolfe_001_R_mirror-bs,180.902,-1,10,65191,411,134
A2H6B2E7W89FJ0,NA,NA,wolfe_039_R_ventilator-a,wolfe_039_R_ventilator-as,wolfe_039_R_ventilator-b,wolfe_039_R_ventilator-bs,180.901,-1,9,60000,411,134
A2H6B2E7W89FJ0,NA,NA,wolfe_107_R_shirts-a,wolfe_107_R_shirts-as,wolfe_107_R_shirts-b,wolfe_107_R_shirts-bs,190.092,-1,11,8664,524,245
A2H6B2E7W89FJ0,NA,NA,wolfe_119_R_painting-a,wolfe_119_R_painting-as,wolfe_119_R_painting-b,wolfe_119_R_painting-bs,199.58,-1,12,9123,410,244
A2H6B2E7W89FJ0,NA,NA,wolfe_020_R_walldeco-a,wolfe_020_R_walldeco-as,wolfe_020_R_walldeco-b,wolfe_020_R_walldeco-bs,211.04,-1,13,10997,655,112
A2H6B2E7W89FJ0,NA,NA,wolfe_041_R_fruit-a,wolfe_041_R_fruit-as,wolfe_041_R_fruit-b,wolfe_041_R_fruit-bs,218.44,-1,14,6747,622,342
A2H6B2E7W89FJ0,NA,NA,wolfe_110_R_plant-a,wolfe_110_R_plant-as,wolfe_110_R_plant-b,wolfe_110_R_plant-bs,227.571,-1,15,8746,476,355
A2H6B2E7W89FJ0,NA,NA,wolfe_010_R_candle-a,wolfe_010_R_candle-as,wolfe_010_R_candle-b,wolfe_010_R_candle-bs,240.304,-1,16,10691,596,240
A2H6B2E7W89FJ0,NA,NA,wolfe_009_R_carpet-a,wolfe_009_R_carpet-as,wolfe_009_R_carpet-b,wolfe_009_R_carpet-bs,261.822,-1,17,21142,413,457
A2H6B2E7W89FJ0,NA,NA,wolfe_015_R_ceilinglight-a,wolfe_015_R_ceilinglight-as,wolfe_015_R_ceilinglight-b,wolfe_015_R_ceilinglight-bs,273.42,-1,18,11206,600,338
A2H6B2E7W89FJ0,NA,NA,wolfe_104_R_bottle-a,wolfe_104_R_bottle-as,wolfe_104_R_bottle-b,wolfe_104_R_bottle-bs,288.921,-1,19,14995,340,279
A2H6B2E7W89FJ0,NA,NA,wolfe_090_R_lamp-a,wolfe_090_R_lamp-as,wolfe_090_R_lamp-b,wolfe_090_R_lamp-bs,304.955,-1,20,14935,435,302
A2H6B2E7W89FJ0,NA,NA,wolfe_079_R_bowl-a,wolfe_079_R_bowl-as,wolfe_079_R_bowl-b,wolfe_079_R_bowl-bs,329.547,-1,21,23604,404,106
A2H6B2E7W89FJ0,NA,NA,wolfe_125_R_sofa-a,wolfe_125_R_sofa-as,wolfe_125_R_sofa-b,wolfe_125_R_sofa-bs,340.748,-1,22,10586,567,337
A2H6B2E7W89FJ0,NA,NA,wolfe_095_R_candle-a,wolfe_095_R_candle-as,wolfe_095_R_candle-b,wolfe_095_R_candle-bs,350.436,-1,23,8561,463,285
A2H6B2E7W89FJ0,NA,NA,wolfe_028_R_vase-a,wolfe_028_R_vase-as,wolfe_028_R_vase-b,wolfe_028_R_vase-bs,357.867,-1,24,6632,482,295
A2H6B2E7W89FJ0,NA,NA,wolfe_109_R_pillow-a,wolfe_109_R_pillow-as,wolfe_109_R_pillow-b,wolfe_109_R_pillow-bs,377.274,-1,25,19003,401,287
A2H6B2E7W89FJ0,NA,NA,wolfe_048_R_art-a,wolfe_048_R_art-as,wolfe_048_R_art-b,wolfe_048_R_art-bs,386.616,-1,26,8616,627,259
A2H6B2E7W89FJ0,NA,NA,wolfe_042_R_tap-a,wolfe_042_R_tap-as,wolfe_042_R_tap-b,wolfe_042_R_tap-bs,393.992,-1,27,6760,359,225
A2H6B2E7W89FJ0,NA,NA,wolfe_026_R_rack-a,wolfe_026_R_rack-as,wolfe_026_R_rack-b,wolfe_026_R_rack-bs,405.363,-1,28,10924,600,281
A2H6B2E7W89FJ0,NA,NA,wolfe_032_R_bottle-a,wolfe_032_R_bottle-as,wolfe_032_R_bottle-b,wolfe_032_R_bottle-bs,413.059,-1,29,6871,417,150
A2H6B2E7W89FJ0,NA,NA,wolfe_091_R_airfreshener-a,wolfe_091_R_airfreshener-as,wolfe_091_R_airfreshener-b,wolfe_091_R_airfreshener-bs,424.327,-1,30,10667,495,183
A2H6B2E7W89FJ0,NA,NA,wolfe_070_R_lamp-a,wolfe_070_R_lamp-as,wolfe_070_R_lamp-b,wolfe_070_R_lamp-bs,431.534,-1,31,6646,603,130
A2H6B2E7W89FJ0,NA,NA,wolfe_074_R_book-a,wolfe_074_R_book-as,wolfe_074_R_book-b,wolfe_074_R_book-bs,440.939,-1,32,8756,412,316
A2H6B2E7W89FJ0,NA,NA,catchCow-a,catchCow-as,catchCow-b,catchCow-bs,448.543,-1,33,6929,429,214
