workerId,assignmentId,hitId,unmod_image,unmod_image_splash,mod_image,mod_image_splash,expTimer,response,trial_number,rt,x,y
A2UAGNKP1BPON,NA,NA,catchAirplane-a,catchAirplane-as,catchAirplane-b,catchAirplane-bs,56.11,-1,1,15131,304,297
A2UAGNKP1BPON,NA,NA,catchBoat-a,catchBoat-as,catchBoat-b,catchBoat-bs,65.998,-1,2,7621,373,277
A2UAGNKP1BPON,NA,NA,wolfe_089_L_poster-a,wolfe_089_L_poster-as,wolfe_089_L_poster-b,wolfe_089_L_poster-bs,79.596,-1,3,11026,294,123
A2UAGNKP1BPON,NA,NA,wolfe_074_L_book-a,wolfe_074_L_book-as,wolfe_074_L_book-b,wolfe_074_L_book-bs,103.481,-1,4,21481,239,326
A2UAGNKP1BPON,NA,NA,wolfe_004_L_electricalgrid-a,wolfe_004_L_electricalgrid-as,wolfe_004_L_electricalgrid-b,wolfe_004_L_electricalgrid-bs,123.431,-1,5,17183,248,37
A2UAGNKP1BPON,NA,NA,wolfe_008_L_bottle-a,wolfe_008_L_bottle-as,wolfe_008_L_bottle-b,wolfe_008_L_bottle-bs,137.266,-1,6,10889,85,308
A2UAGNKP1BPON,NA,NA,wolfe_019_L_lamp_sized-a,wolfe_019_L_lamp_sized-as,wolfe_019_L_lamp_sized-b,wolfe_019_L_lamp_sized-bs,173.836,-1,7,33909,182,138
A2UAGNKP1BPON,NA,NA,wolfe_007_L_soap-a,wolfe_007_L_soap-as,wolfe_007_L_soap-b,wolfe_007_L_soap-bs,195.113,-1,8,18995,162,481
A2UAGNKP1BPON,NA,NA,wolfe_041_L_fruit-a,wolfe_041_L_fruit-as,wolfe_041_L_fruit-b,wolfe_041_L_fruit-bs,212.762,-1,9,15018,48,341
A2UAGNKP1BPON,NA,NA,wolfe_114_L_bird-a,wolfe_114_L_bird-as,wolfe_114_L_bird-b,wolfe_114_L_bird-bs,225.668,-1,10,10793,289,359
A2UAGNKP1BPON,NA,NA,wolfe_018_L_plant-a,wolfe_018_L_plant-as,wolfe_018_L_plant-b,wolfe_018_L_plant-bs,244.853,-1,11,17172,89,245
A2UAGNKP1BPON,NA,NA,wolfe_047_L_handle-a,wolfe_047_L_handle-as,wolfe_047_L_handle-b,wolfe_047_L_handle-bs,263.304,-1,12,15486,120,426
A2UAGNKP1BPON,NA,NA,wolfe_002_L_napkin-a,wolfe_002_L_napkin-as,wolfe_002_L_napkin-b,wolfe_002_L_napkin-bs,273.984,-1,13,8398,258,414
A2UAGNKP1BPON,NA,NA,wolfe_003_L_ducks-a,wolfe_003_L_ducks-as,wolfe_003_L_ducks-b,wolfe_003_L_ducks-bs,319.423,-1,14,42929,273,324
A2UAGNKP1BPON,NA,NA,wolfe_079_L_bowl-a,wolfe_079_L_bowl-as,wolfe_079_L_bowl-b,wolfe_079_L_bowl-bs,366.709,-1,15,45020,259,108
A2UAGNKP1BPON,NA,NA,wolfe_044_L_light-a,wolfe_044_L_light-as,wolfe_044_L_light-b,wolfe_044_L_light-bs,377.62,-1,16,8526,294,381
A2UAGNKP1BPON,NA,NA,wolfe_118_L_shoes-a,wolfe_118_L_shoes-as,wolfe_118_L_shoes-b,wolfe_118_L_shoes-bs,394.495,-1,17,14922,274,358
A2UAGNKP1BPON,NA,NA,wolfe_043_L_clock-a,wolfe_043_L_clock-as,wolfe_043_L_clock-b,wolfe_043_L_clock-bs,417.841,-1,18,21161,210,214
A2UAGNKP1BPON,NA,NA,wolfe_027_L_soapdish-a,wolfe_027_L_soapdish-as,wolfe_027_L_soapdish-b,wolfe_027_L_soapdish-bs,443.956,-1,19,23861,35,275
A2UAGNKP1BPON,NA,NA,wolfe_059_L_car-a,wolfe_059_L_car-as,wolfe_059_L_car-b,wolfe_059_L_car-bs,504.09,-1,20,57518,239,164
A2UAGNKP1BPON,NA,NA,wolfe_058_L_clutch-a,wolfe_058_L_clutch-as,wolfe_058_L_clutch-b,wolfe_058_L_clutch-bs,504.095,-1,21,60000,239,164
A2UAGNKP1BPON,NA,NA,wolfe_080_L_plant-a,wolfe_080_L_plant-as,wolfe_080_L_plant-b,wolfe_080_L_plant-bs,517.56,-1,22,11117,310,245
A2UAGNKP1BPON,NA,NA,wolfe_068_L_faucet-a,wolfe_068_L_faucet-as,wolfe_068_L_faucet-b,wolfe_068_L_faucet-bs,528.879,-1,23,8892,287,306
A2UAGNKP1BPON,NA,NA,wolfe_015_L_ceilinglight-a,wolfe_015_L_ceilinglight-as,wolfe_015_L_ceilinglight-b,wolfe_015_L_ceilinglight-bs,567.997,-1,24,36958,90,86
A2UAGNKP1BPON,NA,NA,wolfe_042_L_tap-a,wolfe_042_L_tap-as,wolfe_042_L_tap-b,wolfe_042_L_tap-bs,593.824,-1,25,23392,322,220
A2UAGNKP1BPON,NA,NA,wolfe_077_L_footrest-a,wolfe_077_L_footrest-as,wolfe_077_L_footrest-b,wolfe_077_L_footrest-bs,613.417,-1,26,17185,342,358
A2UAGNKP1BPON,NA,NA,wolfe_081_L_football-a,wolfe_081_L_football-as,wolfe_081_L_football-b,wolfe_081_L_football-bs,649.809,-1,27,34095,304,358
A2UAGNKP1BPON,NA,NA,wolfe_029_L_glass-a,wolfe_029_L_glass-as,wolfe_029_L_glass-b,wolfe_029_L_glass-bs,662.664,-1,28,10884,179,266
A2UAGNKP1BPON,NA,NA,wolfe_110_L_plant-a,wolfe_110_L_plant-as,wolfe_110_L_plant-b,wolfe_110_L_plant-bs,673.091,-1,29,8513,194,351
A2UAGNKP1BPON,NA,NA,wolfe_121_L_car-a,wolfe_121_L_car-as,wolfe_121_L_car-b,wolfe_121_L_car-bs,683.965,-1,30,8817,42,346
A2UAGNKP1BPON,NA,NA,wolfe_071_L_art-a,wolfe_071_L_art-as,wolfe_071_L_art-b,wolfe_071_L_art-bs,696.914,-1,31,10834,162,277
A2UAGNKP1BPON,NA,NA,wolfe_048_L_art-a,wolfe_048_L_art-as,wolfe_048_L_art-b,wolfe_048_L_art-bs,718.266,-1,32,19029,41,215
A2UAGNKP1BPON,NA,NA,catchCow-a,catchCow-as,catchCow-b,catchCow-bs,729.118,-1,33,9148,395,204
