workerId,assignmentId,hitId,unmod_image,unmod_image_splash,mod_image,mod_image_splash,expTimer,response,trial_number,rt,x,y
A2V35L3RIRYYXV,NA,NA,catchAirplane-a,catchAirplane-as,catchAirplane-b,catchAirplane-bs,35.419,-1,1,8514,308,267
A2V35L3RIRYYXV,NA,NA,catchBoat-a,catchBoat-as,catchBoat-b,catchBoat-bs,45.309,-1,2,8677,421,254
A2V35L3RIRYYXV,NA,NA,wolfe_090_L_lamp-a,wolfe_090_L_lamp-as,wolfe_090_L_lamp-b,wolfe_090_L_lamp-bs,66.159,-1,3,19555,230,309
A2V35L3RIRYYXV,NA,NA,wolfe_006_L_vase-a,wolfe_006_L_vase-as,wolfe_006_L_vase-b,wolfe_006_L_vase-bs,74.259,-1,4,7436,204,254
A2V35L3RIRYYXV,NA,NA,wolfe_002_L_napkin-a,wolfe_002_L_napkin-as,wolfe_002_L_napkin-b,wolfe_002_L_napkin-bs,84.289,-1,5,9181,265,406
A2V35L3RIRYYXV,NA,NA,wolfe_120_L_art-a,wolfe_120_L_art-as,wolfe_120_L_art-b,wolfe_120_L_art-bs,96.519,-1,6,11051,221,150
A2V35L3RIRYYXV,NA,NA,wolfe_097_L_light-a,wolfe_097_L_light-as,wolfe_097_L_light-b,wolfe_097_L_light-bs,129.219,-1,7,31997,320,174
A2V35L3RIRYYXV,NA,NA,wolfe_100_L_mirror-a,wolfe_100_L_mirror-as,wolfe_100_L_mirror-b,wolfe_100_L_mirror-bs,136.909,-1,8,6859,302,282
A2V35L3RIRYYXV,NA,NA,wolfe_069_L_things-a,wolfe_069_L_things-as,wolfe_069_L_things-b,wolfe_069_L_things-bs,150.979,-1,9,13053,39,118
A2V35L3RIRYYXV,NA,NA,wolfe_124_L_vase-a,wolfe_124_L_vase-as,wolfe_124_L_vase-b,wolfe_124_L_vase-bs,158.829,-1,10,6945,180,377
A2V35L3RIRYYXV,NA,NA,wolfe_075_L_light-a,wolfe_075_L_light-as,wolfe_075_L_light-b,wolfe_075_L_light-bs,184.569,-1,11,23913,142,52
A2V35L3RIRYYXV,NA,NA,wolfe_083_L_knob-a,wolfe_083_L_knob-as,wolfe_083_L_knob-b,wolfe_083_L_knob-bs,206.719,-1,12,19914,136,236
A2V35L3RIRYYXV,NA,NA,wolfe_060_L_pillow-a,wolfe_060_L_pillow-as,wolfe_060_L_pillow-b,wolfe_060_L_pillow-bs,240.208,-1,13,32492,270,283
A2V35L3RIRYYXV,NA,NA,wolfe_024_L_towels-a,wolfe_024_L_towels-as,wolfe_024_L_towels-b,wolfe_024_L_towels-bs,252.528,-1,14,11657,275,424
A2V35L3RIRYYXV,NA,NA,wolfe_074_L_book-a,wolfe_074_L_book-as,wolfe_074_L_book-b,wolfe_074_L_book-bs,268.578,-1,15,15635,246,327
A2V35L3RIRYYXV,NA,NA,wolfe_015_L_ceilinglight-a,wolfe_015_L_ceilinglight-as,wolfe_015_L_ceilinglight-b,wolfe_015_L_ceilinglight-bs,295.578,-1,16,25613,99,89
A2V35L3RIRYYXV,NA,NA,wolfe_055_L_carpet-a,wolfe_055_L_carpet-as,wolfe_055_L_carpet-b,wolfe_055_L_carpet-bs,303.118,-1,17,6990,245,392
A2V35L3RIRYYXV,NA,NA,wolfe_088_L_clock-a,wolfe_088_L_clock-as,wolfe_088_L_clock-b,wolfe_088_L_clock-bs,323.398,-1,18,19701,255,77
A2V35L3RIRYYXV,NA,NA,wolfe_039_L_ventilator-a,wolfe_039_L_ventilator-as,wolfe_039_L_ventilator-b,wolfe_039_L_ventilator-bs,330.977,-1,19,7027,290,34
A2V35L3RIRYYXV,NA,NA,wolfe_043_L_clock-a,wolfe_043_L_clock-as,wolfe_043_L_clock-b,wolfe_043_L_clock-bs,339.947,-1,20,8576,214,215
A2V35L3RIRYYXV,NA,NA,wolfe_058_L_clutch-a,wolfe_058_L_clutch-as,wolfe_058_L_clutch-b,wolfe_058_L_clutch-bs,349.038,-1,21,8665,190,377
A2V35L3RIRYYXV,NA,NA,wolfe_126_L_candles-a,wolfe_126_L_candles-as,wolfe_126_L_candles-b,wolfe_126_L_candles-bs,375.478,-1,22,25989,18,279
A2V35L3RIRYYXV,NA,NA,wolfe_054_L_firewood-a,wolfe_054_L_firewood-as,wolfe_054_L_firewood-b,wolfe_054_L_firewood-bs,399.977,-1,23,23956,32,325
A2V35L3RIRYYXV,NA,NA,wolfe_114_L_bird-a,wolfe_114_L_bird-as,wolfe_114_L_bird-b,wolfe_114_L_bird-bs,410.047,-1,24,9206,290,359
A2V35L3RIRYYXV,NA,NA,wolfe_087_L_towelhandle-a,wolfe_087_L_towelhandle-as,wolfe_087_L_towelhandle-b,wolfe_087_L_towelhandle-bs,419.017,-1,25,8545,54,366
A2V35L3RIRYYXV,NA,NA,wolfe_009_L_carpet-a,wolfe_009_L_carpet-as,wolfe_009_L_carpet-b,wolfe_009_L_carpet-bs,430.137,-1,26,10748,266,416
A2V35L3RIRYYXV,NA,NA,wolfe_066_L_vase-a,wolfe_066_L_vase-as,wolfe_066_L_vase-b,wolfe_066_L_vase-bs,442.877,-1,27,11916,72,179
A2V35L3RIRYYXV,NA,NA,wolfe_107_L_shirts-a,wolfe_107_L_shirts-as,wolfe_107_L_shirts-b,wolfe_107_L_shirts-bs,452.107,-1,28,8702,139,245
A2V35L3RIRYYXV,NA,NA,wolfe_099_L_sconce-a,wolfe_099_L_sconce-as,wolfe_099_L_sconce-b,wolfe_099_L_sconce-bs,461.587,-1,29,8975,187,184
A2V35L3RIRYYXV,NA,NA,wolfe_036_L_bowl-a,wolfe_036_L_bowl-as,wolfe_036_L_bowl-b,wolfe_036_L_bowl-bs,469.387,-1,30,7166,304,207
A2V35L3RIRYYXV,NA,NA,wolfe_105_L_hat-a,wolfe_105_L_hat-as,wolfe_105_L_hat-b,wolfe_105_L_hat-bs,481.787,-1,31,11213,114,424
A2V35L3RIRYYXV,NA,NA,wolfe_029_L_glass-a,wolfe_029_L_glass-as,wolfe_029_L_glass-b,wolfe_029_L_glass-bs,497.817,-1,32,15241,182,265
A2V35L3RIRYYXV,NA,NA,catchCow-a,catchCow-as,catchCow-b,catchCow-bs,506.357,-1,33,7978,408,268
