workerId,assignmentId,hitId,unmod_image,unmod_image_splash,mod_image,mod_image_splash,expTimer,response,trial_number,rt,x,y
A34LV51D4PO2R,NA,NA,catchAirplane-a,catchAirplane-as,catchAirplane-b,catchAirplane-bs,38.908,-1,1,10991,276,169
A34LV51D4PO2R,NA,NA,catchBoat-a,catchBoat-as,catchBoat-b,catchBoat-bs,55.846,-1,2,15001,436,255
A34LV51D4PO2R,NA,NA,wolfe_032_R_bottle-a,wolfe_032_R_bottle-as,wolfe_032_R_bottle-b,wolfe_032_R_bottle-bs,68.415,-1,3,11449,407,135
A34LV51D4PO2R,NA,NA,wolfe_120_R_art-a,wolfe_120_R_art-as,wolfe_120_R_art-b,wolfe_120_R_art-bs,82.27,-1,4,10842,440,149
A34LV51D4PO2R,NA,NA,wolfe_047_R_handle-a,wolfe_047_R_handle-as,wolfe_047_R_handle-b,wolfe_047_R_handle-bs,97.529,-1,5,13938,545,425
A34LV51D4PO2R,NA,NA,wolfe_002_R_napkin-a,wolfe_002_R_napkin-as,wolfe_002_R_napkin-b,wolfe_002_R_napkin-bs,110.961,-1,6,8188,398,399
A34LV51D4PO2R,NA,NA,wolfe_036_R_bowl-a,wolfe_036_R_bowl-as,wolfe_036_R_bowl-b,wolfe_036_R_bowl-bs,120.986,-1,7,7993,352,197
A34LV51D4PO2R,NA,NA,wolfe_116_R_basket-a,wolfe_116_R_basket-as,wolfe_116_R_basket-b,wolfe_116_R_basket-bs,132.756,-1,9,10563,572,319
A34LV51D4PO2R,NA,NA,wolfe_034_R_handle-a,wolfe_034_R_handle-as,wolfe_034_R_handle-b,wolfe_034_R_handle-bs,132.747,-1,8,8243,572,319
A34LV51D4PO2R,NA,NA,wolfe_067_R_painting-a,wolfe_067_R_painting-as,wolfe_067_R_painting-b,wolfe_067_R_painting-bs,147.454,-1,10,8869,631,326
A34LV51D4PO2R,NA,NA,wolfe_070_R_lamp-a,wolfe_070_R_lamp-as,wolfe_070_R_lamp-b,wolfe_070_R_lamp-bs,147.477,-1,12,12356,631,326
A34LV51D4PO2R,NA,NA,wolfe_037_R_towel-a,wolfe_037_R_towel-as,wolfe_037_R_towel-b,wolfe_037_R_towel-bs,147.463,-1,11,10963,631,326
A34LV51D4PO2R,NA,NA,wolfe_021_R_keyboard-a,wolfe_021_R_keyboard-as,wolfe_021_R_keyboard-b,wolfe_021_R_keyboard-bs,158.754,-1,13,9943,537,351
A34LV51D4PO2R,NA,NA,wolfe_081_R_football-a,wolfe_081_R_football-as,wolfe_081_R_football-b,wolfe_081_R_football-bs,170.102,-1,14,9895,359,349
A34LV51D4PO2R,NA,NA,wolfe_124_R_vase-a,wolfe_124_R_vase-as,wolfe_124_R_vase-b,wolfe_124_R_vase-bs,180.259,-1,15,7564,485,367
A34LV51D4PO2R,NA,NA,wolfe_108_R_boa-a,wolfe_108_R_boa-as,wolfe_108_R_boa-b,wolfe_108_R_boa-bs,192.803,-1,16,8558,349,213
A34LV51D4PO2R,NA,NA,wolfe_088_R_clock-a,wolfe_088_R_clock-as,wolfe_088_R_clock-b,wolfe_088_R_clock-bs,206.435,-1,17,10217,409,73
A34LV51D4PO2R,NA,NA,wolfe_016_R_art-a,wolfe_016_R_art-as,wolfe_016_R_art-b,wolfe_016_R_art-bs,216.783,-1,18,8231,613,198
A34LV51D4PO2R,NA,NA,wolfe_059_R_car-a,wolfe_059_R_car-as,wolfe_059_R_car-b,wolfe_059_R_car-bs,231.04,-1,19,7563,445,159
A34LV51D4PO2R,NA,NA,wolfe_102_R_shoppingbag-a,wolfe_102_R_shoppingbag-as,wolfe_102_R_shoppingbag-b,wolfe_102_R_shoppingbag-bs,231.051,-1,20,12846,445,159
A34LV51D4PO2R,NA,NA,wolfe_020_R_walldeco-a,wolfe_020_R_walldeco-as,wolfe_020_R_walldeco-b,wolfe_020_R_walldeco-bs,243.461,-1,21,10955,653,117
A34LV51D4PO2R,NA,NA,wolfe_009_R_carpet-a,wolfe_009_R_carpet-as,wolfe_009_R_carpet-b,wolfe_009_R_carpet-bs,253.246,-1,22,7154,419,429
A34LV51D4PO2R,NA,NA,wolfe_039_R_ventilator-a,wolfe_039_R_ventilator-as,wolfe_039_R_ventilator-b,wolfe_039_R_ventilator-bs,262.225,-1,23,6876,381,41
A34LV51D4PO2R,NA,NA,wolfe_025_R_vase-a,wolfe_025_R_vase-as,wolfe_025_R_vase-b,wolfe_025_R_vase-bs,274.771,-1,24,8812,624,329
A34LV51D4PO2R,NA,NA,wolfe_077_R_footrest-a,wolfe_077_R_footrest-as,wolfe_077_R_footrest-b,wolfe_077_R_footrest-bs,283.977,-1,25,6718,346,356
A34LV51D4PO2R,NA,NA,wolfe_063_R_laptop-a,wolfe_063_R_laptop-as,wolfe_063_R_laptop-b,wolfe_063_R_laptop-bs,293.424,-1,26,7172,612,279
A34LV51D4PO2R,NA,NA,wolfe_112_R_basket-a,wolfe_112_R_basket-as,wolfe_112_R_basket-b,wolfe_112_R_basket-bs,303.988,-1,27,8816,595,396
A34LV51D4PO2R,NA,NA,wolfe_058_R_clutch-a,wolfe_058_R_clutch-as,wolfe_058_R_clutch-b,wolfe_058_R_clutch-bs,313.396,-1,28,6707,472,374
A34LV51D4PO2R,NA,NA,wolfe_109_R_pillow-a,wolfe_109_R_pillow-as,wolfe_109_R_pillow-b,wolfe_109_R_pillow-bs,323.607,-1,29,8828,404,288
A34LV51D4PO2R,NA,NA,wolfe_027_R_soapdish-a,wolfe_027_R_soapdish-as,wolfe_027_R_soapdish-b,wolfe_027_R_soapdish-bs,334.291,-1,30,7514,624,272
A34LV51D4PO2R,NA,NA,wolfe_042_R_tap-a,wolfe_042_R_tap-as,wolfe_042_R_tap-b,wolfe_042_R_tap-bs,343.769,-1,31,7323,351,215
A34LV51D4PO2R,NA,NA,wolfe_083_R_knob-a,wolfe_083_R_knob-as,wolfe_083_R_knob-b,wolfe_083_R_knob-bs,366.11,-1,32,19531,587,379
A34LV51D4PO2R,NA,NA,catchCow-a,catchCow-as,catchCow-b,catchCow-bs,377.969,-1,33,9569,416,172
