workerId,assignmentId,hitId,unmod_image,unmod_image_splash,mod_image,mod_image_splash,expTimer,response,trial_number,rt,x,y
A374UTBB2JKAH0,NA,NA,catchAirplane-a,catchAirplane-as,catchAirplane-b,catchAirplane-bs,31.875,-1,1,6791,308,201
A374UTBB2JKAH0,NA,NA,catchBoat-a,catchBoat-as,catchBoat-b,catchBoat-bs,43.052,-1,2,10051,411,252
A374UTBB2JKAH0,NA,NA,wolfe_115_L_pot-a,wolfe_115_L_pot-as,wolfe_115_L_pot-b,wolfe_115_L_pot-bs,51.084,-1,3,6887,525,307
A374UTBB2JKAH0,NA,NA,wolfe_017_L_wood-a,wolfe_017_L_wood-as,wolfe_017_L_wood-b,wolfe_017_L_wood-bs,94.339,-1,4,41938,343,291
A374UTBB2JKAH0,NA,NA,wolfe_103_L_hook-a,wolfe_103_L_hook-as,wolfe_103_L_hook-b,wolfe_103_L_hook-bs,106.415,-1,5,11143,22,103
A374UTBB2JKAH0,NA,NA,wolfe_007_L_soap-a,wolfe_007_L_soap-as,wolfe_007_L_soap-b,wolfe_007_L_soap-bs,116.174,-1,6,9153,165,477
A374UTBB2JKAH0,NA,NA,wolfe_123_L_pot-a,wolfe_123_L_pot-as,wolfe_123_L_pot-b,wolfe_123_L_pot-bs,126.384,-1,7,9612,18,371
A374UTBB2JKAH0,NA,NA,wolfe_031_L_log-a,wolfe_031_L_log-as,wolfe_031_L_log-b,wolfe_031_L_log-bs,174.549,-1,8,46813,171,27
A374UTBB2JKAH0,NA,NA,wolfe_014_L_lamp-a,wolfe_014_L_lamp-as,wolfe_014_L_lamp-b,wolfe_014_L_lamp-bs,183.418,-1,9,7735,162,112
A374UTBB2JKAH0,NA,NA,wolfe_082_L_bowl-a,wolfe_082_L_bowl-as,wolfe_082_L_bowl-b,wolfe_082_L_bowl-bs,196.999,-1,10,11178,98,419
A374UTBB2JKAH0,NA,NA,wolfe_041_L_fruit-a,wolfe_041_L_fruit-as,wolfe_041_L_fruit-b,wolfe_041_L_fruit-bs,207.036,-1,11,8934,70,343
A374UTBB2JKAH0,NA,NA,wolfe_126_L_candles-a,wolfe_126_L_candles-as,wolfe_126_L_candles-b,wolfe_126_L_candles-bs,214.669,-1,12,7159,24,275
A374UTBB2JKAH0,NA,NA,wolfe_037_L_towel-a,wolfe_037_L_towel-as,wolfe_037_L_towel-b,wolfe_037_L_towel-bs,226.467,-1,13,11098,330,225
A374UTBB2JKAH0,NA,NA,wolfe_072_L_handle-a,wolfe_072_L_handle-as,wolfe_072_L_handle-b,wolfe_072_L_handle-bs,235.853,-1,14,8893,96,443
A374UTBB2JKAH0,NA,NA,wolfe_099_L_sconce-a,wolfe_099_L_sconce-as,wolfe_099_L_sconce-b,wolfe_099_L_sconce-bs,245.941,-1,15,8747,183,179
A374UTBB2JKAH0,NA,NA,wolfe_065_L_cd-a,wolfe_065_L_cd-as,wolfe_065_L_cd-b,wolfe_065_L_cd-bs,255.327,-1,16,8740,182,189
A374UTBB2JKAH0,NA,NA,wolfe_074_L_book-a,wolfe_074_L_book-as,wolfe_074_L_book-b,wolfe_074_L_book-bs,262.505,-1,17,6760,253,324
A374UTBB2JKAH0,NA,NA,wolfe_105_L_hat-a,wolfe_105_L_hat-as,wolfe_105_L_hat-b,wolfe_105_L_hat-bs,275.712,-1,18,12762,111,427
A374UTBB2JKAH0,NA,NA,wolfe_092_L_candles-a,wolfe_092_L_candles-as,wolfe_092_L_candles-b,wolfe_092_L_candles-bs,285.069,-1,19,8764,14,451
A374UTBB2JKAH0,NA,NA,wolfe_085_L_switchboard-a,wolfe_085_L_switchboard-as,wolfe_085_L_switchboard-b,wolfe_085_L_switchboard-bs,309.464,-1,20,23538,190,298
A374UTBB2JKAH0,NA,NA,wolfe_083_L_knob-a,wolfe_083_L_knob-as,wolfe_083_L_knob-b,wolfe_083_L_knob-bs,319.984,-1,21,10058,79,377
A374UTBB2JKAH0,NA,NA,wolfe_011_L_parfum-a,wolfe_011_L_parfum-as,wolfe_011_L_parfum-b,wolfe_011_L_parfum-bs,329.049,-1,22,8660,273,331
A374UTBB2JKAH0,NA,NA,wolfe_018_L_plant-a,wolfe_018_L_plant-as,wolfe_018_L_plant-b,wolfe_018_L_plant-bs,338.589,-1,23,9196,84,236
A374UTBB2JKAH0,NA,NA,wolfe_090_L_lamp-a,wolfe_090_L_lamp-as,wolfe_090_L_lamp-b,wolfe_090_L_lamp-bs,347.887,-1,24,8877,230,294
A374UTBB2JKAH0,NA,NA,wolfe_056_L_comforter-a,wolfe_056_L_comforter-as,wolfe_056_L_comforter-b,wolfe_056_L_comforter-bs,355.465,-1,25,6962,137,342
A374UTBB2JKAH0,NA,NA,wolfe_076_L_hook-a,wolfe_076_L_hook-as,wolfe_076_L_hook-b,wolfe_076_L_hook-bs,363.135,-1,26,7177,38,193
A374UTBB2JKAH0,NA,NA,wolfe_061_L_glass-a,wolfe_061_L_glass-as,wolfe_061_L_glass-b,wolfe_061_L_glass-bs,373.18,-1,27,9560,243,207
A374UTBB2JKAH0,NA,NA,wolfe_084_L_light-a,wolfe_084_L_light-as,wolfe_084_L_light-b,wolfe_084_L_light-bs,381.016,-1,28,7158,142,151
A374UTBB2JKAH0,NA,NA,wolfe_035_L_fruit-a,wolfe_035_L_fruit-as,wolfe_035_L_fruit-b,wolfe_035_L_fruit-bs,388.648,-1,29,6926,133,284
A374UTBB2JKAH0,NA,NA,wolfe_118_L_shoes-a,wolfe_118_L_shoes-as,wolfe_118_L_shoes-b,wolfe_118_L_shoes-bs,396.183,-1,30,6787,271,360
A374UTBB2JKAH0,NA,NA,wolfe_066_L_vase-a,wolfe_066_L_vase-as,wolfe_066_L_vase-b,wolfe_066_L_vase-bs,403.721,-1,31,6904,69,174
A374UTBB2JKAH0,NA,NA,wolfe_022_L_lamp-a,wolfe_022_L_lamp-as,wolfe_022_L_lamp-b,wolfe_022_L_lamp-bs,411.029,-1,32,6737,233,55
A374UTBB2JKAH0,NA,NA,catchCow-a,catchCow-as,catchCow-b,catchCow-bs,418.51,-1,33,7109,392,202
