workerId,assignmentId,hitId,unmod_image,unmod_image_splash,mod_image,mod_image_splash,expTimer,response,trial_number,rt,x,y
A3VZ5K4RRT6NN8,NA,NA,catchAirplane-a,catchAirplane-as,catchAirplane-b,catchAirplane-bs,46.03,-1,1,7146,266,245
A3VZ5K4RRT6NN8,NA,NA,catchBoat-a,catchBoat-as,catchBoat-b,catchBoat-bs,53.561,-1,2,6784,386,260
A3VZ5K4RRT6NN8,NA,NA,wolfe_050_L_book-a,wolfe_050_L_book-as,wolfe_050_L_book-b,wolfe_050_L_book-bs,63.462,-1,3,6503,470,222
A3VZ5K4RRT6NN8,NA,NA,wolfe_010_L_candle-a,wolfe_010_L_candle-as,wolfe_010_L_candle-b,wolfe_010_L_candle-bs,63.467,-1,4,8042,470,222
A3VZ5K4RRT6NN8,NA,NA,wolfe_034_L_handle-a,wolfe_034_L_handle-as,wolfe_034_L_handle-b,wolfe_034_L_handle-bs,112.868,-1,5,48622,563,207
A3VZ5K4RRT6NN8,NA,NA,wolfe_110_L_plant-a,wolfe_110_L_plant-as,wolfe_110_L_plant-b,wolfe_110_L_plant-bs,122.26,-1,6,7938,189,401
A3VZ5K4RRT6NN8,NA,NA,wolfe_098_L_slippers-a,wolfe_098_L_slippers-as,wolfe_098_L_slippers-b,wolfe_098_L_slippers-bs,132.93,-1,7,10092,261,373
A3VZ5K4RRT6NN8,NA,NA,wolfe_112_L_basket-a,wolfe_112_L_basket-as,wolfe_112_L_basket-b,wolfe_112_L_basket-bs,140.658,-1,8,7344,62,418
A3VZ5K4RRT6NN8,NA,NA,wolfe_075_L_light-a,wolfe_075_L_light-as,wolfe_075_L_light-b,wolfe_075_L_light-bs,148.44,-1,9,7260,140,53
A3VZ5K4RRT6NN8,NA,NA,wolfe_111_L_pot-a,wolfe_111_L_pot-as,wolfe_111_L_pot-b,wolfe_111_L_pot-bs,159.92,-1,10,11033,195,382
A3VZ5K4RRT6NN8,NA,NA,wolfe_011_L_parfum-a,wolfe_011_L_parfum-as,wolfe_011_L_parfum-b,wolfe_011_L_parfum-bs,194.812,-1,11,34282,263,345
A3VZ5K4RRT6NN8,NA,NA,wolfe_031_L_log-a,wolfe_031_L_log-as,wolfe_031_L_log-b,wolfe_031_L_log-bs,231.724,-1,12,36576,232,366
A3VZ5K4RRT6NN8,NA,NA,wolfe_109_L_pillow-a,wolfe_109_L_pillow-as,wolfe_109_L_pillow-b,wolfe_109_L_pillow-bs,239.318,-1,13,7208,268,294
A3VZ5K4RRT6NN8,NA,NA,wolfe_081_L_football-a,wolfe_081_L_football-as,wolfe_081_L_football-b,wolfe_081_L_football-bs,261.194,-1,14,21449,305,357
A3VZ5K4RRT6NN8,NA,NA,wolfe_005_L_mirror-a,wolfe_005_L_mirror-as,wolfe_005_L_mirror-b,wolfe_005_L_mirror-bs,268.686,-1,15,7079,152,220
A3VZ5K4RRT6NN8,NA,NA,wolfe_037_L_towel-a,wolfe_037_L_towel-as,wolfe_037_L_towel-b,wolfe_037_L_towel-bs,276.243,-1,16,6942,325,227
A3VZ5K4RRT6NN8,NA,NA,wolfe_004_L_electricalgrid-a,wolfe_004_L_electricalgrid-as,wolfe_004_L_electricalgrid-b,wolfe_004_L_electricalgrid-bs,311.128,-1,17,34281,250,38
A3VZ5K4RRT6NN8,NA,NA,wolfe_045_L_musicdock-a,wolfe_045_L_musicdock-as,wolfe_045_L_musicdock-b,wolfe_045_L_musicdock-bs,322.495,-1,18,11003,79,263
A3VZ5K4RRT6NN8,NA,NA,wolfe_084_L_light-a,wolfe_084_L_light-as,wolfe_084_L_light-b,wolfe_084_L_light-bs,330.099,-1,19,6950,135,154
A3VZ5K4RRT6NN8,NA,NA,wolfe_016_L_art-a,wolfe_016_L_art-as,wolfe_016_L_art-b,wolfe_016_L_art-bs,337.53,-1,20,6988,50,185
A3VZ5K4RRT6NN8,NA,NA,wolfe_088_L_clock-a,wolfe_088_L_clock-as,wolfe_088_L_clock-b,wolfe_088_L_clock-bs,370.291,-1,21,31911,254,72
A3VZ5K4RRT6NN8,NA,NA,wolfe_056_L_comforter-a,wolfe_056_L_comforter-as,wolfe_056_L_comforter-b,wolfe_056_L_comforter-bs,377.754,-1,22,6930,145,342
A3VZ5K4RRT6NN8,NA,NA,wolfe_126_L_candles-a,wolfe_126_L_candles-as,wolfe_126_L_candles-b,wolfe_126_L_candles-bs,385.066,-1,23,6744,24,264
A3VZ5K4RRT6NN8,NA,NA,wolfe_127_L_light-a,wolfe_127_L_light-as,wolfe_127_L_light-b,wolfe_127_L_light-bs,392.357,-1,24,6813,204,193
A3VZ5K4RRT6NN8,NA,NA,wolfe_058_L_clutch-a,wolfe_058_L_clutch-as,wolfe_058_L_clutch-b,wolfe_058_L_clutch-bs,400.178,-1,25,7115,202,376
A3VZ5K4RRT6NN8,NA,NA,wolfe_095_L_candle-a,wolfe_095_L_candle-as,wolfe_095_L_candle-b,wolfe_095_L_candle-bs,409.828,-1,26,9070,202,285
A3VZ5K4RRT6NN8,NA,NA,wolfe_083_L_knob-a,wolfe_083_L_knob-as,wolfe_083_L_knob-b,wolfe_083_L_knob-bs,419.401,-1,27,8908,80,375
A3VZ5K4RRT6NN8,NA,NA,wolfe_018_L_plant-a,wolfe_018_L_plant-as,wolfe_018_L_plant-b,wolfe_018_L_plant-bs,428.903,-1,28,9080,89,256
A3VZ5K4RRT6NN8,NA,NA,wolfe_120_L_art-a,wolfe_120_L_art-as,wolfe_120_L_art-b,wolfe_120_L_art-bs,438.421,-1,29,8910,215,151
A3VZ5K4RRT6NN8,NA,NA,wolfe_074_L_book-a,wolfe_074_L_book-as,wolfe_074_L_book-b,wolfe_074_L_book-bs,447.445,-1,30,8647,259,331
A3VZ5K4RRT6NN8,NA,NA,wolfe_061_L_glass-a,wolfe_061_L_glass-as,wolfe_061_L_glass-b,wolfe_061_L_glass-bs,454.901,-1,31,6905,251,214
A3VZ5K4RRT6NN8,NA,NA,wolfe_085_L_switchboard-a,wolfe_085_L_switchboard-as,wolfe_085_L_switchboard-b,wolfe_085_L_switchboard-bs,462.465,-1,32,7195,184,316
A3VZ5K4RRT6NN8,NA,NA,catchCow-a,catchCow-as,catchCow-b,catchCow-bs,470.213,-1,33,7373,357,249
