workerId,assignmentId,hitId,unmod_image,unmod_image_splash,mod_image,mod_image_splash,expTimer,response,trial_number,rt,x,y
A9AGF1C9DQXLM,NA,NA,catchAirplane-a,catchAirplane-as,catchAirplane-b,catchAirplane-bs,318.733,-1,1,11062,250,138
A9AGF1C9DQXLM,NA,NA,catchBoat-a,catchBoat-as,catchBoat-b,catchBoat-bs,326.272,-1,2,7021,438,234
A9AGF1C9DQXLM,NA,NA,wolfe_071_R_art-a,wolfe_071_R_art-as,wolfe_071_R_art-b,wolfe_071_R_art-bs,333.993,-1,3,6880,463,113
A9AGF1C9DQXLM,NA,NA,wolfe_128_R_pot-a,wolfe_128_R_pot-as,wolfe_128_R_pot-b,wolfe_128_R_pot-bs,341.403,-1,4,6908,389,260
A9AGF1C9DQXLM,NA,NA,wolfe_079_R_bowl-a,wolfe_079_R_bowl-as,wolfe_079_R_bowl-b,wolfe_079_R_bowl-bs,347.953,-1,5,6096,344,153
A9AGF1C9DQXLM,NA,NA,wolfe_072_R_handle-a,wolfe_072_R_handle-as,wolfe_072_R_handle-b,wolfe_072_R_handle-bs,359.783,-1,6,10847,380,183
A9AGF1C9DQXLM,NA,NA,wolfe_100_R_mirror-a,wolfe_100_R_mirror-as,wolfe_100_R_mirror-b,wolfe_100_R_mirror-bs,367.284,-1,7,6858,335,298
A9AGF1C9DQXLM,NA,NA,wolfe_038_R_art-a,wolfe_038_R_art-as,wolfe_038_R_art-b,wolfe_038_R_art-bs,375.054,-1,8,6982,359,182
A9AGF1C9DQXLM,NA,NA,wolfe_104_R_bottle-a,wolfe_104_R_bottle-as,wolfe_104_R_bottle-b,wolfe_104_R_bottle-bs,382.564,-1,9,6928,94,160
A9AGF1C9DQXLM,NA,NA,wolfe_028_R_vase-a,wolfe_028_R_vase-as,wolfe_028_R_vase-b,wolfe_028_R_vase-bs,392.704,-1,10,8950,397,164
A9AGF1C9DQXLM,NA,NA,wolfe_031_R_log-a,wolfe_031_R_log-as,wolfe_031_R_log-b,wolfe_031_R_log-bs,400.354,-1,11,6888,477,40
A9AGF1C9DQXLM,NA,NA,wolfe_081_R_football-a,wolfe_081_R_football-as,wolfe_081_R_football-b,wolfe_081_R_football-bs,412.099,-1,12,11008,116,164
A9AGF1C9DQXLM,NA,NA,wolfe_018_R_plant-a,wolfe_018_R_plant-as,wolfe_018_R_plant-b,wolfe_018_R_plant-bs,423.534,-1,13,10934,227,264
A9AGF1C9DQXLM,NA,NA,wolfe_019_R_lamp_sized-a,wolfe_019_R_lamp_sized-as,wolfe_019_R_lamp_sized-b,wolfe_019_R_lamp_sized-bs,431.124,-1,14,6972,470,143
A9AGF1C9DQXLM,NA,NA,wolfe_105_R_hat-a,wolfe_105_R_hat-as,wolfe_105_R_hat-b,wolfe_105_R_hat-bs,438.834,-1,15,7023,319,164
A9AGF1C9DQXLM,NA,NA,wolfe_041_R_fruit-a,wolfe_041_R_fruit-as,wolfe_041_R_fruit-b,wolfe_041_R_fruit-bs,448.314,-1,16,8975,305,290
A9AGF1C9DQXLM,NA,NA,wolfe_052_R_speaker-a,wolfe_052_R_speaker-as,wolfe_052_R_speaker-b,wolfe_052_R_speaker-bs,456.064,-1,17,7058,506,333
A9AGF1C9DQXLM,NA,NA,wolfe_008_R_bottle-a,wolfe_008_R_bottle-as,wolfe_008_R_bottle-b,wolfe_008_R_bottle-bs,465.104,-1,18,8409,270,331
A9AGF1C9DQXLM,NA,NA,wolfe_020_R_walldeco-a,wolfe_020_R_walldeco-as,wolfe_020_R_walldeco-b,wolfe_020_R_walldeco-bs,472.524,-1,19,6887,364,224
A9AGF1C9DQXLM,NA,NA,wolfe_022_R_lamp-a,wolfe_022_R_lamp-as,wolfe_022_R_lamp-b,wolfe_022_R_lamp-bs,482.164,-1,20,9119,410,64
A9AGF1C9DQXLM,NA,NA,wolfe_076_R_hook-a,wolfe_076_R_hook-as,wolfe_076_R_hook-b,wolfe_076_R_hook-bs,492.659,-1,21,9854,175,372
A9AGF1C9DQXLM,NA,NA,wolfe_010_R_candle-a,wolfe_010_R_candle-as,wolfe_010_R_candle-b,wolfe_010_R_candle-bs,500.254,-1,22,6989,123,308
A9AGF1C9DQXLM,NA,NA,wolfe_036_R_bowl-a,wolfe_036_R_bowl-as,wolfe_036_R_bowl-b,wolfe_036_R_bowl-bs,507.834,-1,23,6918,348,202
A9AGF1C9DQXLM,NA,NA,wolfe_103_R_hook-a,wolfe_103_R_hook-as,wolfe_103_R_hook-b,wolfe_103_R_hook-bs,519.453,-1,24,11097,286,239
A9AGF1C9DQXLM,NA,NA,wolfe_005_R_mirror-a,wolfe_005_R_mirror-as,wolfe_005_R_mirror-b,wolfe_005_R_mirror-bs,528.714,-1,25,8628,408,322
A9AGF1C9DQXLM,NA,NA,wolfe_039_R_ventilator-a,wolfe_039_R_ventilator-as,wolfe_039_R_ventilator-b,wolfe_039_R_ventilator-bs,536.104,-1,26,6967,384,379
A9AGF1C9DQXLM,NA,NA,wolfe_007_R_soap-a,wolfe_007_R_soap-as,wolfe_007_R_soap-b,wolfe_007_R_soap-bs,546.009,-1,27,9079,494,473
A9AGF1C9DQXLM,NA,NA,wolfe_046_R_remote-a,wolfe_046_R_remote-as,wolfe_046_R_remote-b,wolfe_046_R_remote-bs,553.564,-1,28,7067,365,324
A9AGF1C9DQXLM,NA,NA,wolfe_014_R_lamp-a,wolfe_014_R_lamp-as,wolfe_014_R_lamp-b,wolfe_014_R_lamp-bs,560.914,-1,29,6839,488,118
A9AGF1C9DQXLM,NA,NA,wolfe_024_R_towels-a,wolfe_024_R_towels-as,wolfe_024_R_towels-b,wolfe_024_R_towels-bs,568.644,-1,30,7189,368,313
A9AGF1C9DQXLM,NA,NA,wolfe_013_R_lamp-a,wolfe_013_R_lamp-as,wolfe_013_R_lamp-b,wolfe_013_R_lamp-bs,578.484,-1,31,8989,520,170
A9AGF1C9DQXLM,NA,NA,wolfe_012_R_tubaccesory-a,wolfe_012_R_tubaccesory-as,wolfe_012_R_tubaccesory-b,wolfe_012_R_tubaccesory-bs,584.009,-1,32,4674,378,185
A9AGF1C9DQXLM,NA,NA,catchCow-a,catchCow-as,catchCow-b,catchCow-bs,591.444,-1,33,6923,381,202
