workerId,assignmentId,hitId,unmod_image,unmod_image_splash,mod_image,mod_image_splash,expTimer,response,trial_number,rt,x,y
ANSS4CFQGM8WM,NA,NA,catchAirplane-a,catchAirplane-as,catchAirplane-b,catchAirplane-bs,60.144,-1,1,8122,362,273
ANSS4CFQGM8WM,NA,NA,catchBoat-a,catchBoat-as,catchBoat-b,catchBoat-bs,68.747,-1,2,7127,448,263
ANSS4CFQGM8WM,NA,NA,wolfe_063_R_laptop-a,wolfe_063_R_laptop-as,wolfe_063_R_laptop-b,wolfe_063_R_laptop-bs,88.391,-1,3,17758,618,281
ANSS4CFQGM8WM,NA,NA,wolfe_011_R_parfum-a,wolfe_011_R_parfum-as,wolfe_011_R_parfum-b,wolfe_011_R_parfum-bs,107.415,-1,4,17067,392,340
ANSS4CFQGM8WM,NA,NA,wolfe_085_R_switchboard-a,wolfe_085_R_switchboard-as,wolfe_085_R_switchboard-b,wolfe_085_R_switchboard-bs,172.9,-1,5,60000,466,302
ANSS4CFQGM8WM,NA,NA,wolfe_028_R_vase-a,wolfe_028_R_vase-as,wolfe_028_R_vase-b,wolfe_028_R_vase-bs,196.503,-1,6,21863,482,299
ANSS4CFQGM8WM,NA,NA,wolfe_019_R_lamp_sized-a,wolfe_019_R_lamp_sized-as,wolfe_019_R_lamp_sized-b,wolfe_019_R_lamp_sized-bs,234.7,-1,7,34471,473,139
ANSS4CFQGM8WM,NA,NA,wolfe_022_R_lamp-a,wolfe_022_R_lamp-as,wolfe_022_R_lamp-b,wolfe_022_R_lamp-bs,247.376,-1,8,11247,444,49
ANSS4CFQGM8WM,NA,NA,wolfe_121_R_car-a,wolfe_121_R_car-as,wolfe_121_R_car-b,wolfe_121_R_car-bs,260.395,-1,9,11092,626,348
ANSS4CFQGM8WM,NA,NA,wolfe_113_R_plant-a,wolfe_113_R_plant-as,wolfe_113_R_plant-b,wolfe_113_R_plant-bs,301.508,-1,10,39056,355,258
ANSS4CFQGM8WM,NA,NA,wolfe_057_R_bin-a,wolfe_057_R_bin-as,wolfe_057_R_bin-b,wolfe_057_R_bin-bs,333.499,-1,11,30170,400,342
ANSS4CFQGM8WM,NA,NA,wolfe_012_R_tubaccesory-a,wolfe_012_R_tubaccesory-as,wolfe_012_R_tubaccesory-b,wolfe_012_R_tubaccesory-bs,365.972,-1,12,30440,445,351
ANSS4CFQGM8WM,NA,NA,wolfe_051_R_owl-a,wolfe_051_R_owl-as,wolfe_051_R_owl-b,wolfe_051_R_owl-bs,393.256,-1,13,25587,406,299
ANSS4CFQGM8WM,NA,NA,wolfe_009_R_carpet-a,wolfe_009_R_carpet-as,wolfe_009_R_carpet-b,wolfe_009_R_carpet-bs,407.308,-1,14,12766,421,458
ANSS4CFQGM8WM,NA,NA,wolfe_013_R_lamp-a,wolfe_013_R_lamp-as,wolfe_013_R_lamp-b,wolfe_013_R_lamp-bs,418.128,-1,15,8950,515,173
ANSS4CFQGM8WM,NA,NA,wolfe_024_R_towels-a,wolfe_024_R_towels-as,wolfe_024_R_towels-b,wolfe_024_R_towels-bs,456.633,-1,16,36710,372,430
ANSS4CFQGM8WM,NA,NA,wolfe_119_R_painting-a,wolfe_119_R_painting-as,wolfe_119_R_painting-b,wolfe_119_R_painting-bs,469.108,-1,17,10715,412,246
ANSS4CFQGM8WM,NA,NA,wolfe_125_R_sofa-a,wolfe_125_R_sofa-as,wolfe_125_R_sofa-b,wolfe_125_R_sofa-bs,479.5,-1,18,8898,579,351
ANSS4CFQGM8WM,NA,NA,wolfe_070_R_lamp-a,wolfe_070_R_lamp-as,wolfe_070_R_lamp-b,wolfe_070_R_lamp-bs,489.641,-1,19,8526,594,153
ANSS4CFQGM8WM,NA,NA,wolfe_041_R_fruit-a,wolfe_041_R_fruit-as,wolfe_041_R_fruit-b,wolfe_041_R_fruit-bs,506.577,-1,20,15239,585,341
ANSS4CFQGM8WM,NA,NA,wolfe_080_R_plant-a,wolfe_080_R_plant-as,wolfe_080_R_plant-b,wolfe_080_R_plant-bs,542.737,-1,21,34341,346,222
ANSS4CFQGM8WM,NA,NA,wolfe_033_R_vase-a,wolfe_033_R_vase-as,wolfe_033_R_vase-b,wolfe_033_R_vase-bs,553.53,-1,22,9188,582,202
ANSS4CFQGM8WM,NA,NA,wolfe_017_R_wood-a,wolfe_017_R_wood-as,wolfe_017_R_wood-b,wolfe_017_R_wood-bs,564.026,-1,23,8866,622,320
ANSS4CFQGM8WM,NA,NA,wolfe_042_R_tap-a,wolfe_042_R_tap-as,wolfe_042_R_tap-b,wolfe_042_R_tap-bs,576.358,-1,24,10664,358,223
ANSS4CFQGM8WM,NA,NA,wolfe_102_R_shoppingbag-a,wolfe_102_R_shoppingbag-as,wolfe_102_R_shoppingbag-b,wolfe_102_R_shoppingbag-bs,586.717,-1,25,8736,485,355
ANSS4CFQGM8WM,NA,NA,wolfe_082_R_bowl-a,wolfe_082_R_bowl-as,wolfe_082_R_bowl-b,wolfe_082_R_bowl-bs,595.658,-1,26,6942,574,420
ANSS4CFQGM8WM,NA,NA,wolfe_054_R_firewood-a,wolfe_054_R_firewood-as,wolfe_054_R_firewood-b,wolfe_054_R_firewood-bs,607.245,-1,27,9960,644,322
ANSS4CFQGM8WM,NA,NA,wolfe_036_R_bowl-a,wolfe_036_R_bowl-as,wolfe_036_R_bowl-b,wolfe_036_R_bowl-bs,617.745,-1,28,8749,358,204
ANSS4CFQGM8WM,NA,NA,wolfe_084_R_light-a,wolfe_084_R_light-as,wolfe_084_R_light-b,wolfe_084_R_light-bs,628.317,-1,29,8556,537,155
ANSS4CFQGM8WM,NA,NA,wolfe_118_R_shoes-a,wolfe_118_R_shoes-as,wolfe_118_R_shoes-b,wolfe_118_R_shoes-bs,638.689,-1,30,8605,406,349
ANSS4CFQGM8WM,NA,NA,wolfe_020_R_walldeco-a,wolfe_020_R_walldeco-as,wolfe_020_R_walldeco-b,wolfe_020_R_walldeco-bs,651.248,-1,31,10540,652,113
ANSS4CFQGM8WM,NA,NA,wolfe_098_R_slippers-a,wolfe_098_R_slippers-as,wolfe_098_R_slippers-b,wolfe_098_R_slippers-bs,661.173,-1,32,8534,401,367
ANSS4CFQGM8WM,NA,NA,catchCow-a,catchCow-as,catchCow-b,catchCow-bs,670.788,-1,33,8547,438,223
