workerId,assignmentId,hitId,unmod_image,unmod_image_splash,mod_image,mod_image_splash,expTimer,response,trial_number,rt,x,y
AOB5RZ3WSAZPS,NA,NA,catchAirplane-a,catchAirplane-as,catchAirplane-b,catchAirplane-bs,37.212,-1,1,6866,318,281
AOB5RZ3WSAZPS,NA,NA,catchBoat-a,catchBoat-as,catchBoat-b,catchBoat-bs,72.988,-1,2,33453,380,236
AOB5RZ3WSAZPS,NA,NA,wolfe_011_R_parfum-a,wolfe_011_R_parfum-as,wolfe_011_R_parfum-b,wolfe_011_R_parfum-bs,72.989,-1,3,34116,380,236
AOB5RZ3WSAZPS,NA,NA,wolfe_062_R_flowers-a,wolfe_062_R_flowers-as,wolfe_062_R_flowers-b,wolfe_062_R_flowers-bs,85.217,-1,4,11561,557,277
AOB5RZ3WSAZPS,NA,NA,wolfe_101_R_cup-a,wolfe_101_R_cup-as,wolfe_101_R_cup-b,wolfe_101_R_cup-bs,138.004,-1,5,51222,350,154
AOB5RZ3WSAZPS,NA,NA,wolfe_121_R_car-a,wolfe_121_R_car-as,wolfe_121_R_car-b,wolfe_121_R_car-bs,150.88,-1,6,10951,624,347
AOB5RZ3WSAZPS,NA,NA,wolfe_060_R_pillow-a,wolfe_060_R_pillow-as,wolfe_060_R_pillow-b,wolfe_060_R_pillow-bs,163.635,-1,7,11021,394,286
AOB5RZ3WSAZPS,NA,NA,wolfe_054_R_firewood-a,wolfe_054_R_firewood-as,wolfe_054_R_firewood-b,wolfe_054_R_firewood-bs,171.961,-1,8,7206,631,311
AOB5RZ3WSAZPS,NA,NA,wolfe_012_R_tubaccesory-a,wolfe_012_R_tubaccesory-as,wolfe_012_R_tubaccesory-b,wolfe_012_R_tubaccesory-bs,180.183,-1,9,7024,444,352
AOB5RZ3WSAZPS,NA,NA,wolfe_066_R_vase-a,wolfe_066_R_vase-as,wolfe_066_R_vase-b,wolfe_066_R_vase-bs,192.33,-1,10,10546,590,189
AOB5RZ3WSAZPS,NA,NA,wolfe_093_R_switch-a,wolfe_093_R_switch-as,wolfe_093_R_switch-b,wolfe_093_R_switch-bs,213.355,-1,11,19381,543,356
AOB5RZ3WSAZPS,NA,NA,wolfe_009_R_carpet-a,wolfe_009_R_carpet-as,wolfe_009_R_carpet-b,wolfe_009_R_carpet-bs,224.932,-1,12,10658,444,454
AOB5RZ3WSAZPS,NA,NA,wolfe_017_R_wood-a,wolfe_017_R_wood-as,wolfe_017_R_wood-b,wolfe_017_R_wood-bs,237.45,-1,13,11076,626,320
AOB5RZ3WSAZPS,NA,NA,wolfe_089_R_poster-a,wolfe_089_R_poster-as,wolfe_089_R_poster-b,wolfe_089_R_poster-bs,275.156,-1,14,36046,358,119
AOB5RZ3WSAZPS,NA,NA,wolfe_070_R_lamp-a,wolfe_070_R_lamp-as,wolfe_070_R_lamp-b,wolfe_070_R_lamp-bs,283.164,-1,15,7077,608,158
AOB5RZ3WSAZPS,NA,NA,wolfe_124_R_vase-a,wolfe_124_R_vase-as,wolfe_124_R_vase-b,wolfe_124_R_vase-bs,292.867,-1,16,8502,482,363
AOB5RZ3WSAZPS,NA,NA,wolfe_033_R_vase-a,wolfe_033_R_vase-as,wolfe_033_R_vase-b,wolfe_033_R_vase-bs,304.538,-1,17,10583,595,197
AOB5RZ3WSAZPS,NA,NA,wolfe_050_R_book-a,wolfe_050_R_book-as,wolfe_050_R_book-b,wolfe_050_R_book-bs,329.249,-1,18,23223,566,52
AOB5RZ3WSAZPS,NA,NA,wolfe_004_R_electricalgrid-a,wolfe_004_R_electricalgrid-as,wolfe_004_R_electricalgrid-b,wolfe_004_R_electricalgrid-bs,345.453,-1,19,14755,417,27
AOB5RZ3WSAZPS,NA,NA,wolfe_105_R_hat-a,wolfe_105_R_hat-as,wolfe_105_R_hat-b,wolfe_105_R_hat-bs,356.051,-1,20,9290,545,427
AOB5RZ3WSAZPS,NA,NA,wolfe_061_R_glass-a,wolfe_061_R_glass-as,wolfe_061_R_glass-b,wolfe_061_R_glass-bs,364.703,-1,21,7022,418,205
AOB5RZ3WSAZPS,NA,NA,wolfe_007_R_soap-a,wolfe_007_R_soap-as,wolfe_007_R_soap-b,wolfe_007_R_soap-bs,373.007,-1,22,7061,501,479
AOB5RZ3WSAZPS,NA,NA,wolfe_115_R_pot-a,wolfe_115_R_pot-as,wolfe_115_R_pot-b,wolfe_115_R_pot-bs,383.012,-1,23,8875,547,238
AOB5RZ3WSAZPS,NA,NA,wolfe_028_R_vase-a,wolfe_028_R_vase-as,wolfe_028_R_vase-b,wolfe_028_R_vase-bs,403.037,-1,24,18980,482,296
AOB5RZ3WSAZPS,NA,NA,wolfe_035_R_fruit-a,wolfe_035_R_fruit-as,wolfe_035_R_fruit-b,wolfe_035_R_fruit-bs,423.36,-1,25,18988,525,284
AOB5RZ3WSAZPS,NA,NA,wolfe_010_R_candle-a,wolfe_010_R_candle-as,wolfe_010_R_candle-b,wolfe_010_R_candle-bs,439.219,-1,26,14699,596,242
AOB5RZ3WSAZPS,NA,NA,wolfe_068_R_faucet-a,wolfe_068_R_faucet-as,wolfe_068_R_faucet-b,wolfe_068_R_faucet-bs,504.053,-1,27,60000,393,311
AOB5RZ3WSAZPS,NA,NA,wolfe_106_R_toweldispenser-a,wolfe_106_R_toweldispenser-as,wolfe_106_R_toweldispenser-b,wolfe_106_R_toweldispenser-bs,519.009,-1,28,13549,416,142
AOB5RZ3WSAZPS,NA,NA,wolfe_026_R_rack-a,wolfe_026_R_rack-as,wolfe_026_R_rack-b,wolfe_026_R_rack-bs,545.523,-1,29,25344,617,280
AOB5RZ3WSAZPS,NA,NA,wolfe_002_R_napkin-a,wolfe_002_R_napkin-as,wolfe_002_R_napkin-b,wolfe_002_R_napkin-bs,574.129,-1,30,27345,409,407
AOB5RZ3WSAZPS,NA,NA,wolfe_097_R_light-a,wolfe_097_R_light-as,wolfe_097_R_light-b,wolfe_097_R_light-bs,597.057,-1,31,21158,342,168
AOB5RZ3WSAZPS,NA,NA,wolfe_056_R_comforter-a,wolfe_056_R_comforter-as,wolfe_056_R_comforter-b,wolfe_056_R_comforter-bs,630.233,-1,32,31598,539,345
AOB5RZ3WSAZPS,NA,NA,catchCow-a,catchCow-as,catchCow-b,catchCow-bs,639.437,-1,33,8690,470,213
