workerId,assignmentId,hitId,unmod_image,unmod_image_splash,mod_image,mod_image_splash,expTimer,response,trial_number,rt,x,y
AQSML514QJ4MO,NA,NA,catchAirplane-a,catchAirplane-as,catchAirplane-b,catchAirplane-bs,43.081,-1,1,5136,557,188
AQSML514QJ4MO,NA,NA,catchBoat-a,catchBoat-as,catchBoat-b,catchBoat-bs,63.481,-1,2,17549,517,102
AQSML514QJ4MO,NA,NA,wolfe_079_L_bowl-a,wolfe_079_L_bowl-as,wolfe_079_L_bowl-b,wolfe_079_L_bowl-bs,63.496,-1,4,18672,517,102
AQSML514QJ4MO,NA,NA,wolfe_095_L_candle-a,wolfe_095_L_candle-as,wolfe_095_L_candle-b,wolfe_095_L_candle-bs,63.496,-1,3,18408,517,102
AQSML514QJ4MO,NA,NA,wolfe_064_L_bottles-a,wolfe_064_L_bottles-as,wolfe_064_L_bottles-b,wolfe_064_L_bottles-bs,63.512,-1,5,18876,517,102
AQSML514QJ4MO,NA,NA,wolfe_106_L_toweldispenser-a,wolfe_106_L_toweldispenser-as,wolfe_106_L_toweldispenser-b,wolfe_106_L_toweldispenser-bs,193.251,-1,6,60000,280,181
AQSML514QJ4MO,NA,NA,wolfe_101_L_cup-a,wolfe_101_L_cup-as,wolfe_101_L_cup-b,wolfe_101_L_cup-bs,193.261,-1,7,127514,280,181
AQSML514QJ4MO,NA,NA,wolfe_098_L_slippers-a,wolfe_098_L_slippers-as,wolfe_098_L_slippers-b,wolfe_098_L_slippers-bs,193.261,-1,8,127878,280,181
AQSML514QJ4MO,NA,NA,wolfe_021_L_keyboard-a,wolfe_021_L_keyboard-as,wolfe_021_L_keyboard-b,wolfe_021_L_keyboard-bs,193.275,-1,9,128126,280,181
AQSML514QJ4MO,NA,NA,wolfe_072_L_handle-a,wolfe_072_L_handle-as,wolfe_072_L_handle-b,wolfe_072_L_handle-bs,200.786,-1,10,6069,335,82
AQSML514QJ4MO,NA,NA,wolfe_037_L_towel-a,wolfe_037_L_towel-as,wolfe_037_L_towel-b,wolfe_037_L_towel-bs,207.343,-1,11,4476,370,58
AQSML514QJ4MO,NA,NA,wolfe_071_L_art-a,wolfe_071_L_art-as,wolfe_071_L_art-b,wolfe_071_L_art-bs,215.29,-1,12,5765,42,161
AQSML514QJ4MO,NA,NA,wolfe_070_L_lamp-a,wolfe_070_L_lamp-as,wolfe_070_L_lamp-b,wolfe_070_L_lamp-bs,221.29,-1,13,4077,537,154
AQSML514QJ4MO,NA,NA,wolfe_110_L_plant-a,wolfe_110_L_plant-as,wolfe_110_L_plant-b,wolfe_110_L_plant-bs,227.507,-1,14,4538,456,247
AQSML514QJ4MO,NA,NA,wolfe_073_L_coffeemug-a,wolfe_073_L_coffeemug-as,wolfe_073_L_coffeemug-b,wolfe_073_L_coffeemug-bs,233.491,-1,15,4686,431,232
AQSML514QJ4MO,NA,NA,wolfe_063_L_laptop-a,wolfe_063_L_laptop-as,wolfe_063_L_laptop-b,wolfe_063_L_laptop-bs,242.954,-1,16,7997,627,184
AQSML514QJ4MO,NA,NA,wolfe_012_L_tubaccesory-a,wolfe_012_L_tubaccesory-as,wolfe_012_L_tubaccesory-b,wolfe_012_L_tubaccesory-bs,249.823,-1,17,5159,530,125
AQSML514QJ4MO,NA,NA,wolfe_052_L_speaker-a,wolfe_052_L_speaker-as,wolfe_052_L_speaker-b,wolfe_052_L_speaker-bs,249.838,-1,18,5384,530,125
AQSML514QJ4MO,NA,NA,wolfe_049_L_painting-a,wolfe_049_L_painting-as,wolfe_049_L_painting-b,wolfe_049_L_painting-bs,280.399,-1,19,29212,214,150
AQSML514QJ4MO,NA,NA,wolfe_005_L_mirror-a,wolfe_005_L_mirror-as,wolfe_005_L_mirror-b,wolfe_005_L_mirror-bs,299.837,-1,20,18299,322,146
AQSML514QJ4MO,NA,NA,wolfe_082_L_bowl-a,wolfe_082_L_bowl-as,wolfe_082_L_bowl-b,wolfe_082_L_bowl-bs,305.645,-1,22,4629,607,85
AQSML514QJ4MO,NA,NA,wolfe_011_L_parfum-a,wolfe_011_L_parfum-as,wolfe_011_L_parfum-b,wolfe_011_L_parfum-bs,305.635,-1,21,4392,607,85
AQSML514QJ4MO,NA,NA,wolfe_068_L_faucet-a,wolfe_068_L_faucet-as,wolfe_068_L_faucet-b,wolfe_068_L_faucet-bs,311.728,-1,23,4323,320,108
AQSML514QJ4MO,NA,NA,wolfe_086_L_book-a,wolfe_086_L_book-as,wolfe_086_L_book-b,wolfe_086_L_book-bs,317.371,-1,24,4876,381,130
AQSML514QJ4MO,NA,NA,wolfe_016_L_art-a,wolfe_016_L_art-as,wolfe_016_L_art-b,wolfe_016_L_art-bs,323.863,-1,25,5526,363,180
AQSML514QJ4MO,NA,NA,wolfe_003_L_ducks-a,wolfe_003_L_ducks-as,wolfe_003_L_ducks-b,wolfe_003_L_ducks-bs,332.853,-1,26,7285,377,79
AQSML514QJ4MO,NA,NA,wolfe_031_L_log-a,wolfe_031_L_log-as,wolfe_031_L_log-b,wolfe_031_L_log-bs,345.62,-1,27,11794,467,91
AQSML514QJ4MO,NA,NA,wolfe_033_L_vase-a,wolfe_033_L_vase-as,wolfe_033_L_vase-b,wolfe_033_L_vase-bs,352.147,-1,28,5460,346,168
AQSML514QJ4MO,NA,NA,wolfe_077_L_footrest-a,wolfe_077_L_footrest-as,wolfe_077_L_footrest-b,wolfe_077_L_footrest-bs,361.06,-1,30,6783,249,248
AQSML514QJ4MO,NA,NA,wolfe_017_L_wood-a,wolfe_017_L_wood-as,wolfe_017_L_wood-b,wolfe_017_L_wood-bs,361.06,-1,29,5186,249,248
AQSML514QJ4MO,NA,NA,wolfe_115_L_pot-a,wolfe_115_L_pot-as,wolfe_115_L_pot-b,wolfe_115_L_pot-bs,366.904,-1,31,4676,546,164
AQSML514QJ4MO,NA,NA,wolfe_018_L_plant-a,wolfe_018_L_plant-as,wolfe_018_L_plant-b,wolfe_018_L_plant-bs,372.948,-1,32,4210,122,189
AQSML514QJ4MO,NA,NA,catchCow-a,catchCow-as,catchCow-b,catchCow-bs,379.538,-1,33,4858,675,263
