consent_response.keys,consent_response.rt,key_resp_2.keys,key_resp_2.rt,user_resp.keys,user_resp.rt,trials.thisRepN,trials.thisTrialN,trials.thisN,trials.thisIndex,trials.ran,image_1_text,image_2_text,database,image,number,age,worker_ID,date,expName,psychopyVersion,OS,frameRate,hitId,workerId,assignmentId,a,tp_a,b,tp_b,c,tp_c,catch_same_resp.keys,catch_same_resp.rt,image_1_text_catch_same,image_2_text_catch_same,image_catch_same,catch_different_resp.keys,catch_different_resp.rt,image_1_text_catch_different,image_2_text_catch_different,image_catch_different
space,26.836,space,20.719,5,26.112,0,0,0,28,1,a blue bathroom that has a bottle resting on the window sill,a blue bathroom that has two bottles resting on the window sill,wolfe2,008_L_bottle,3,36,A2WVCXVSE0YGML,2021-02-18_14h03.09.468,MetaAwareness,2020.1.2,Win32,60,35XW21VSVHHD0JY72H9ONBR0QO1SLP,A2WVCXVSE0YGML,39LNWE0K4VZUBFGZWLCDYFCKM3JUIY,KWL99,KWL99,39LNWE0K4VZUBFGZWLCDYFCKM3JUIY,39LNWE0K4VZUBFGZWLCDYFCKM3JUIY,276469,276469,,,,,,,,,,
,,,,5,6.024,0,1,1,1,1,a spacious living room with one exposed beam on the ceiling.,a spacious living room with two exposed beams on the ceiling.,wolfe2,031_L_log,1,36,A2WVCXVSE0YGML,2021-02-18_14h03.09.468,MetaAwareness,2020.1.2,Win32,60,35XW21VSVHHD0JY72H9ONBR0QO1SLP,A2WVCXVSE0YGML,39LNWE0K4VZUBFGZWLCDYFCKM3JUIY,KWL99,KWL99,39LNWE0K4VZUBFGZWLCDYFCKM3JUIY,39LNWE0K4VZUBFGZWLCDYFCKM3JUIY,276469,276469,,,,,,,,,,
,,,,4,8.211,0,2,2,12,1,a dimly lit bathroom with a lightswitch by the mirror.,a dimly lit bathroom without a light switch by the mirror,wolfe2,085_R_switchboard,1,36,A2WVCXVSE0YGML,2021-02-18_14h03.09.468,MetaAwareness,2020.1.2,Win32,60,35XW21VSVHHD0JY72H9ONBR0QO1SLP,A2WVCXVSE0YGML,39LNWE0K4VZUBFGZWLCDYFCKM3JUIY,KWL99,KWL99,39LNWE0K4VZUBFGZWLCDYFCKM3JUIY,39LNWE0K4VZUBFGZWLCDYFCKM3JUIY,276469,276469,,,,,,,,,,
,,,,5,6.398,0,3,3,3,1,a bathroom with a single dispenser,a bathroom with two dispenser,wolfe2,032_R_bottle,4,36,A2WVCXVSE0YGML,2021-02-18_14h03.09.468,MetaAwareness,2020.1.2,Win32,60,35XW21VSVHHD0JY72H9ONBR0QO1SLP,A2WVCXVSE0YGML,39LNWE0K4VZUBFGZWLCDYFCKM3JUIY,KWL99,KWL99,39LNWE0K4VZUBFGZWLCDYFCKM3JUIY,39LNWE0K4VZUBFGZWLCDYFCKM3JUIY,276469,276469,,,,,,,,,,
,,,,5,10.718,0,4,4,21,1,"a bedroom with green panels on the walls, one of which has been left unadorned","a bedroom with green panels on the walls, one of which contains a small black-bordered mirror",wolfe2,001_L_mirror,1,36,A2WVCXVSE0YGML,2021-02-18_14h03.09.468,MetaAwareness,2020.1.2,Win32,60,35XW21VSVHHD0JY72H9ONBR0QO1SLP,A2WVCXVSE0YGML,39LNWE0K4VZUBFGZWLCDYFCKM3JUIY,KWL99,KWL99,39LNWE0K4VZUBFGZWLCDYFCKM3JUIY,39LNWE0K4VZUBFGZWLCDYFCKM3JUIY,276469,276469,,,,,,,,,,
,,,,5,10.769,0,5,5,11,1,a child's bedroom that is very colorful with a knob missing on the blue drawer,a child's bedroom that is very colorful with all the knobs intact on the dresser,wolfe2,083_L_knob,1,36,A2WVCXVSE0YGML,2021-02-18_14h03.09.468,MetaAwareness,2020.1.2,Win32,60,35XW21VSVHHD0JY72H9ONBR0QO1SLP,A2WVCXVSE0YGML,39LNWE0K4VZUBFGZWLCDYFCKM3JUIY,KWL99,KWL99,39LNWE0K4VZUBFGZWLCDYFCKM3JUIY,39LNWE0K4VZUBFGZWLCDYFCKM3JUIY,276469,276469,,,,,,,,,,
,,,,1,4.637,0,6,6,24,1,clear sky.,a network pole in the woods,wolfe2,004_L_electricalgrid,1,36,A2WVCXVSE0YGML,2021-02-18_14h03.09.468,MetaAwareness,2020.1.2,Win32,60,35XW21VSVHHD0JY72H9ONBR0QO1SLP,A2WVCXVSE0YGML,39LNWE0K4VZUBFGZWLCDYFCKM3JUIY,KWL99,KWL99,39LNWE0K4VZUBFGZWLCDYFCKM3JUIY,39LNWE0K4VZUBFGZWLCDYFCKM3JUIY,276469,276469,,,,,,,,,,
,,,,5,4.256,0,7,7,6,1,4 speakers  are available in the room,there is 5 speakers available in the room,wolfe2,052_R_speaker,1,36,A2WVCXVSE0YGML,2021-02-18_14h03.09.468,MetaAwareness,2020.1.2,Win32,60,35XW21VSVHHD0JY72H9ONBR0QO1SLP,A2WVCXVSE0YGML,39LNWE0K4VZUBFGZWLCDYFCKM3JUIY,KWL99,KWL99,39LNWE0K4VZUBFGZWLCDYFCKM3JUIY,39LNWE0K4VZUBFGZWLCDYFCKM3JUIY,276469,276469,,,,,,,,,,
,,,,6,13.239,0,8,8,17,1,a room with double glass doors and windows down one side with a house plant sitting on a small table just inside the door.,a room with double glass doors and windows down one side with a small table just inside the door,wolfe2,117_L_plant_sized,4,36,A2WVCXVSE0YGML,2021-02-18_14h03.09.468,MetaAwareness,2020.1.2,Win32,60,35XW21VSVHHD0JY72H9ONBR0QO1SLP,A2WVCXVSE0YGML,39LNWE0K4VZUBFGZWLCDYFCKM3JUIY,KWL99,KWL99,39LNWE0K4VZUBFGZWLCDYFCKM3JUIY,39LNWE0K4VZUBFGZWLCDYFCKM3JUIY,276469,276469,,,,,,,,,,
,,,,5,16.057,0,9,9,22,1,"a restaurant dining room with the tables set with cups, plates, silverware and folded orange towels at almost every seat. ","a restaurant dining room with table set, containing plates, cups, silverware, and folded orange towels at every seat. ",wolfe2,002_L_napkin,1,36,A2WVCXVSE0YGML,2021-02-18_14h03.09.468,MetaAwareness,2020.1.2,Win32,60,35XW21VSVHHD0JY72H9ONBR0QO1SLP,A2WVCXVSE0YGML,39LNWE0K4VZUBFGZWLCDYFCKM3JUIY,KWL99,KWL99,39LNWE0K4VZUBFGZWLCDYFCKM3JUIY,39LNWE0K4VZUBFGZWLCDYFCKM3JUIY,276469,276469,,,,,,,,,,
,,,,5,6.323,0,10,10,8,1,"the library features large chandeliers, wide hallways, and five trash cans","the library features large chandeliers, wide hallways, and six trash cans",wolfe2,057_R_bin,4,36,A2WVCXVSE0YGML,2021-02-18_14h03.09.468,MetaAwareness,2020.1.2,Win32,60,35XW21VSVHHD0JY72H9ONBR0QO1SLP,A2WVCXVSE0YGML,39LNWE0K4VZUBFGZWLCDYFCKM3JUIY,KWL99,KWL99,39LNWE0K4VZUBFGZWLCDYFCKM3JUIY,39LNWE0K4VZUBFGZWLCDYFCKM3JUIY,276469,276469,,,,,,,,,,
,,,,5,6.157,0,11,11,2,1,an open living room with beige couch and one visible roof beam,an open living room with beige couch and two visible roof beams,wolfe2,031_L_log,4,36,A2WVCXVSE0YGML,2021-02-18_14h03.09.468,MetaAwareness,2020.1.2,Win32,60,35XW21VSVHHD0JY72H9ONBR0QO1SLP,A2WVCXVSE0YGML,39LNWE0K4VZUBFGZWLCDYFCKM3JUIY,KWL99,KWL99,39LNWE0K4VZUBFGZWLCDYFCKM3JUIY,39LNWE0K4VZUBFGZWLCDYFCKM3JUIY,276469,276469,,,,,,,,,,
,,,,4,12.541,0,12,12,0,1,a room with  a light and towel hanging . there is no object in the box,a room with a light and towel hanging .  there is a box in the box,wolfe2,007_L_soap,2,36,A2WVCXVSE0YGML,2021-02-18_14h03.09.468,MetaAwareness,2020.1.2,Win32,60,35XW21VSVHHD0JY72H9ONBR0QO1SLP,A2WVCXVSE0YGML,39LNWE0K4VZUBFGZWLCDYFCKM3JUIY,KWL99,KWL99,39LNWE0K4VZUBFGZWLCDYFCKM3JUIY,39LNWE0K4VZUBFGZWLCDYFCKM3JUIY,276469,276469,,,,,,,,,,
,,,,4,8.367,0,13,13,14,1,"a very neat bedroom with a bed, mirrors and a small lamp in the corner","a very neat bedroom with a bed, mirrors and no lamp in the corner",wolfe2,090_L_lamp,2,36,A2WVCXVSE0YGML,2021-02-18_14h03.09.468,MetaAwareness,2020.1.2,Win32,60,35XW21VSVHHD0JY72H9ONBR0QO1SLP,A2WVCXVSE0YGML,39LNWE0K4VZUBFGZWLCDYFCKM3JUIY,KWL99,KWL99,39LNWE0K4VZUBFGZWLCDYFCKM3JUIY,39LNWE0K4VZUBFGZWLCDYFCKM3JUIY,276469,276469,,,,,,,,,,
,,,,4,11.895,0,14,14,26,1,a clean and well kept master bedroom that has a night stand with a lamp on it.,a clean and well kept master bedroom that has a night stand with a lamp and vase on it,wolfe2,006_L_vase,1,36,A2WVCXVSE0YGML,2021-02-18_14h03.09.468,MetaAwareness,2020.1.2,Win32,60,35XW21VSVHHD0JY72H9ONBR0QO1SLP,A2WVCXVSE0YGML,39LNWE0K4VZUBFGZWLCDYFCKM3JUIY,KWL99,KWL99,39LNWE0K4VZUBFGZWLCDYFCKM3JUIY,39LNWE0K4VZUBFGZWLCDYFCKM3JUIY,276469,276469,,,,,,,,,,
,,,,3,19.728,0,15,15,18,1,it is a picture of a grand room with art photos to the left and right of the glass door.,it is a picture of a grand room with an art photo to the left of the glass doors.,wolfe2,119_R_painting,1,36,A2WVCXVSE0YGML,2021-02-18_14h03.09.468,MetaAwareness,2020.1.2,Win32,60,35XW21VSVHHD0JY72H9ONBR0QO1SLP,A2WVCXVSE0YGML,39LNWE0K4VZUBFGZWLCDYFCKM3JUIY,KWL99,KWL99,39LNWE0K4VZUBFGZWLCDYFCKM3JUIY,39LNWE0K4VZUBFGZWLCDYFCKM3JUIY,276469,276469,,,,,,,,,,
,,,,5,14.269,0,16,16,29,1,"a very modern bedroom with glass walls, white floors and brown accents","a very modern bedroom with glass walls, white floors, and brown accents with a small rug under one corner of the bed",wolfe2,009_L_carpet,1,36,A2WVCXVSE0YGML,2021-02-18_14h03.09.468,MetaAwareness,2020.1.2,Win32,60,35XW21VSVHHD0JY72H9ONBR0QO1SLP,A2WVCXVSE0YGML,39LNWE0K4VZUBFGZWLCDYFCKM3JUIY,KWL99,KWL99,39LNWE0K4VZUBFGZWLCDYFCKM3JUIY,39LNWE0K4VZUBFGZWLCDYFCKM3JUIY,276469,276469,,,,,,,,,,
,,,,3,44.579,0,17,17,27,1,iin a bathroom there is a sink with no soap dish next to a yellow bucker,in a bathroom there is a  sink with a soapdish with soap next to a yellow bucket,wolfe2,007_L_soap,1,36,A2WVCXVSE0YGML,2021-02-18_14h03.09.468,MetaAwareness,2020.1.2,Win32,60,35XW21VSVHHD0JY72H9ONBR0QO1SLP,A2WVCXVSE0YGML,39LNWE0K4VZUBFGZWLCDYFCKM3JUIY,KWL99,KWL99,39LNWE0K4VZUBFGZWLCDYFCKM3JUIY,39LNWE0K4VZUBFGZWLCDYFCKM3JUIY,276469,276469,,,,,,,,,,
,,,,1,11.2,0,18,18,9,1,there are no books on the shelf,bookks appear to be on the shelf,wolfe2,065_R_cd,2,36,A2WVCXVSE0YGML,2021-02-18_14h03.09.468,MetaAwareness,2020.1.2,Win32,60,35XW21VSVHHD0JY72H9ONBR0QO1SLP,A2WVCXVSE0YGML,39LNWE0K4VZUBFGZWLCDYFCKM3JUIY,KWL99,KWL99,39LNWE0K4VZUBFGZWLCDYFCKM3JUIY,39LNWE0K4VZUBFGZWLCDYFCKM3JUIY,276469,276469,,,,,,,,,,
,,,,2,10.176,0,19,19,13,1,a stylish apartment with a table holding a book.,a stylish apartment with a table without a book.,wolfe2,086_L_book,4,36,A2WVCXVSE0YGML,2021-02-18_14h03.09.468,MetaAwareness,2020.1.2,Win32,60,35XW21VSVHHD0JY72H9ONBR0QO1SLP,A2WVCXVSE0YGML,39LNWE0K4VZUBFGZWLCDYFCKM3JUIY,KWL99,KWL99,39LNWE0K4VZUBFGZWLCDYFCKM3JUIY,39LNWE0K4VZUBFGZWLCDYFCKM3JUIY,276469,276469,,,,,,,,,,
,,,,3,18.132,0,20,20,19,1,it is a guest house there are chair and table present and natural scenary present there is an water can present inside the box,it is a guest house there are chair and table present and natural scenary present. there is no object present in the box,wolfe2,124_L_vase,1,36,A2WVCXVSE0YGML,2021-02-18_14h03.09.468,MetaAwareness,2020.1.2,Win32,60,35XW21VSVHHD0JY72H9ONBR0QO1SLP,A2WVCXVSE0YGML,39LNWE0K4VZUBFGZWLCDYFCKM3JUIY,KWL99,KWL99,39LNWE0K4VZUBFGZWLCDYFCKM3JUIY,39LNWE0K4VZUBFGZWLCDYFCKM3JUIY,276469,276469,,,,,,,,,,
,,,,5,24.575,0,21,21,10,1,a full stocked kitchen with white and black furniture and a tall black shelf,"a fully stocked kitchen with white and black furniture and a tall black shelf, and a plant",wolfe2,080_R_plant,4,36,A2WVCXVSE0YGML,2021-02-18_14h03.09.468,MetaAwareness,2020.1.2,Win32,60,35XW21VSVHHD0JY72H9ONBR0QO1SLP,A2WVCXVSE0YGML,39LNWE0K4VZUBFGZWLCDYFCKM3JUIY,KWL99,KWL99,39LNWE0K4VZUBFGZWLCDYFCKM3JUIY,39LNWE0K4VZUBFGZWLCDYFCKM3JUIY,276469,276469,,,,,,,,,,
,,,,3,10.693,0,22,22,5,1,it shows empty shelf,it shows three books in shelf,wolfe2,050_L_book,4,36,A2WVCXVSE0YGML,2021-02-18_14h03.09.468,MetaAwareness,2020.1.2,Win32,60,35XW21VSVHHD0JY72H9ONBR0QO1SLP,A2WVCXVSE0YGML,39LNWE0K4VZUBFGZWLCDYFCKM3JUIY,KWL99,KWL99,39LNWE0K4VZUBFGZWLCDYFCKM3JUIY,39LNWE0K4VZUBFGZWLCDYFCKM3JUIY,276469,276469,,,,,,,,,,
,,,,4,8.504,0,23,23,7,1,"an upscale, modern living room with a gray couch","an upscale, modern living room with a gray couch, a blanket a magazine lays on the couch",wolfe2,056_R_comforter,6,36,A2WVCXVSE0YGML,2021-02-18_14h03.09.468,MetaAwareness,2020.1.2,Win32,60,35XW21VSVHHD0JY72H9ONBR0QO1SLP,A2WVCXVSE0YGML,39LNWE0K4VZUBFGZWLCDYFCKM3JUIY,KWL99,KWL99,39LNWE0K4VZUBFGZWLCDYFCKM3JUIY,39LNWE0K4VZUBFGZWLCDYFCKM3JUIY,276469,276469,,,,,,,,,,
,,,,5,8.269,0,24,24,23,1,a desk area inside a home overlooking a lake,a desk area inside a home overlookin a lake with three birds in the water,wolfe2,003_L_ducks,1,36,A2WVCXVSE0YGML,2021-02-18_14h03.09.468,MetaAwareness,2020.1.2,Win32,60,35XW21VSVHHD0JY72H9ONBR0QO1SLP,A2WVCXVSE0YGML,39LNWE0K4VZUBFGZWLCDYFCKM3JUIY,KWL99,KWL99,39LNWE0K4VZUBFGZWLCDYFCKM3JUIY,39LNWE0K4VZUBFGZWLCDYFCKM3JUIY,276469,276469,,,,,,,,,,
,,,,4,8.567,0,25,25,25,1,"a combined home office and living space with a modern look and feel, with the wall above the couch being empty","a combined home office and living space with a modern look and feel, with the wall above the couch containing a mirror with three panels",wolfe2,005_L_mirror,1,36,A2WVCXVSE0YGML,2021-02-18_14h03.09.468,MetaAwareness,2020.1.2,Win32,60,35XW21VSVHHD0JY72H9ONBR0QO1SLP,A2WVCXVSE0YGML,39LNWE0K4VZUBFGZWLCDYFCKM3JUIY,KWL99,KWL99,39LNWE0K4VZUBFGZWLCDYFCKM3JUIY,39LNWE0K4VZUBFGZWLCDYFCKM3JUIY,276469,276469,,,,,,,,,,
,,,,4,12.82,0,26,26,15,1,a spacious house with a notable consumer box mounted on th wall  beside the door,a spacious house without a consumerbox mounted on the wall beside the door,wolfe2,106_L_toweldispenser,3,36,A2WVCXVSE0YGML,2021-02-18_14h03.09.468,MetaAwareness,2020.1.2,Win32,60,35XW21VSVHHD0JY72H9ONBR0QO1SLP,A2WVCXVSE0YGML,39LNWE0K4VZUBFGZWLCDYFCKM3JUIY,KWL99,KWL99,39LNWE0K4VZUBFGZWLCDYFCKM3JUIY,39LNWE0K4VZUBFGZWLCDYFCKM3JUIY,276469,276469,,,,,,,,,,
,,,,5,8.183,0,27,27,4,1,a bathroom with a bathtub that has one light,a bathroom with a bathtub that has two lights,wolfe2,044_L_light,6,36,A2WVCXVSE0YGML,2021-02-18_14h03.09.468,MetaAwareness,2020.1.2,Win32,60,35XW21VSVHHD0JY72H9ONBR0QO1SLP,A2WVCXVSE0YGML,39LNWE0K4VZUBFGZWLCDYFCKM3JUIY,KWL99,KWL99,39LNWE0K4VZUBFGZWLCDYFCKM3JUIY,39LNWE0K4VZUBFGZWLCDYFCKM3JUIY,276469,276469,,,,,,,,,,
,,,,4,10.229,0,28,28,20,1,a living room with an unknown item on the floor near the window.,a living room with nothing on the floor or near the windows.,wolfe2,125_R_sofa,2,36,A2WVCXVSE0YGML,2021-02-18_14h03.09.468,MetaAwareness,2020.1.2,Win32,60,35XW21VSVHHD0JY72H9ONBR0QO1SLP,A2WVCXVSE0YGML,39LNWE0K4VZUBFGZWLCDYFCKM3JUIY,KWL99,KWL99,39LNWE0K4VZUBFGZWLCDYFCKM3JUIY,39LNWE0K4VZUBFGZWLCDYFCKM3JUIY,276469,276469,,,,,,,,,,
,,,,3,17.923,0,29,29,16,1,a closet full of womens clothes with a dresser with a blue decoration on it,a closet full of womens clothes with a dresser with hairbrushes on it and no decor,wolfe2,108_L_boa,2,36,A2WVCXVSE0YGML,2021-02-18_14h03.09.468,MetaAwareness,2020.1.2,Win32,60,35XW21VSVHHD0JY72H9ONBR0QO1SLP,A2WVCXVSE0YGML,39LNWE0K4VZUBFGZWLCDYFCKM3JUIY,KWL99,KWL99,39LNWE0K4VZUBFGZWLCDYFCKM3JUIY,39LNWE0K4VZUBFGZWLCDYFCKM3JUIY,276469,276469,,,,,,,,,,
,,,,,,,,,,,,,,,,36,A2WVCXVSE0YGML,2021-02-18_14h03.09.468,MetaAwareness,2020.1.2,Win32,60,35XW21VSVHHD0JY72H9ONBR0QO1SLP,A2WVCXVSE0YGML,39LNWE0K4VZUBFGZWLCDYFCKM3JUIY,KWL99,KWL99,39LNWE0K4VZUBFGZWLCDYFCKM3JUIY,39LNWE0K4VZUBFGZWLCDYFCKM3JUIY,276469,276469,6,10.1,someone laying underneath a blue beach umbrella on a crowded beach,someone laying underneath a blue beach umbrella on a crowded beach,same,1,6.881,members of a marching band crossing a track that all have feather plumes at the front of their hats,a cluttered and rustic looking cafe with 10 hanging lights,different
