consent_response.keys,consent_response.rt,key_resp_2.keys,key_resp_2.rt,Airplane_resp.keys,Airplane_resp.rt,Boat_resp.keys,Boat_resp.rt,user_resp.keys,user_resp.rt,trials.thisRepN,trials.thisTrialN,trials.thisN,trials.thisIndex,trials.ran,workerId,trial_num,image_a,image_b,age,gender (m/f),worker_ID,date,expName,psychopyVersion,OS,frameRate,hitId,assignmentId,a,tp_a,b,tp_b,c,tp_c,Cow_resp.keys,Cow_resp.rt,Garden_resp.keys,Garden_resp.rt
space,7.541375,space,29.77803,5,3.366735,5,2.37069,4,8.45823,0,0,0,10,1,A1ESLDCYJIENVI,24,ma_4247084-a_w_outline.jpg,ma_4247084-b_w_outline.jpg,26,m,A1ESLDCYJIENVI,2020-12-07_20h28.29.394,MetaAwareness,2020.1.2,Linux x86_64,60,3HO4MYYR13RBWBN44IYMDTRRI7W6U5,3Z7EFSHGNAHVFGOU9GRE7JDTV44XCJ,GF7Z0,GF7Z0,3Z7EFSHGNAHVFGOU9GRE7JDTV44XCJ,3Z7EFSHGNAHVFGOU9GRE7JDTV44XCJ,262460,262460,,,,
,,,,,,,,3,5.53771,0,1,1,28,1,A1ESLDCYJIENVI,67,ma_97475929-a_w_outline.jpg,ma_97475929-b_w_outline.jpg,26,m,A1ESLDCYJIENVI,2020-12-07_20h28.29.394,MetaAwareness,2020.1.2,Linux x86_64,60,3HO4MYYR13RBWBN44IYMDTRRI7W6U5,3Z7EFSHGNAHVFGOU9GRE7JDTV44XCJ,GF7Z0,GF7Z0,3Z7EFSHGNAHVFGOU9GRE7JDTV44XCJ,3Z7EFSHGNAHVFGOU9GRE7JDTV44XCJ,262460,262460,,,,
,,,,,,,,2,12.87152,0,2,2,4,1,A1ESLDCYJIENVI,8,ma_13873251-a_w_outline.jpg,ma_13873251-b_w_outline.jpg,26,m,A1ESLDCYJIENVI,2020-12-07_20h28.29.394,MetaAwareness,2020.1.2,Linux x86_64,60,3HO4MYYR13RBWBN44IYMDTRRI7W6U5,3Z7EFSHGNAHVFGOU9GRE7JDTV44XCJ,GF7Z0,GF7Z0,3Z7EFSHGNAHVFGOU9GRE7JDTV44XCJ,3Z7EFSHGNAHVFGOU9GRE7JDTV44XCJ,262460,262460,,,,
,,,,,,,,3,5.620985,0,3,3,16,1,A1ESLDCYJIENVI,36,ma_61118260-a_w_outline.jpg,ma_61118260-b_w_outline.jpg,26,m,A1ESLDCYJIENVI,2020-12-07_20h28.29.394,MetaAwareness,2020.1.2,Linux x86_64,60,3HO4MYYR13RBWBN44IYMDTRRI7W6U5,3Z7EFSHGNAHVFGOU9GRE7JDTV44XCJ,GF7Z0,GF7Z0,3Z7EFSHGNAHVFGOU9GRE7JDTV44XCJ,3Z7EFSHGNAHVFGOU9GRE7JDTV44XCJ,262460,262460,,,,
,,,,,,,,1,4.70432,0,4,4,8,1,A1ESLDCYJIENVI,21,ma_38466626-a_w_outline.jpg,ma_38466626-b_w_outline.jpg,26,m,A1ESLDCYJIENVI,2020-12-07_20h28.29.394,MetaAwareness,2020.1.2,Linux x86_64,60,3HO4MYYR13RBWBN44IYMDTRRI7W6U5,3Z7EFSHGNAHVFGOU9GRE7JDTV44XCJ,GF7Z0,GF7Z0,3Z7EFSHGNAHVFGOU9GRE7JDTV44XCJ,3Z7EFSHGNAHVFGOU9GRE7JDTV44XCJ,262460,262460,,,,
,,,,,,,,3,5.48937,0,5,5,20,1,A1ESLDCYJIENVI,43,ma_73637203-a_w_outline.jpg,ma_73637203-b_w_outline.jpg,26,m,A1ESLDCYJIENVI,2020-12-07_20h28.29.394,MetaAwareness,2020.1.2,Linux x86_64,60,3HO4MYYR13RBWBN44IYMDTRRI7W6U5,3Z7EFSHGNAHVFGOU9GRE7JDTV44XCJ,GF7Z0,GF7Z0,3Z7EFSHGNAHVFGOU9GRE7JDTV44XCJ,3Z7EFSHGNAHVFGOU9GRE7JDTV44XCJ,262460,262460,,,,
,,,,,,,,4,4.88744,0,6,6,5,1,A1ESLDCYJIENVI,12,ma_22020472-a_w_outline.jpg,ma_22020472-b_w_outline.jpg,26,m,A1ESLDCYJIENVI,2020-12-07_20h28.29.394,MetaAwareness,2020.1.2,Linux x86_64,60,3HO4MYYR13RBWBN44IYMDTRRI7W6U5,3Z7EFSHGNAHVFGOU9GRE7JDTV44XCJ,GF7Z0,GF7Z0,3Z7EFSHGNAHVFGOU9GRE7JDTV44XCJ,3Z7EFSHGNAHVFGOU9GRE7JDTV44XCJ,262460,262460,,,,
,,,,,,,,4,4.6385,0,7,7,19,1,A1ESLDCYJIENVI,40,ma_69128765-a_w_outline.jpg,ma_69128765-b_w_outline.jpg,26,m,A1ESLDCYJIENVI,2020-12-07_20h28.29.394,MetaAwareness,2020.1.2,Linux x86_64,60,3HO4MYYR13RBWBN44IYMDTRRI7W6U5,3Z7EFSHGNAHVFGOU9GRE7JDTV44XCJ,GF7Z0,GF7Z0,3Z7EFSHGNAHVFGOU9GRE7JDTV44XCJ,3Z7EFSHGNAHVFGOU9GRE7JDTV44XCJ,262460,262460,,,,
,,,,,,,,1,4.8755,0,8,8,27,1,A1ESLDCYJIENVI,64,ma_8974554-a_w_outline.jpg,ma_8974554-b_w_outline.jpg,26,m,A1ESLDCYJIENVI,2020-12-07_20h28.29.394,MetaAwareness,2020.1.2,Linux x86_64,60,3HO4MYYR13RBWBN44IYMDTRRI7W6U5,3Z7EFSHGNAHVFGOU9GRE7JDTV44XCJ,GF7Z0,GF7Z0,3Z7EFSHGNAHVFGOU9GRE7JDTV44XCJ,3Z7EFSHGNAHVFGOU9GRE7JDTV44XCJ,262460,262460,,,,
,,,,,,,,4,5.49513,0,9,9,29,1,A1ESLDCYJIENVI,68,ma_98156944-a_w_outline.jpg,ma_98156944-b_w_outline.jpg,26,m,A1ESLDCYJIENVI,2020-12-07_20h28.29.394,MetaAwareness,2020.1.2,Linux x86_64,60,3HO4MYYR13RBWBN44IYMDTRRI7W6U5,3Z7EFSHGNAHVFGOU9GRE7JDTV44XCJ,GF7Z0,GF7Z0,3Z7EFSHGNAHVFGOU9GRE7JDTV44XCJ,3Z7EFSHGNAHVFGOU9GRE7JDTV44XCJ,262460,262460,,,,
,,,,,,,,3,6.065645,0,10,10,17,1,A1ESLDCYJIENVI,37,ma_62096551-a_w_outline.jpg,ma_62096551-b_w_outline.jpg,26,m,A1ESLDCYJIENVI,2020-12-07_20h28.29.394,MetaAwareness,2020.1.2,Linux x86_64,60,3HO4MYYR13RBWBN44IYMDTRRI7W6U5,3Z7EFSHGNAHVFGOU9GRE7JDTV44XCJ,GF7Z0,GF7Z0,3Z7EFSHGNAHVFGOU9GRE7JDTV44XCJ,3Z7EFSHGNAHVFGOU9GRE7JDTV44XCJ,262460,262460,,,,
,,,,,,,,3,3.3307,0,11,11,22,1,A1ESLDCYJIENVI,46,ma_75958241-a_w_outline.jpg,ma_75958241-b_w_outline.jpg,26,m,A1ESLDCYJIENVI,2020-12-07_20h28.29.394,MetaAwareness,2020.1.2,Linux x86_64,60,3HO4MYYR13RBWBN44IYMDTRRI7W6U5,3Z7EFSHGNAHVFGOU9GRE7JDTV44XCJ,GF7Z0,GF7Z0,3Z7EFSHGNAHVFGOU9GRE7JDTV44XCJ,3Z7EFSHGNAHVFGOU9GRE7JDTV44XCJ,262460,262460,,,,
,,,,,,,,3,4.29581,0,12,12,21,1,A1ESLDCYJIENVI,45,ma_75081153-a_w_outline.jpg,ma_75081153-b_w_outline.jpg,26,m,A1ESLDCYJIENVI,2020-12-07_20h28.29.394,MetaAwareness,2020.1.2,Linux x86_64,60,3HO4MYYR13RBWBN44IYMDTRRI7W6U5,3Z7EFSHGNAHVFGOU9GRE7JDTV44XCJ,GF7Z0,GF7Z0,3Z7EFSHGNAHVFGOU9GRE7JDTV44XCJ,3Z7EFSHGNAHVFGOU9GRE7JDTV44XCJ,262460,262460,,,,
,,,,,,,,2,7.85589,0,13,13,0,1,A1ESLDCYJIENVI,1,ma_10504629-a_w_outline.jpg,ma_10504629-b_w_outline.jpg,26,m,A1ESLDCYJIENVI,2020-12-07_20h28.29.394,MetaAwareness,2020.1.2,Linux x86_64,60,3HO4MYYR13RBWBN44IYMDTRRI7W6U5,3Z7EFSHGNAHVFGOU9GRE7JDTV44XCJ,GF7Z0,GF7Z0,3Z7EFSHGNAHVFGOU9GRE7JDTV44XCJ,3Z7EFSHGNAHVFGOU9GRE7JDTV44XCJ,262460,262460,,,,
,,,,,,,,2,3.805465,0,14,14,11,1,A1ESLDCYJIENVI,26,ma_45525109-a_w_outline.jpg,ma_45525109-b_w_outline.jpg,26,m,A1ESLDCYJIENVI,2020-12-07_20h28.29.394,MetaAwareness,2020.1.2,Linux x86_64,60,3HO4MYYR13RBWBN44IYMDTRRI7W6U5,3Z7EFSHGNAHVFGOU9GRE7JDTV44XCJ,GF7Z0,GF7Z0,3Z7EFSHGNAHVFGOU9GRE7JDTV44XCJ,3Z7EFSHGNAHVFGOU9GRE7JDTV44XCJ,262460,262460,,,,
,,,,,,,,1,3.887565,0,15,15,12,1,A1ESLDCYJIENVI,30,ma_48486405-a_w_outline.jpg,ma_48486405-b_w_outline.jpg,26,m,A1ESLDCYJIENVI,2020-12-07_20h28.29.394,MetaAwareness,2020.1.2,Linux x86_64,60,3HO4MYYR13RBWBN44IYMDTRRI7W6U5,3Z7EFSHGNAHVFGOU9GRE7JDTV44XCJ,GF7Z0,GF7Z0,3Z7EFSHGNAHVFGOU9GRE7JDTV44XCJ,3Z7EFSHGNAHVFGOU9GRE7JDTV44XCJ,262460,262460,,,,
,,,,,,,,2,3.855305,0,16,16,2,1,A1ESLDCYJIENVI,6,ma_13141692-a_w_outline.jpg,ma_13141692-b_w_outline.jpg,26,m,A1ESLDCYJIENVI,2020-12-07_20h28.29.394,MetaAwareness,2020.1.2,Linux x86_64,60,3HO4MYYR13RBWBN44IYMDTRRI7W6U5,3Z7EFSHGNAHVFGOU9GRE7JDTV44XCJ,GF7Z0,GF7Z0,3Z7EFSHGNAHVFGOU9GRE7JDTV44XCJ,3Z7EFSHGNAHVFGOU9GRE7JDTV44XCJ,262460,262460,,,,
,,,,,,,,4,4.42219,0,17,17,3,1,A1ESLDCYJIENVI,7,ma_1383096-a_w_outline.jpg,ma_1383096-b_w_outline.jpg,26,m,A1ESLDCYJIENVI,2020-12-07_20h28.29.394,MetaAwareness,2020.1.2,Linux x86_64,60,3HO4MYYR13RBWBN44IYMDTRRI7W6U5,3Z7EFSHGNAHVFGOU9GRE7JDTV44XCJ,GF7Z0,GF7Z0,3Z7EFSHGNAHVFGOU9GRE7JDTV44XCJ,3Z7EFSHGNAHVFGOU9GRE7JDTV44XCJ,262460,262460,,,,
,,,,,,,,4,3.753305,0,18,18,6,1,A1ESLDCYJIENVI,13,ma_23024660-a_w_outline.jpg,ma_23024660-b_w_outline.jpg,26,m,A1ESLDCYJIENVI,2020-12-07_20h28.29.394,MetaAwareness,2020.1.2,Linux x86_64,60,3HO4MYYR13RBWBN44IYMDTRRI7W6U5,3Z7EFSHGNAHVFGOU9GRE7JDTV44XCJ,GF7Z0,GF7Z0,3Z7EFSHGNAHVFGOU9GRE7JDTV44XCJ,3Z7EFSHGNAHVFGOU9GRE7JDTV44XCJ,262460,262460,,,,
,,,,,,,,3,4.081525,0,19,19,7,1,A1ESLDCYJIENVI,20,ma_32289063-a_w_outline.jpg,ma_32289063-b_w_outline.jpg,26,m,A1ESLDCYJIENVI,2020-12-07_20h28.29.394,MetaAwareness,2020.1.2,Linux x86_64,60,3HO4MYYR13RBWBN44IYMDTRRI7W6U5,3Z7EFSHGNAHVFGOU9GRE7JDTV44XCJ,GF7Z0,GF7Z0,3Z7EFSHGNAHVFGOU9GRE7JDTV44XCJ,3Z7EFSHGNAHVFGOU9GRE7JDTV44XCJ,262460,262460,,,,
,,,,,,,,5,2.91795,0,20,20,25,1,A1ESLDCYJIENVI,59,ma_85741618-a_w_outline.jpg,ma_85741618-b_w_outline.jpg,26,m,A1ESLDCYJIENVI,2020-12-07_20h28.29.394,MetaAwareness,2020.1.2,Linux x86_64,60,3HO4MYYR13RBWBN44IYMDTRRI7W6U5,3Z7EFSHGNAHVFGOU9GRE7JDTV44XCJ,GF7Z0,GF7Z0,3Z7EFSHGNAHVFGOU9GRE7JDTV44XCJ,3Z7EFSHGNAHVFGOU9GRE7JDTV44XCJ,262460,262460,,,,
,,,,,,,,4,3.47482,0,21,21,13,1,A1ESLDCYJIENVI,32,ma_51856108-a_w_outline.jpg,ma_51856108-b_w_outline.jpg,26,m,A1ESLDCYJIENVI,2020-12-07_20h28.29.394,MetaAwareness,2020.1.2,Linux x86_64,60,3HO4MYYR13RBWBN44IYMDTRRI7W6U5,3Z7EFSHGNAHVFGOU9GRE7JDTV44XCJ,GF7Z0,GF7Z0,3Z7EFSHGNAHVFGOU9GRE7JDTV44XCJ,3Z7EFSHGNAHVFGOU9GRE7JDTV44XCJ,262460,262460,,,,
,,,,,,,,2,4.186985,0,22,22,26,1,A1ESLDCYJIENVI,62,ma_88767165-a_w_outline.jpg,ma_88767165-b_w_outline.jpg,26,m,A1ESLDCYJIENVI,2020-12-07_20h28.29.394,MetaAwareness,2020.1.2,Linux x86_64,60,3HO4MYYR13RBWBN44IYMDTRRI7W6U5,3Z7EFSHGNAHVFGOU9GRE7JDTV44XCJ,GF7Z0,GF7Z0,3Z7EFSHGNAHVFGOU9GRE7JDTV44XCJ,3Z7EFSHGNAHVFGOU9GRE7JDTV44XCJ,262460,262460,,,,
,,,,,,,,3,4.6882,0,23,23,1,1,A1ESLDCYJIENVI,2,ma_10810329-a_w_outline.jpg,ma_10810329-b_w_outline.jpg,26,m,A1ESLDCYJIENVI,2020-12-07_20h28.29.394,MetaAwareness,2020.1.2,Linux x86_64,60,3HO4MYYR13RBWBN44IYMDTRRI7W6U5,3Z7EFSHGNAHVFGOU9GRE7JDTV44XCJ,GF7Z0,GF7Z0,3Z7EFSHGNAHVFGOU9GRE7JDTV44XCJ,3Z7EFSHGNAHVFGOU9GRE7JDTV44XCJ,262460,262460,,,,
,,,,,,,,4,4.887615,0,24,24,9,1,A1ESLDCYJIENVI,23,ma_42429798-a_w_outline.jpg,ma_42429798-b_w_outline.jpg,26,m,A1ESLDCYJIENVI,2020-12-07_20h28.29.394,MetaAwareness,2020.1.2,Linux x86_64,60,3HO4MYYR13RBWBN44IYMDTRRI7W6U5,3Z7EFSHGNAHVFGOU9GRE7JDTV44XCJ,GF7Z0,GF7Z0,3Z7EFSHGNAHVFGOU9GRE7JDTV44XCJ,3Z7EFSHGNAHVFGOU9GRE7JDTV44XCJ,262460,262460,,,,
,,,,,,,,2,4.022895,0,25,25,24,1,A1ESLDCYJIENVI,54,ma_8197559-a_w_outline.jpg,ma_8197559-b_w_outline.jpg,26,m,A1ESLDCYJIENVI,2020-12-07_20h28.29.394,MetaAwareness,2020.1.2,Linux x86_64,60,3HO4MYYR13RBWBN44IYMDTRRI7W6U5,3Z7EFSHGNAHVFGOU9GRE7JDTV44XCJ,GF7Z0,GF7Z0,3Z7EFSHGNAHVFGOU9GRE7JDTV44XCJ,3Z7EFSHGNAHVFGOU9GRE7JDTV44XCJ,262460,262460,,,,
,,,,,,,,2,3.65065,0,26,26,18,1,A1ESLDCYJIENVI,39,ma_67862299-a_w_outline.jpg,ma_67862299-b_w_outline.jpg,26,m,A1ESLDCYJIENVI,2020-12-07_20h28.29.394,MetaAwareness,2020.1.2,Linux x86_64,60,3HO4MYYR13RBWBN44IYMDTRRI7W6U5,3Z7EFSHGNAHVFGOU9GRE7JDTV44XCJ,GF7Z0,GF7Z0,3Z7EFSHGNAHVFGOU9GRE7JDTV44XCJ,3Z7EFSHGNAHVFGOU9GRE7JDTV44XCJ,262460,262460,,,,
,,,,,,,,3,4.297545,0,27,27,14,1,A1ESLDCYJIENVI,34,ma_56835136-a_w_outline.jpg,ma_56835136-b_w_outline.jpg,26,m,A1ESLDCYJIENVI,2020-12-07_20h28.29.394,MetaAwareness,2020.1.2,Linux x86_64,60,3HO4MYYR13RBWBN44IYMDTRRI7W6U5,3Z7EFSHGNAHVFGOU9GRE7JDTV44XCJ,GF7Z0,GF7Z0,3Z7EFSHGNAHVFGOU9GRE7JDTV44XCJ,3Z7EFSHGNAHVFGOU9GRE7JDTV44XCJ,262460,262460,,,,
,,,,,,,,4,4.521765,0,28,28,15,1,A1ESLDCYJIENVI,35,ma_57861456-a_w_outline.jpg,ma_57861456-b_w_outline.jpg,26,m,A1ESLDCYJIENVI,2020-12-07_20h28.29.394,MetaAwareness,2020.1.2,Linux x86_64,60,3HO4MYYR13RBWBN44IYMDTRRI7W6U5,3Z7EFSHGNAHVFGOU9GRE7JDTV44XCJ,GF7Z0,GF7Z0,3Z7EFSHGNAHVFGOU9GRE7JDTV44XCJ,3Z7EFSHGNAHVFGOU9GRE7JDTV44XCJ,262460,262460,,,,
,,,,,,,,2,4.73683,0,29,29,23,1,A1ESLDCYJIENVI,50,ma_79191795-a_w_outline.jpg,ma_79191795-b_w_outline.jpg,26,m,A1ESLDCYJIENVI,2020-12-07_20h28.29.394,MetaAwareness,2020.1.2,Linux x86_64,60,3HO4MYYR13RBWBN44IYMDTRRI7W6U5,3Z7EFSHGNAHVFGOU9GRE7JDTV44XCJ,GF7Z0,GF7Z0,3Z7EFSHGNAHVFGOU9GRE7JDTV44XCJ,3Z7EFSHGNAHVFGOU9GRE7JDTV44XCJ,262460,262460,,,,
,,,,,,,,,,,,,,,A1ESLDCYJIENVI,,,,26,m,A1ESLDCYJIENVI,2020-12-07_20h28.29.394,MetaAwareness,2020.1.2,Linux x86_64,60,3HO4MYYR13RBWBN44IYMDTRRI7W6U5,3Z7EFSHGNAHVFGOU9GRE7JDTV44XCJ,GF7Z0,GF7Z0,3Z7EFSHGNAHVFGOU9GRE7JDTV44XCJ,3Z7EFSHGNAHVFGOU9GRE7JDTV44XCJ,262460,262460,5,2.993395,1,5.192905
