consent_response.keys,consent_response.rt,key_resp_2.keys,key_resp_2.rt,Airplane_resp.keys,Airplane_resp.rt,Boat_resp.keys,Boat_resp.rt,user_resp.keys,user_resp.rt,trials.thisRepN,trials.thisTrialN,trials.thisN,trials.thisIndex,trials.ran,workerId,trial_num,image_a,image_b,age,gender (m/f),worker_ID,date,expName,psychopyVersion,OS,frameRate,hitId,assignmentId,a,tp_a,b,tp_b,c,tp_c,Cow_resp.keys,Cow_resp.rt,Garden_resp.keys,Garden_resp.rt
space,8.157,space,4.717,4,12.365,4,10.935,4,70.259,0,0,0,28,1,A28Q3BES5F9FQ3,67,ma_97475929-a_w_outline.jpg,ma_97475929-b_w_outline.jpg,40,male,A28Q3BES5F9FQ3,2020-12-08_17h21.08.601,MetaAwareness,2020.1.2,Win32,60,3087LXLJ6NJRZI4Z74N6ISGXVHK0FO,3I02618YA19MS1339G2X7CDW08GUPM,Y60I5,Y60I5,3I02618YA19MS1339G2X7CDW08GUPM,3I02618YA19MS1339G2X7CDW08GUPM,262735,262735,,,,
,,,,,,,,4,97.128,0,1,1,24,1,A28Q3BES5F9FQ3,63,ma_89354846-a_w_outline.jpg,ma_89354846-b_w_outline.jpg,40,male,A28Q3BES5F9FQ3,2020-12-08_17h21.08.601,MetaAwareness,2020.1.2,Win32,60,3087LXLJ6NJRZI4Z74N6ISGXVHK0FO,3I02618YA19MS1339G2X7CDW08GUPM,Y60I5,Y60I5,3I02618YA19MS1339G2X7CDW08GUPM,3I02618YA19MS1339G2X7CDW08GUPM,262735,262735,,,,
,,,,,,,,4,7.447,0,2,2,1,1,A28Q3BES5F9FQ3,3,ma_1191801-a_w_outline.jpg,ma_1191801-b_w_outline.jpg,40,male,A28Q3BES5F9FQ3,2020-12-08_17h21.08.601,MetaAwareness,2020.1.2,Win32,60,3087LXLJ6NJRZI4Z74N6ISGXVHK0FO,3I02618YA19MS1339G2X7CDW08GUPM,Y60I5,Y60I5,3I02618YA19MS1339G2X7CDW08GUPM,3I02618YA19MS1339G2X7CDW08GUPM,262735,262735,,,,
,,,,,,,,3,4.048,0,3,3,9,1,A28Q3BES5F9FQ3,25,ma_44993860-a_w_outline.jpg,ma_44993860-b_w_outline.jpg,40,male,A28Q3BES5F9FQ3,2020-12-08_17h21.08.601,MetaAwareness,2020.1.2,Win32,60,3087LXLJ6NJRZI4Z74N6ISGXVHK0FO,3I02618YA19MS1339G2X7CDW08GUPM,Y60I5,Y60I5,3I02618YA19MS1339G2X7CDW08GUPM,3I02618YA19MS1339G2X7CDW08GUPM,262735,262735,,,,
,,,,,,,,4,161.379,0,4,4,21,1,A28Q3BES5F9FQ3,59,ma_85741618-a_w_outline.jpg,ma_85741618-b_w_outline.jpg,40,male,A28Q3BES5F9FQ3,2020-12-08_17h21.08.601,MetaAwareness,2020.1.2,Win32,60,3087LXLJ6NJRZI4Z74N6ISGXVHK0FO,3I02618YA19MS1339G2X7CDW08GUPM,Y60I5,Y60I5,3I02618YA19MS1339G2X7CDW08GUPM,3I02618YA19MS1339G2X7CDW08GUPM,262735,262735,,,,
,,,,,,,,4,5.319,0,5,5,29,1,A28Q3BES5F9FQ3,68,ma_98156944-a_w_outline.jpg,ma_98156944-b_w_outline.jpg,40,male,A28Q3BES5F9FQ3,2020-12-08_17h21.08.601,MetaAwareness,2020.1.2,Win32,60,3087LXLJ6NJRZI4Z74N6ISGXVHK0FO,3I02618YA19MS1339G2X7CDW08GUPM,Y60I5,Y60I5,3I02618YA19MS1339G2X7CDW08GUPM,3I02618YA19MS1339G2X7CDW08GUPM,262735,262735,,,,
,,,,,,,,4,10.61,0,6,6,16,1,A28Q3BES5F9FQ3,43,ma_73637203-a_w_outline.jpg,ma_73637203-b_w_outline.jpg,40,male,A28Q3BES5F9FQ3,2020-12-08_17h21.08.601,MetaAwareness,2020.1.2,Win32,60,3087LXLJ6NJRZI4Z74N6ISGXVHK0FO,3I02618YA19MS1339G2X7CDW08GUPM,Y60I5,Y60I5,3I02618YA19MS1339G2X7CDW08GUPM,3I02618YA19MS1339G2X7CDW08GUPM,262735,262735,,,,
,,,,,,,,3,8.6,0,7,7,27,1,A28Q3BES5F9FQ3,66,ma_95091295-a_w_outline.jpg,ma_95091295-b_w_outline.jpg,40,male,A28Q3BES5F9FQ3,2020-12-08_17h21.08.601,MetaAwareness,2020.1.2,Win32,60,3087LXLJ6NJRZI4Z74N6ISGXVHK0FO,3I02618YA19MS1339G2X7CDW08GUPM,Y60I5,Y60I5,3I02618YA19MS1339G2X7CDW08GUPM,3I02618YA19MS1339G2X7CDW08GUPM,262735,262735,,,,
,,,,,,,,3,3.424,0,8,8,3,1,A28Q3BES5F9FQ3,5,ma_12178414-a_w_outline.jpg,ma_12178414-b_w_outline.jpg,40,male,A28Q3BES5F9FQ3,2020-12-08_17h21.08.601,MetaAwareness,2020.1.2,Win32,60,3087LXLJ6NJRZI4Z74N6ISGXVHK0FO,3I02618YA19MS1339G2X7CDW08GUPM,Y60I5,Y60I5,3I02618YA19MS1339G2X7CDW08GUPM,3I02618YA19MS1339G2X7CDW08GUPM,262735,262735,,,,
,,,,,,,,3,5.664,0,9,9,20,1,A28Q3BES5F9FQ3,54,ma_8197559-a_w_outline.jpg,ma_8197559-b_w_outline.jpg,40,male,A28Q3BES5F9FQ3,2020-12-08_17h21.08.601,MetaAwareness,2020.1.2,Win32,60,3087LXLJ6NJRZI4Z74N6ISGXVHK0FO,3I02618YA19MS1339G2X7CDW08GUPM,Y60I5,Y60I5,3I02618YA19MS1339G2X7CDW08GUPM,3I02618YA19MS1339G2X7CDW08GUPM,262735,262735,,,,
,,,,,,,,3,5.498,0,10,10,2,1,A28Q3BES5F9FQ3,4,ma_12115280-a_w_outline.jpg,ma_12115280-b_w_outline.jpg,40,male,A28Q3BES5F9FQ3,2020-12-08_17h21.08.601,MetaAwareness,2020.1.2,Win32,60,3087LXLJ6NJRZI4Z74N6ISGXVHK0FO,3I02618YA19MS1339G2X7CDW08GUPM,Y60I5,Y60I5,3I02618YA19MS1339G2X7CDW08GUPM,3I02618YA19MS1339G2X7CDW08GUPM,262735,262735,,,,
,,,,,,,,3,5.425,0,11,11,25,1,A28Q3BES5F9FQ3,64,ma_8974554-a_w_outline.jpg,ma_8974554-b_w_outline.jpg,40,male,A28Q3BES5F9FQ3,2020-12-08_17h21.08.601,MetaAwareness,2020.1.2,Win32,60,3087LXLJ6NJRZI4Z74N6ISGXVHK0FO,3I02618YA19MS1339G2X7CDW08GUPM,Y60I5,Y60I5,3I02618YA19MS1339G2X7CDW08GUPM,3I02618YA19MS1339G2X7CDW08GUPM,262735,262735,,,,
,,,,,,,,2,4.929,0,12,12,23,1,A28Q3BES5F9FQ3,61,ma_87983207-a_w_outline.jpg,ma_87983207-b_w_outline.jpg,40,male,A28Q3BES5F9FQ3,2020-12-08_17h21.08.601,MetaAwareness,2020.1.2,Win32,60,3087LXLJ6NJRZI4Z74N6ISGXVHK0FO,3I02618YA19MS1339G2X7CDW08GUPM,Y60I5,Y60I5,3I02618YA19MS1339G2X7CDW08GUPM,3I02618YA19MS1339G2X7CDW08GUPM,262735,262735,,,,
,,,,,,,,3,5.839,0,13,13,5,1,A28Q3BES5F9FQ3,13,ma_23024660-a_w_outline.jpg,ma_23024660-b_w_outline.jpg,40,male,A28Q3BES5F9FQ3,2020-12-08_17h21.08.601,MetaAwareness,2020.1.2,Win32,60,3087LXLJ6NJRZI4Z74N6ISGXVHK0FO,3I02618YA19MS1339G2X7CDW08GUPM,Y60I5,Y60I5,3I02618YA19MS1339G2X7CDW08GUPM,3I02618YA19MS1339G2X7CDW08GUPM,262735,262735,,,,
,,,,,,,,3,18.201,0,14,14,6,1,A28Q3BES5F9FQ3,19,ma_31236119-a_w_outline.jpg,ma_31236119-b_w_outline.jpg,40,male,A28Q3BES5F9FQ3,2020-12-08_17h21.08.601,MetaAwareness,2020.1.2,Win32,60,3087LXLJ6NJRZI4Z74N6ISGXVHK0FO,3I02618YA19MS1339G2X7CDW08GUPM,Y60I5,Y60I5,3I02618YA19MS1339G2X7CDW08GUPM,3I02618YA19MS1339G2X7CDW08GUPM,262735,262735,,,,
,,,,,,,,3,4.576,0,15,15,11,1,A28Q3BES5F9FQ3,31,ma_51537628-a_w_outline.jpg,ma_51537628-b_w_outline.jpg,40,male,A28Q3BES5F9FQ3,2020-12-08_17h21.08.601,MetaAwareness,2020.1.2,Win32,60,3087LXLJ6NJRZI4Z74N6ISGXVHK0FO,3I02618YA19MS1339G2X7CDW08GUPM,Y60I5,Y60I5,3I02618YA19MS1339G2X7CDW08GUPM,3I02618YA19MS1339G2X7CDW08GUPM,262735,262735,,,,
,,,,,,,,4,0.025,0,16,16,22,1,A28Q3BES5F9FQ3,60,ma_86520382-a_w_outline.jpg,ma_86520382-b_w_outline.jpg,40,male,A28Q3BES5F9FQ3,2020-12-08_17h21.08.601,MetaAwareness,2020.1.2,Win32,60,3087LXLJ6NJRZI4Z74N6ISGXVHK0FO,3I02618YA19MS1339G2X7CDW08GUPM,Y60I5,Y60I5,3I02618YA19MS1339G2X7CDW08GUPM,3I02618YA19MS1339G2X7CDW08GUPM,262735,262735,,,,
,,,,,,,,3,1.953,0,17,17,26,1,A28Q3BES5F9FQ3,65,ma_90405028-a_w_outline.jpg,ma_90405028-b_w_outline.jpg,40,male,A28Q3BES5F9FQ3,2020-12-08_17h21.08.601,MetaAwareness,2020.1.2,Win32,60,3087LXLJ6NJRZI4Z74N6ISGXVHK0FO,3I02618YA19MS1339G2X7CDW08GUPM,Y60I5,Y60I5,3I02618YA19MS1339G2X7CDW08GUPM,3I02618YA19MS1339G2X7CDW08GUPM,262735,262735,,,,
,,,,,,,,4,0.427,0,18,18,18,1,A28Q3BES5F9FQ3,49,ma_77793328-a_w_outline.jpg,ma_77793328-b_w_outline.jpg,40,male,A28Q3BES5F9FQ3,2020-12-08_17h21.08.601,MetaAwareness,2020.1.2,Win32,60,3087LXLJ6NJRZI4Z74N6ISGXVHK0FO,3I02618YA19MS1339G2X7CDW08GUPM,Y60I5,Y60I5,3I02618YA19MS1339G2X7CDW08GUPM,3I02618YA19MS1339G2X7CDW08GUPM,262735,262735,,,,
,,,,,,,,4,5.557,0,19,19,4,1,A28Q3BES5F9FQ3,12,ma_22020472-a_w_outline.jpg,ma_22020472-b_w_outline.jpg,40,male,A28Q3BES5F9FQ3,2020-12-08_17h21.08.601,MetaAwareness,2020.1.2,Win32,60,3087LXLJ6NJRZI4Z74N6ISGXVHK0FO,3I02618YA19MS1339G2X7CDW08GUPM,Y60I5,Y60I5,3I02618YA19MS1339G2X7CDW08GUPM,3I02618YA19MS1339G2X7CDW08GUPM,262735,262735,,,,
,,,,,,,,3,14.975,0,20,20,14,1,A28Q3BES5F9FQ3,40,ma_69128765-a_w_outline.jpg,ma_69128765-b_w_outline.jpg,40,male,A28Q3BES5F9FQ3,2020-12-08_17h21.08.601,MetaAwareness,2020.1.2,Win32,60,3087LXLJ6NJRZI4Z74N6ISGXVHK0FO,3I02618YA19MS1339G2X7CDW08GUPM,Y60I5,Y60I5,3I02618YA19MS1339G2X7CDW08GUPM,3I02618YA19MS1339G2X7CDW08GUPM,262735,262735,,,,
,,,,,,,,3,8.086,0,21,21,7,1,A28Q3BES5F9FQ3,21,ma_38466626-a_w_outline.jpg,ma_38466626-b_w_outline.jpg,40,male,A28Q3BES5F9FQ3,2020-12-08_17h21.08.601,MetaAwareness,2020.1.2,Win32,60,3087LXLJ6NJRZI4Z74N6ISGXVHK0FO,3I02618YA19MS1339G2X7CDW08GUPM,Y60I5,Y60I5,3I02618YA19MS1339G2X7CDW08GUPM,3I02618YA19MS1339G2X7CDW08GUPM,262735,262735,,,,
,,,,,,,,3,6.469,0,22,22,13,1,A28Q3BES5F9FQ3,36,ma_61118260-a_w_outline.jpg,ma_61118260-b_w_outline.jpg,40,male,A28Q3BES5F9FQ3,2020-12-08_17h21.08.601,MetaAwareness,2020.1.2,Win32,60,3087LXLJ6NJRZI4Z74N6ISGXVHK0FO,3I02618YA19MS1339G2X7CDW08GUPM,Y60I5,Y60I5,3I02618YA19MS1339G2X7CDW08GUPM,3I02618YA19MS1339G2X7CDW08GUPM,262735,262735,,,,
,,,,,,,,5,12.457,0,23,23,15,1,A28Q3BES5F9FQ3,41,ma_70687495-a_w_outline.jpg,ma_70687495-b_w_outline.jpg,40,male,A28Q3BES5F9FQ3,2020-12-08_17h21.08.601,MetaAwareness,2020.1.2,Win32,60,3087LXLJ6NJRZI4Z74N6ISGXVHK0FO,3I02618YA19MS1339G2X7CDW08GUPM,Y60I5,Y60I5,3I02618YA19MS1339G2X7CDW08GUPM,3I02618YA19MS1339G2X7CDW08GUPM,262735,262735,,,,
,,,,,,,,5,51.263,0,24,24,8,1,A28Q3BES5F9FQ3,23,ma_42429798-a_w_outline.jpg,ma_42429798-b_w_outline.jpg,40,male,A28Q3BES5F9FQ3,2020-12-08_17h21.08.601,MetaAwareness,2020.1.2,Win32,60,3087LXLJ6NJRZI4Z74N6ISGXVHK0FO,3I02618YA19MS1339G2X7CDW08GUPM,Y60I5,Y60I5,3I02618YA19MS1339G2X7CDW08GUPM,3I02618YA19MS1339G2X7CDW08GUPM,262735,262735,,,,
,,,,,,,,3,7.779,0,25,25,0,1,A28Q3BES5F9FQ3,1,ma_10504629-a_w_outline.jpg,ma_10504629-b_w_outline.jpg,40,male,A28Q3BES5F9FQ3,2020-12-08_17h21.08.601,MetaAwareness,2020.1.2,Win32,60,3087LXLJ6NJRZI4Z74N6ISGXVHK0FO,3I02618YA19MS1339G2X7CDW08GUPM,Y60I5,Y60I5,3I02618YA19MS1339G2X7CDW08GUPM,3I02618YA19MS1339G2X7CDW08GUPM,262735,262735,,,,
,,,,,,,,4,2.119,0,26,26,10,1,A28Q3BES5F9FQ3,29,ma_48384711-a_w_outline.jpg,ma_48384711-b_w_outline.jpg,40,male,A28Q3BES5F9FQ3,2020-12-08_17h21.08.601,MetaAwareness,2020.1.2,Win32,60,3087LXLJ6NJRZI4Z74N6ISGXVHK0FO,3I02618YA19MS1339G2X7CDW08GUPM,Y60I5,Y60I5,3I02618YA19MS1339G2X7CDW08GUPM,3I02618YA19MS1339G2X7CDW08GUPM,262735,262735,,,,
,,,,,,,,4,2.581,0,27,27,17,1,A28Q3BES5F9FQ3,45,ma_75081153-a_w_outline.jpg,ma_75081153-b_w_outline.jpg,40,male,A28Q3BES5F9FQ3,2020-12-08_17h21.08.601,MetaAwareness,2020.1.2,Win32,60,3087LXLJ6NJRZI4Z74N6ISGXVHK0FO,3I02618YA19MS1339G2X7CDW08GUPM,Y60I5,Y60I5,3I02618YA19MS1339G2X7CDW08GUPM,3I02618YA19MS1339G2X7CDW08GUPM,262735,262735,,,,
,,,,,,,,3,3.393,0,28,28,12,1,A28Q3BES5F9FQ3,33,ma_55174490-a_w_outline.jpg,ma_55174490-b_w_outline.jpg,40,male,A28Q3BES5F9FQ3,2020-12-08_17h21.08.601,MetaAwareness,2020.1.2,Win32,60,3087LXLJ6NJRZI4Z74N6ISGXVHK0FO,3I02618YA19MS1339G2X7CDW08GUPM,Y60I5,Y60I5,3I02618YA19MS1339G2X7CDW08GUPM,3I02618YA19MS1339G2X7CDW08GUPM,262735,262735,,,,
,,,,,,,,4,7.156,0,29,29,19,1,A28Q3BES5F9FQ3,52,ma_79241011-a_w_outline.jpg,ma_79241011-b_w_outline.jpg,40,male,A28Q3BES5F9FQ3,2020-12-08_17h21.08.601,MetaAwareness,2020.1.2,Win32,60,3087LXLJ6NJRZI4Z74N6ISGXVHK0FO,3I02618YA19MS1339G2X7CDW08GUPM,Y60I5,Y60I5,3I02618YA19MS1339G2X7CDW08GUPM,3I02618YA19MS1339G2X7CDW08GUPM,262735,262735,,,,
,,,,,,,,,,,,,,,A28Q3BES5F9FQ3,,,,40,male,A28Q3BES5F9FQ3,2020-12-08_17h21.08.601,MetaAwareness,2020.1.2,Win32,60,3087LXLJ6NJRZI4Z74N6ISGXVHK0FO,3I02618YA19MS1339G2X7CDW08GUPM,Y60I5,Y60I5,3I02618YA19MS1339G2X7CDW08GUPM,3I02618YA19MS1339G2X7CDW08GUPM,262735,262735,5,1.915,3,4.071
