consent_response.keys,consent_response.rt,key_resp_2.keys,key_resp_2.rt,Airplane_resp.keys,Airplane_resp.rt,Boat_resp.keys,Boat_resp.rt,user_resp.keys,user_resp.rt,trials.thisRepN,trials.thisTrialN,trials.thisN,trials.thisIndex,trials.ran,workerId,trial_num,image_a,image_b,age,gender (m/f),worker_ID,date,expName,psychopyVersion,OS,frameRate,hitId,assignmentId,a,tp_a,b,tp_b,c,tp_c,Cow_resp.keys,Cow_resp.rt,Garden_resp.keys,Garden_resp.rt
space,30.851,space,33.686,5,3.786,5,1.607,5,11.002,0,0,0,17,1,A2R75YFKVALBXE,44,ma_74173745-a_w_outline.jpg,ma_74173745-b_w_outline.jpg,70,m,A2R75YFKVALBXE,2020-12-07_17h53.12.440,MetaAwareness,2020.1.2,MacIntel,60,3HXK2V1N4LI49S38XBX2J19OTTD2GG,358UUM7WR065637M90DB2FZRTCK7RW,WU850,WU850,358UUM7WR065637M90DB2FZRTCK7RW,358UUM7WR065637M90DB2FZRTCK7RW,262460,262460,,,,
,,,,,,,,5,3.826,0,1,1,19,1,A2R75YFKVALBXE,48,ma_77574131-a_w_outline.jpg,ma_77574131-b_w_outline.jpg,70,m,A2R75YFKVALBXE,2020-12-07_17h53.12.440,MetaAwareness,2020.1.2,MacIntel,60,3HXK2V1N4LI49S38XBX2J19OTTD2GG,358UUM7WR065637M90DB2FZRTCK7RW,WU850,WU850,358UUM7WR065637M90DB2FZRTCK7RW,358UUM7WR065637M90DB2FZRTCK7RW,262460,262460,,,,
,,,,,,,,5,4.372,0,2,2,0,1,A2R75YFKVALBXE,3,ma_1191801-a_w_outline.jpg,ma_1191801-b_w_outline.jpg,70,m,A2R75YFKVALBXE,2020-12-07_17h53.12.440,MetaAwareness,2020.1.2,MacIntel,60,3HXK2V1N4LI49S38XBX2J19OTTD2GG,358UUM7WR065637M90DB2FZRTCK7RW,WU850,WU850,358UUM7WR065637M90DB2FZRTCK7RW,358UUM7WR065637M90DB2FZRTCK7RW,262460,262460,,,,
,,,,,,,,5,3.589,0,3,3,6,1,A2R75YFKVALBXE,23,ma_42429798-a_w_outline.jpg,ma_42429798-b_w_outline.jpg,70,m,A2R75YFKVALBXE,2020-12-07_17h53.12.440,MetaAwareness,2020.1.2,MacIntel,60,3HXK2V1N4LI49S38XBX2J19OTTD2GG,358UUM7WR065637M90DB2FZRTCK7RW,WU850,WU850,358UUM7WR065637M90DB2FZRTCK7RW,358UUM7WR065637M90DB2FZRTCK7RW,262460,262460,,,,
,,,,,,,,5,4.311,0,4,4,1,1,A2R75YFKVALBXE,7,ma_1383096-a_w_outline.jpg,ma_1383096-b_w_outline.jpg,70,m,A2R75YFKVALBXE,2020-12-07_17h53.12.440,MetaAwareness,2020.1.2,MacIntel,60,3HXK2V1N4LI49S38XBX2J19OTTD2GG,358UUM7WR065637M90DB2FZRTCK7RW,WU850,WU850,358UUM7WR065637M90DB2FZRTCK7RW,358UUM7WR065637M90DB2FZRTCK7RW,262460,262460,,,,
,,,,,,,,3,11.311,0,5,5,22,1,A2R75YFKVALBXE,54,ma_8197559-a_w_outline.jpg,ma_8197559-b_w_outline.jpg,70,m,A2R75YFKVALBXE,2020-12-07_17h53.12.440,MetaAwareness,2020.1.2,MacIntel,60,3HXK2V1N4LI49S38XBX2J19OTTD2GG,358UUM7WR065637M90DB2FZRTCK7RW,WU850,WU850,358UUM7WR065637M90DB2FZRTCK7RW,358UUM7WR065637M90DB2FZRTCK7RW,262460,262460,,,,
,,,,,,,,5,21.478,0,6,6,27,1,A2R75YFKVALBXE,63,ma_89354846-a_w_outline.jpg,ma_89354846-b_w_outline.jpg,70,m,A2R75YFKVALBXE,2020-12-07_17h53.12.440,MetaAwareness,2020.1.2,MacIntel,60,3HXK2V1N4LI49S38XBX2J19OTTD2GG,358UUM7WR065637M90DB2FZRTCK7RW,WU850,WU850,358UUM7WR065637M90DB2FZRTCK7RW,358UUM7WR065637M90DB2FZRTCK7RW,262460,262460,,,,
,,,,,,,,3,11.115,0,7,7,25,1,A2R75YFKVALBXE,60,ma_86520382-a_w_outline.jpg,ma_86520382-b_w_outline.jpg,70,m,A2R75YFKVALBXE,2020-12-07_17h53.12.440,MetaAwareness,2020.1.2,MacIntel,60,3HXK2V1N4LI49S38XBX2J19OTTD2GG,358UUM7WR065637M90DB2FZRTCK7RW,WU850,WU850,358UUM7WR065637M90DB2FZRTCK7RW,358UUM7WR065637M90DB2FZRTCK7RW,262460,262460,,,,
,,,,,,,,3,13.285,0,8,8,11,1,A2R75YFKVALBXE,30,ma_48486405-a_w_outline.jpg,ma_48486405-b_w_outline.jpg,70,m,A2R75YFKVALBXE,2020-12-07_17h53.12.440,MetaAwareness,2020.1.2,MacIntel,60,3HXK2V1N4LI49S38XBX2J19OTTD2GG,358UUM7WR065637M90DB2FZRTCK7RW,WU850,WU850,358UUM7WR065637M90DB2FZRTCK7RW,358UUM7WR065637M90DB2FZRTCK7RW,262460,262460,,,,
,,,,,,,,4,5.305,0,9,9,14,1,A2R75YFKVALBXE,40,ma_69128765-a_w_outline.jpg,ma_69128765-b_w_outline.jpg,70,m,A2R75YFKVALBXE,2020-12-07_17h53.12.440,MetaAwareness,2020.1.2,MacIntel,60,3HXK2V1N4LI49S38XBX2J19OTTD2GG,358UUM7WR065637M90DB2FZRTCK7RW,WU850,WU850,358UUM7WR065637M90DB2FZRTCK7RW,358UUM7WR065637M90DB2FZRTCK7RW,262460,262460,,,,
,,,,,,,,5,4.288,0,10,10,10,1,A2R75YFKVALBXE,29,ma_48384711-a_w_outline.jpg,ma_48384711-b_w_outline.jpg,70,m,A2R75YFKVALBXE,2020-12-07_17h53.12.440,MetaAwareness,2020.1.2,MacIntel,60,3HXK2V1N4LI49S38XBX2J19OTTD2GG,358UUM7WR065637M90DB2FZRTCK7RW,WU850,WU850,358UUM7WR065637M90DB2FZRTCK7RW,358UUM7WR065637M90DB2FZRTCK7RW,262460,262460,,,,
,,,,,,,,4,5.873,0,11,11,28,1,A2R75YFKVALBXE,68,ma_98156944-a_w_outline.jpg,ma_98156944-b_w_outline.jpg,70,m,A2R75YFKVALBXE,2020-12-07_17h53.12.440,MetaAwareness,2020.1.2,MacIntel,60,3HXK2V1N4LI49S38XBX2J19OTTD2GG,358UUM7WR065637M90DB2FZRTCK7RW,WU850,WU850,358UUM7WR065637M90DB2FZRTCK7RW,358UUM7WR065637M90DB2FZRTCK7RW,262460,262460,,,,
,,,,,,,,4,6.956,0,12,12,29,1,A2R75YFKVALBXE,69,ma_98265889-a_w_outline.jpg,ma_98265889-b_w_outline.jpg,70,m,A2R75YFKVALBXE,2020-12-07_17h53.12.440,MetaAwareness,2020.1.2,MacIntel,60,3HXK2V1N4LI49S38XBX2J19OTTD2GG,358UUM7WR065637M90DB2FZRTCK7RW,WU850,WU850,358UUM7WR065637M90DB2FZRTCK7RW,358UUM7WR065637M90DB2FZRTCK7RW,262460,262460,,,,
,,,,,,,,5,3.688,0,13,13,24,1,A2R75YFKVALBXE,58,ma_83785171-a_w_outline.jpg,ma_83785171-b_w_outline.jpg,70,m,A2R75YFKVALBXE,2020-12-07_17h53.12.440,MetaAwareness,2020.1.2,MacIntel,60,3HXK2V1N4LI49S38XBX2J19OTTD2GG,358UUM7WR065637M90DB2FZRTCK7RW,WU850,WU850,358UUM7WR065637M90DB2FZRTCK7RW,358UUM7WR065637M90DB2FZRTCK7RW,262460,262460,,,,
,,,,,,,,5,3.671,0,14,14,15,1,A2R75YFKVALBXE,41,ma_70687495-a_w_outline.jpg,ma_70687495-b_w_outline.jpg,70,m,A2R75YFKVALBXE,2020-12-07_17h53.12.440,MetaAwareness,2020.1.2,MacIntel,60,3HXK2V1N4LI49S38XBX2J19OTTD2GG,358UUM7WR065637M90DB2FZRTCK7RW,WU850,WU850,358UUM7WR065637M90DB2FZRTCK7RW,358UUM7WR065637M90DB2FZRTCK7RW,262460,262460,,,,
,,,,,,,,3,7.866,0,15,15,3,1,A2R75YFKVALBXE,11,ma_18345691-a_w_outline.jpg,ma_18345691-b_w_outline.jpg,70,m,A2R75YFKVALBXE,2020-12-07_17h53.12.440,MetaAwareness,2020.1.2,MacIntel,60,3HXK2V1N4LI49S38XBX2J19OTTD2GG,358UUM7WR065637M90DB2FZRTCK7RW,WU850,WU850,358UUM7WR065637M90DB2FZRTCK7RW,358UUM7WR065637M90DB2FZRTCK7RW,262460,262460,,,,
,,,,,,,,5,8.457,0,16,16,21,1,A2R75YFKVALBXE,52,ma_79241011-a_w_outline.jpg,ma_79241011-b_w_outline.jpg,70,m,A2R75YFKVALBXE,2020-12-07_17h53.12.440,MetaAwareness,2020.1.2,MacIntel,60,3HXK2V1N4LI49S38XBX2J19OTTD2GG,358UUM7WR065637M90DB2FZRTCK7RW,WU850,WU850,358UUM7WR065637M90DB2FZRTCK7RW,358UUM7WR065637M90DB2FZRTCK7RW,262460,262460,,,,
,,,,,,,,5,5.637,0,17,17,9,1,A2R75YFKVALBXE,28,ma_46635293-a_w_outline.jpg,ma_46635293-b_w_outline.jpg,70,m,A2R75YFKVALBXE,2020-12-07_17h53.12.440,MetaAwareness,2020.1.2,MacIntel,60,3HXK2V1N4LI49S38XBX2J19OTTD2GG,358UUM7WR065637M90DB2FZRTCK7RW,WU850,WU850,358UUM7WR065637M90DB2FZRTCK7RW,358UUM7WR065637M90DB2FZRTCK7RW,262460,262460,,,,
,,,,,,,,4,4.176,0,18,18,4,1,A2R75YFKVALBXE,16,ma_25107991-a_w_outline.jpg,ma_25107991-b_w_outline.jpg,70,m,A2R75YFKVALBXE,2020-12-07_17h53.12.440,MetaAwareness,2020.1.2,MacIntel,60,3HXK2V1N4LI49S38XBX2J19OTTD2GG,358UUM7WR065637M90DB2FZRTCK7RW,WU850,WU850,358UUM7WR065637M90DB2FZRTCK7RW,358UUM7WR065637M90DB2FZRTCK7RW,262460,262460,,,,
,,,,,,,,5,5.361,0,19,19,13,1,A2R75YFKVALBXE,39,ma_67862299-a_w_outline.jpg,ma_67862299-b_w_outline.jpg,70,m,A2R75YFKVALBXE,2020-12-07_17h53.12.440,MetaAwareness,2020.1.2,MacIntel,60,3HXK2V1N4LI49S38XBX2J19OTTD2GG,358UUM7WR065637M90DB2FZRTCK7RW,WU850,WU850,358UUM7WR065637M90DB2FZRTCK7RW,358UUM7WR065637M90DB2FZRTCK7RW,262460,262460,,,,
,,,,,,,,5,4.222,0,20,20,26,1,A2R75YFKVALBXE,61,ma_87983207-a_w_outline.jpg,ma_87983207-b_w_outline.jpg,70,m,A2R75YFKVALBXE,2020-12-07_17h53.12.440,MetaAwareness,2020.1.2,MacIntel,60,3HXK2V1N4LI49S38XBX2J19OTTD2GG,358UUM7WR065637M90DB2FZRTCK7RW,WU850,WU850,358UUM7WR065637M90DB2FZRTCK7RW,358UUM7WR065637M90DB2FZRTCK7RW,262460,262460,,,,
,,,,,,,,3,6.346,0,21,21,18,1,A2R75YFKVALBXE,46,ma_75958241-a_w_outline.jpg,ma_75958241-b_w_outline.jpg,70,m,A2R75YFKVALBXE,2020-12-07_17h53.12.440,MetaAwareness,2020.1.2,MacIntel,60,3HXK2V1N4LI49S38XBX2J19OTTD2GG,358UUM7WR065637M90DB2FZRTCK7RW,WU850,WU850,358UUM7WR065637M90DB2FZRTCK7RW,358UUM7WR065637M90DB2FZRTCK7RW,262460,262460,,,,
,,,,,,,,5,3.904,0,22,22,23,1,A2R75YFKVALBXE,56,ma_83536470-a_w_outline.jpg,ma_83536470-b_w_outline.jpg,70,m,A2R75YFKVALBXE,2020-12-07_17h53.12.440,MetaAwareness,2020.1.2,MacIntel,60,3HXK2V1N4LI49S38XBX2J19OTTD2GG,358UUM7WR065637M90DB2FZRTCK7RW,WU850,WU850,358UUM7WR065637M90DB2FZRTCK7RW,358UUM7WR065637M90DB2FZRTCK7RW,262460,262460,,,,
,,,,,,,,5,9.748,0,23,23,12,1,A2R75YFKVALBXE,33,ma_55174490-a_w_outline.jpg,ma_55174490-b_w_outline.jpg,70,m,A2R75YFKVALBXE,2020-12-07_17h53.12.440,MetaAwareness,2020.1.2,MacIntel,60,3HXK2V1N4LI49S38XBX2J19OTTD2GG,358UUM7WR065637M90DB2FZRTCK7RW,WU850,WU850,358UUM7WR065637M90DB2FZRTCK7RW,358UUM7WR065637M90DB2FZRTCK7RW,262460,262460,,,,
,,,,,,,,2,6.454,0,24,24,7,1,A2R75YFKVALBXE,25,ma_44993860-a_w_outline.jpg,ma_44993860-b_w_outline.jpg,70,m,A2R75YFKVALBXE,2020-12-07_17h53.12.440,MetaAwareness,2020.1.2,MacIntel,60,3HXK2V1N4LI49S38XBX2J19OTTD2GG,358UUM7WR065637M90DB2FZRTCK7RW,WU850,WU850,358UUM7WR065637M90DB2FZRTCK7RW,358UUM7WR065637M90DB2FZRTCK7RW,262460,262460,,,,
,,,,,,,,5,4.072,0,25,25,20,1,A2R75YFKVALBXE,49,ma_77793328-a_w_outline.jpg,ma_77793328-b_w_outline.jpg,70,m,A2R75YFKVALBXE,2020-12-07_17h53.12.440,MetaAwareness,2020.1.2,MacIntel,60,3HXK2V1N4LI49S38XBX2J19OTTD2GG,358UUM7WR065637M90DB2FZRTCK7RW,WU850,WU850,358UUM7WR065637M90DB2FZRTCK7RW,358UUM7WR065637M90DB2FZRTCK7RW,262460,262460,,,,
,,,,,,,,4,11.824,0,26,26,2,1,A2R75YFKVALBXE,9,ma_16527526-a_w_outline.jpg,ma_16527526-b_w_outline.jpg,70,m,A2R75YFKVALBXE,2020-12-07_17h53.12.440,MetaAwareness,2020.1.2,MacIntel,60,3HXK2V1N4LI49S38XBX2J19OTTD2GG,358UUM7WR065637M90DB2FZRTCK7RW,WU850,WU850,358UUM7WR065637M90DB2FZRTCK7RW,358UUM7WR065637M90DB2FZRTCK7RW,262460,262460,,,,
,,,,,,,,3,9.538,0,27,27,8,1,A2R75YFKVALBXE,27,ma_46475259-a_w_outline.jpg,ma_46475259-b_w_outline.jpg,70,m,A2R75YFKVALBXE,2020-12-07_17h53.12.440,MetaAwareness,2020.1.2,MacIntel,60,3HXK2V1N4LI49S38XBX2J19OTTD2GG,358UUM7WR065637M90DB2FZRTCK7RW,WU850,WU850,358UUM7WR065637M90DB2FZRTCK7RW,358UUM7WR065637M90DB2FZRTCK7RW,262460,262460,,,,
,,,,,,,,3,5.328,0,28,28,16,1,A2R75YFKVALBXE,42,ma_72488522-a_w_outline.jpg,ma_72488522-b_w_outline.jpg,70,m,A2R75YFKVALBXE,2020-12-07_17h53.12.440,MetaAwareness,2020.1.2,MacIntel,60,3HXK2V1N4LI49S38XBX2J19OTTD2GG,358UUM7WR065637M90DB2FZRTCK7RW,WU850,WU850,358UUM7WR065637M90DB2FZRTCK7RW,358UUM7WR065637M90DB2FZRTCK7RW,262460,262460,,,,
,,,,,,,,5,4.977,0,29,29,5,1,A2R75YFKVALBXE,17,ma_27857618-a_w_outline.jpg,ma_27857618-b_w_outline.jpg,70,m,A2R75YFKVALBXE,2020-12-07_17h53.12.440,MetaAwareness,2020.1.2,MacIntel,60,3HXK2V1N4LI49S38XBX2J19OTTD2GG,358UUM7WR065637M90DB2FZRTCK7RW,WU850,WU850,358UUM7WR065637M90DB2FZRTCK7RW,358UUM7WR065637M90DB2FZRTCK7RW,262460,262460,,,,
,,,,,,,,,,,,,,,A2R75YFKVALBXE,,,,70,m,A2R75YFKVALBXE,2020-12-07_17h53.12.440,MetaAwareness,2020.1.2,MacIntel,60,3HXK2V1N4LI49S38XBX2J19OTTD2GG,358UUM7WR065637M90DB2FZRTCK7RW,WU850,WU850,358UUM7WR065637M90DB2FZRTCK7RW,358UUM7WR065637M90DB2FZRTCK7RW,262460,262460,5,1.657,2,11.844
