consent_response.keys,consent_response.rt,key_resp_2.keys,key_resp_2.rt,Airplane_resp.keys,Airplane_resp.rt,Boat_resp.keys,Boat_resp.rt,user_resp.keys,user_resp.rt,trials.thisRepN,trials.thisTrialN,trials.thisN,trials.thisIndex,trials.ran,workerId,trial_num,image_a,image_b,age,gender (m/f),worker_ID,date,expName,psychopyVersion,OS,frameRate,hitId,assignmentId,a,tp_a,b,tp_b,c,tp_c,Cow_resp.keys,Cow_resp.rt,Garden_resp.keys,Garden_resp.rt
space,15.77,space,45.366,5,5.105,5,3.977,5,8.064,0,0,0,27,1,A2TLN8489YGY81,62,ma_88767165-a_w_outline.jpg,ma_88767165-b_w_outline.jpg,33,m,A2TLN8489YGY81,2020-12-08_17h54.48.877,MetaAwareness,2020.1.2,Win32,60,3LAZVA75NJUS15K6LUAAOAIQKGVO2I,3RXCAC0YISSIHR3R3UB5HBHF2Q48GJ,YAXR5,YAXR5,3RXCAC0YISSIHR3R3UB5HBHF2Q48GJ,3RXCAC0YISSIHR3R3UB5HBHF2Q48GJ,262735,262735,,,,
,,,,,,,,4,8.322,0,1,1,24,1,A2TLN8489YGY81,55,ma_81993755-a_w_outline.jpg,ma_81993755-b_w_outline.jpg,33,m,A2TLN8489YGY81,2020-12-08_17h54.48.877,MetaAwareness,2020.1.2,Win32,60,3LAZVA75NJUS15K6LUAAOAIQKGVO2I,3RXCAC0YISSIHR3R3UB5HBHF2Q48GJ,YAXR5,YAXR5,3RXCAC0YISSIHR3R3UB5HBHF2Q48GJ,3RXCAC0YISSIHR3R3UB5HBHF2Q48GJ,262735,262735,,,,
,,,,,,,,5,8.33,0,2,2,11,1,A2TLN8489YGY81,24,ma_4247084-a_w_outline.jpg,ma_4247084-b_w_outline.jpg,33,m,A2TLN8489YGY81,2020-12-08_17h54.48.877,MetaAwareness,2020.1.2,Win32,60,3LAZVA75NJUS15K6LUAAOAIQKGVO2I,3RXCAC0YISSIHR3R3UB5HBHF2Q48GJ,YAXR5,YAXR5,3RXCAC0YISSIHR3R3UB5HBHF2Q48GJ,3RXCAC0YISSIHR3R3UB5HBHF2Q48GJ,262735,262735,,,,
,,,,,,,,5,2.86,0,3,3,17,1,A2TLN8489YGY81,35,ma_57861456-a_w_outline.jpg,ma_57861456-b_w_outline.jpg,33,m,A2TLN8489YGY81,2020-12-08_17h54.48.877,MetaAwareness,2020.1.2,Win32,60,3LAZVA75NJUS15K6LUAAOAIQKGVO2I,3RXCAC0YISSIHR3R3UB5HBHF2Q48GJ,YAXR5,YAXR5,3RXCAC0YISSIHR3R3UB5HBHF2Q48GJ,3RXCAC0YISSIHR3R3UB5HBHF2Q48GJ,262735,262735,,,,
,,,,,,,,1,20.441,0,4,4,23,1,A2TLN8489YGY81,49,ma_77793328-a_w_outline.jpg,ma_77793328-b_w_outline.jpg,33,m,A2TLN8489YGY81,2020-12-08_17h54.48.877,MetaAwareness,2020.1.2,Win32,60,3LAZVA75NJUS15K6LUAAOAIQKGVO2I,3RXCAC0YISSIHR3R3UB5HBHF2Q48GJ,YAXR5,YAXR5,3RXCAC0YISSIHR3R3UB5HBHF2Q48GJ,3RXCAC0YISSIHR3R3UB5HBHF2Q48GJ,262735,262735,,,,
,,,,,,,,5,8.656,0,5,5,28,1,A2TLN8489YGY81,66,ma_95091295-a_w_outline.jpg,ma_95091295-b_w_outline.jpg,33,m,A2TLN8489YGY81,2020-12-08_17h54.48.877,MetaAwareness,2020.1.2,Win32,60,3LAZVA75NJUS15K6LUAAOAIQKGVO2I,3RXCAC0YISSIHR3R3UB5HBHF2Q48GJ,YAXR5,YAXR5,3RXCAC0YISSIHR3R3UB5HBHF2Q48GJ,3RXCAC0YISSIHR3R3UB5HBHF2Q48GJ,262735,262735,,,,
,,,,,,,,5,11.575,0,6,6,0,1,A2TLN8489YGY81,2,ma_10810329-a_w_outline.jpg,ma_10810329-b_w_outline.jpg,33,m,A2TLN8489YGY81,2020-12-08_17h54.48.877,MetaAwareness,2020.1.2,Win32,60,3LAZVA75NJUS15K6LUAAOAIQKGVO2I,3RXCAC0YISSIHR3R3UB5HBHF2Q48GJ,YAXR5,YAXR5,3RXCAC0YISSIHR3R3UB5HBHF2Q48GJ,3RXCAC0YISSIHR3R3UB5HBHF2Q48GJ,262735,262735,,,,
,,,,,,,,5,4.112,0,7,7,16,1,A2TLN8489YGY81,34,ma_56835136-a_w_outline.jpg,ma_56835136-b_w_outline.jpg,33,m,A2TLN8489YGY81,2020-12-08_17h54.48.877,MetaAwareness,2020.1.2,Win32,60,3LAZVA75NJUS15K6LUAAOAIQKGVO2I,3RXCAC0YISSIHR3R3UB5HBHF2Q48GJ,YAXR5,YAXR5,3RXCAC0YISSIHR3R3UB5HBHF2Q48GJ,3RXCAC0YISSIHR3R3UB5HBHF2Q48GJ,262735,262735,,,,
,,,,,,,,5,3.072,0,8,8,7,1,A2TLN8489YGY81,17,ma_27857618-a_w_outline.jpg,ma_27857618-b_w_outline.jpg,33,m,A2TLN8489YGY81,2020-12-08_17h54.48.877,MetaAwareness,2020.1.2,Win32,60,3LAZVA75NJUS15K6LUAAOAIQKGVO2I,3RXCAC0YISSIHR3R3UB5HBHF2Q48GJ,YAXR5,YAXR5,3RXCAC0YISSIHR3R3UB5HBHF2Q48GJ,3RXCAC0YISSIHR3R3UB5HBHF2Q48GJ,262735,262735,,,,
,,,,,,,,5,8.308,0,9,9,12,1,A2TLN8489YGY81,30,ma_48486405-a_w_outline.jpg,ma_48486405-b_w_outline.jpg,33,m,A2TLN8489YGY81,2020-12-08_17h54.48.877,MetaAwareness,2020.1.2,Win32,60,3LAZVA75NJUS15K6LUAAOAIQKGVO2I,3RXCAC0YISSIHR3R3UB5HBHF2Q48GJ,YAXR5,YAXR5,3RXCAC0YISSIHR3R3UB5HBHF2Q48GJ,3RXCAC0YISSIHR3R3UB5HBHF2Q48GJ,262735,262735,,,,
,,,,,,,,4,7.193,0,10,10,6,1,A2TLN8489YGY81,14,ma_23199105-a_w_outline.jpg,ma_23199105-b_w_outline.jpg,33,m,A2TLN8489YGY81,2020-12-08_17h54.48.877,MetaAwareness,2020.1.2,Win32,60,3LAZVA75NJUS15K6LUAAOAIQKGVO2I,3RXCAC0YISSIHR3R3UB5HBHF2Q48GJ,YAXR5,YAXR5,3RXCAC0YISSIHR3R3UB5HBHF2Q48GJ,3RXCAC0YISSIHR3R3UB5HBHF2Q48GJ,262735,262735,,,,
,,,,,,,,5,3.206,0,11,11,3,1,A2TLN8489YGY81,7,ma_1383096-a_w_outline.jpg,ma_1383096-b_w_outline.jpg,33,m,A2TLN8489YGY81,2020-12-08_17h54.48.877,MetaAwareness,2020.1.2,Win32,60,3LAZVA75NJUS15K6LUAAOAIQKGVO2I,3RXCAC0YISSIHR3R3UB5HBHF2Q48GJ,YAXR5,YAXR5,3RXCAC0YISSIHR3R3UB5HBHF2Q48GJ,3RXCAC0YISSIHR3R3UB5HBHF2Q48GJ,262735,262735,,,,
,,,,,,,,5,13.999,0,12,12,22,1,A2TLN8489YGY81,47,ma_77345858-a_w_outline.jpg,ma_77345858-b_w_outline.jpg,33,m,A2TLN8489YGY81,2020-12-08_17h54.48.877,MetaAwareness,2020.1.2,Win32,60,3LAZVA75NJUS15K6LUAAOAIQKGVO2I,3RXCAC0YISSIHR3R3UB5HBHF2Q48GJ,YAXR5,YAXR5,3RXCAC0YISSIHR3R3UB5HBHF2Q48GJ,3RXCAC0YISSIHR3R3UB5HBHF2Q48GJ,262735,262735,,,,
,,,,,,,,5,3.773,0,13,13,18,1,A2TLN8489YGY81,39,ma_67862299-a_w_outline.jpg,ma_67862299-b_w_outline.jpg,33,m,A2TLN8489YGY81,2020-12-08_17h54.48.877,MetaAwareness,2020.1.2,Win32,60,3LAZVA75NJUS15K6LUAAOAIQKGVO2I,3RXCAC0YISSIHR3R3UB5HBHF2Q48GJ,YAXR5,YAXR5,3RXCAC0YISSIHR3R3UB5HBHF2Q48GJ,3RXCAC0YISSIHR3R3UB5HBHF2Q48GJ,262735,262735,,,,
,,,,,,,,4,7.394,0,14,14,4,1,A2TLN8489YGY81,9,ma_16527526-a_w_outline.jpg,ma_16527526-b_w_outline.jpg,33,m,A2TLN8489YGY81,2020-12-08_17h54.48.877,MetaAwareness,2020.1.2,Win32,60,3LAZVA75NJUS15K6LUAAOAIQKGVO2I,3RXCAC0YISSIHR3R3UB5HBHF2Q48GJ,YAXR5,YAXR5,3RXCAC0YISSIHR3R3UB5HBHF2Q48GJ,3RXCAC0YISSIHR3R3UB5HBHF2Q48GJ,262735,262735,,,,
,,,,,,,,2,11.975,0,15,15,9,1,A2TLN8489YGY81,22,ma_38546029-a_w_outline.jpg,ma_38546029-b_w_outline.jpg,33,m,A2TLN8489YGY81,2020-12-08_17h54.48.877,MetaAwareness,2020.1.2,Win32,60,3LAZVA75NJUS15K6LUAAOAIQKGVO2I,3RXCAC0YISSIHR3R3UB5HBHF2Q48GJ,YAXR5,YAXR5,3RXCAC0YISSIHR3R3UB5HBHF2Q48GJ,3RXCAC0YISSIHR3R3UB5HBHF2Q48GJ,262735,262735,,,,
,,,,,,,,5,9.106,0,16,16,2,1,A2TLN8489YGY81,5,ma_12178414-a_w_outline.jpg,ma_12178414-b_w_outline.jpg,33,m,A2TLN8489YGY81,2020-12-08_17h54.48.877,MetaAwareness,2020.1.2,Win32,60,3LAZVA75NJUS15K6LUAAOAIQKGVO2I,3RXCAC0YISSIHR3R3UB5HBHF2Q48GJ,YAXR5,YAXR5,3RXCAC0YISSIHR3R3UB5HBHF2Q48GJ,3RXCAC0YISSIHR3R3UB5HBHF2Q48GJ,262735,262735,,,,
,,,,,,,,5,7.123,0,17,17,14,1,A2TLN8489YGY81,32,ma_51856108-a_w_outline.jpg,ma_51856108-b_w_outline.jpg,33,m,A2TLN8489YGY81,2020-12-08_17h54.48.877,MetaAwareness,2020.1.2,Win32,60,3LAZVA75NJUS15K6LUAAOAIQKGVO2I,3RXCAC0YISSIHR3R3UB5HBHF2Q48GJ,YAXR5,YAXR5,3RXCAC0YISSIHR3R3UB5HBHF2Q48GJ,3RXCAC0YISSIHR3R3UB5HBHF2Q48GJ,262735,262735,,,,
,,,,,,,,4,7.998,0,18,18,13,1,A2TLN8489YGY81,31,ma_51537628-a_w_outline.jpg,ma_51537628-b_w_outline.jpg,33,m,A2TLN8489YGY81,2020-12-08_17h54.48.877,MetaAwareness,2020.1.2,Win32,60,3LAZVA75NJUS15K6LUAAOAIQKGVO2I,3RXCAC0YISSIHR3R3UB5HBHF2Q48GJ,YAXR5,YAXR5,3RXCAC0YISSIHR3R3UB5HBHF2Q48GJ,3RXCAC0YISSIHR3R3UB5HBHF2Q48GJ,262735,262735,,,,
,,,,,,,,5,2.993,0,19,19,15,1,A2TLN8489YGY81,33,ma_55174490-a_w_outline.jpg,ma_55174490-b_w_outline.jpg,33,m,A2TLN8489YGY81,2020-12-08_17h54.48.877,MetaAwareness,2020.1.2,Win32,60,3LAZVA75NJUS15K6LUAAOAIQKGVO2I,3RXCAC0YISSIHR3R3UB5HBHF2Q48GJ,YAXR5,YAXR5,3RXCAC0YISSIHR3R3UB5HBHF2Q48GJ,3RXCAC0YISSIHR3R3UB5HBHF2Q48GJ,262735,262735,,,,
,,,,,,,,5,2.696,0,20,20,10,1,A2TLN8489YGY81,23,ma_42429798-a_w_outline.jpg,ma_42429798-b_w_outline.jpg,33,m,A2TLN8489YGY81,2020-12-08_17h54.48.877,MetaAwareness,2020.1.2,Win32,60,3LAZVA75NJUS15K6LUAAOAIQKGVO2I,3RXCAC0YISSIHR3R3UB5HBHF2Q48GJ,YAXR5,YAXR5,3RXCAC0YISSIHR3R3UB5HBHF2Q48GJ,3RXCAC0YISSIHR3R3UB5HBHF2Q48GJ,262735,262735,,,,
,,,,,,,,1,12.691,0,21,21,25,1,A2TLN8489YGY81,59,ma_85741618-a_w_outline.jpg,ma_85741618-b_w_outline.jpg,33,m,A2TLN8489YGY81,2020-12-08_17h54.48.877,MetaAwareness,2020.1.2,Win32,60,3LAZVA75NJUS15K6LUAAOAIQKGVO2I,3RXCAC0YISSIHR3R3UB5HBHF2Q48GJ,YAXR5,YAXR5,3RXCAC0YISSIHR3R3UB5HBHF2Q48GJ,3RXCAC0YISSIHR3R3UB5HBHF2Q48GJ,262735,262735,,,,
,,,,,,,,4,7.229,0,22,22,8,1,A2TLN8489YGY81,19,ma_31236119-a_w_outline.jpg,ma_31236119-b_w_outline.jpg,33,m,A2TLN8489YGY81,2020-12-08_17h54.48.877,MetaAwareness,2020.1.2,Win32,60,3LAZVA75NJUS15K6LUAAOAIQKGVO2I,3RXCAC0YISSIHR3R3UB5HBHF2Q48GJ,YAXR5,YAXR5,3RXCAC0YISSIHR3R3UB5HBHF2Q48GJ,3RXCAC0YISSIHR3R3UB5HBHF2Q48GJ,262735,262735,,,,
,,,,,,,,5,2.813,0,23,23,21,1,A2TLN8489YGY81,45,ma_75081153-a_w_outline.jpg,ma_75081153-b_w_outline.jpg,33,m,A2TLN8489YGY81,2020-12-08_17h54.48.877,MetaAwareness,2020.1.2,Win32,60,3LAZVA75NJUS15K6LUAAOAIQKGVO2I,3RXCAC0YISSIHR3R3UB5HBHF2Q48GJ,YAXR5,YAXR5,3RXCAC0YISSIHR3R3UB5HBHF2Q48GJ,3RXCAC0YISSIHR3R3UB5HBHF2Q48GJ,262735,262735,,,,
,,,,,,,,5,8.606,0,24,24,20,1,A2TLN8489YGY81,44,ma_74173745-a_w_outline.jpg,ma_74173745-b_w_outline.jpg,33,m,A2TLN8489YGY81,2020-12-08_17h54.48.877,MetaAwareness,2020.1.2,Win32,60,3LAZVA75NJUS15K6LUAAOAIQKGVO2I,3RXCAC0YISSIHR3R3UB5HBHF2Q48GJ,YAXR5,YAXR5,3RXCAC0YISSIHR3R3UB5HBHF2Q48GJ,3RXCAC0YISSIHR3R3UB5HBHF2Q48GJ,262735,262735,,,,
,,,,,,,,5,5.772,0,25,25,19,1,A2TLN8489YGY81,41,ma_70687495-a_w_outline.jpg,ma_70687495-b_w_outline.jpg,33,m,A2TLN8489YGY81,2020-12-08_17h54.48.877,MetaAwareness,2020.1.2,Win32,60,3LAZVA75NJUS15K6LUAAOAIQKGVO2I,3RXCAC0YISSIHR3R3UB5HBHF2Q48GJ,YAXR5,YAXR5,3RXCAC0YISSIHR3R3UB5HBHF2Q48GJ,3RXCAC0YISSIHR3R3UB5HBHF2Q48GJ,262735,262735,,,,
,,,,,,,,5,7.211,0,26,26,29,1,A2TLN8489YGY81,68,ma_98156944-a_w_outline.jpg,ma_98156944-b_w_outline.jpg,33,m,A2TLN8489YGY81,2020-12-08_17h54.48.877,MetaAwareness,2020.1.2,Win32,60,3LAZVA75NJUS15K6LUAAOAIQKGVO2I,3RXCAC0YISSIHR3R3UB5HBHF2Q48GJ,YAXR5,YAXR5,3RXCAC0YISSIHR3R3UB5HBHF2Q48GJ,3RXCAC0YISSIHR3R3UB5HBHF2Q48GJ,262735,262735,,,,
,,,,,,,,3,11.308,0,27,27,1,1,A2TLN8489YGY81,4,ma_12115280-a_w_outline.jpg,ma_12115280-b_w_outline.jpg,33,m,A2TLN8489YGY81,2020-12-08_17h54.48.877,MetaAwareness,2020.1.2,Win32,60,3LAZVA75NJUS15K6LUAAOAIQKGVO2I,3RXCAC0YISSIHR3R3UB5HBHF2Q48GJ,YAXR5,YAXR5,3RXCAC0YISSIHR3R3UB5HBHF2Q48GJ,3RXCAC0YISSIHR3R3UB5HBHF2Q48GJ,262735,262735,,,,
,,,,,,,,5,4.995,0,28,28,5,1,A2TLN8489YGY81,12,ma_22020472-a_w_outline.jpg,ma_22020472-b_w_outline.jpg,33,m,A2TLN8489YGY81,2020-12-08_17h54.48.877,MetaAwareness,2020.1.2,Win32,60,3LAZVA75NJUS15K6LUAAOAIQKGVO2I,3RXCAC0YISSIHR3R3UB5HBHF2Q48GJ,YAXR5,YAXR5,3RXCAC0YISSIHR3R3UB5HBHF2Q48GJ,3RXCAC0YISSIHR3R3UB5HBHF2Q48GJ,262735,262735,,,,
,,,,,,,,5,9.506,0,29,29,26,1,A2TLN8489YGY81,61,ma_87983207-a_w_outline.jpg,ma_87983207-b_w_outline.jpg,33,m,A2TLN8489YGY81,2020-12-08_17h54.48.877,MetaAwareness,2020.1.2,Win32,60,3LAZVA75NJUS15K6LUAAOAIQKGVO2I,3RXCAC0YISSIHR3R3UB5HBHF2Q48GJ,YAXR5,YAXR5,3RXCAC0YISSIHR3R3UB5HBHF2Q48GJ,3RXCAC0YISSIHR3R3UB5HBHF2Q48GJ,262735,262735,,,,
,,,,,,,,,,,,,,,A2TLN8489YGY81,,,,33,m,A2TLN8489YGY81,2020-12-08_17h54.48.877,MetaAwareness,2020.1.2,Win32,60,3LAZVA75NJUS15K6LUAAOAIQKGVO2I,3RXCAC0YISSIHR3R3UB5HBHF2Q48GJ,YAXR5,YAXR5,3RXCAC0YISSIHR3R3UB5HBHF2Q48GJ,3RXCAC0YISSIHR3R3UB5HBHF2Q48GJ,262735,262735,5,0.849,2,8.05
