consent_response.keys,consent_response.rt,key_resp_2.keys,key_resp_2.rt,Airplane_resp.keys,Airplane_resp.rt,Boat_resp.keys,Boat_resp.rt,user_resp.keys,user_resp.rt,trials.thisRepN,trials.thisTrialN,trials.thisN,trials.thisIndex,trials.ran,workerId,trial_num,image_a,image_b,age,gender (m/f),worker_ID,date,expName,psychopyVersion,OS,frameRate,hitId,assignmentId,a,tp_a,b,tp_b,c,tp_c,Cow_resp.keys,Cow_resp.rt,Garden_resp.keys,Garden_resp.rt
space,26.2919,space,26.2805,5,7.3808,5,3.1747,3,10.7518,0,0,0,8,1,AKR9067Q09RZS,21,ma_38466626-a_w_outline.jpg,ma_38466626-b_w_outline.jpg,33,m,AKR9067Q09RZS,2020-12-08_13h52.25.981,MetaAwareness,2020.1.2,MacIntel,60,3IJ95K7NDYF0YES1JUVMBPCM4PUNGK,3HHRAGRYX986N93ZW5URMGLSDI89OR,YAHH5,YAHH5,3HHRAGRYX986N93ZW5URMGLSDI89OR,3HHRAGRYX986N93ZW5URMGLSDI89OR,262735,262735,,,,
,,,,,,,,2,12.4801,0,1,1,24,1,AKR9067Q09RZS,56,ma_83536470-a_w_outline.jpg,ma_83536470-b_w_outline.jpg,33,m,AKR9067Q09RZS,2020-12-08_13h52.25.981,MetaAwareness,2020.1.2,MacIntel,60,3IJ95K7NDYF0YES1JUVMBPCM4PUNGK,3HHRAGRYX986N93ZW5URMGLSDI89OR,YAHH5,YAHH5,3HHRAGRYX986N93ZW5URMGLSDI89OR,3HHRAGRYX986N93ZW5URMGLSDI89OR,262735,262735,,,,
,,,,,,,,3,12.8934,0,2,2,10,1,AKR9067Q09RZS,23,ma_42429798-a_w_outline.jpg,ma_42429798-b_w_outline.jpg,33,m,AKR9067Q09RZS,2020-12-08_13h52.25.981,MetaAwareness,2020.1.2,MacIntel,60,3IJ95K7NDYF0YES1JUVMBPCM4PUNGK,3HHRAGRYX986N93ZW5URMGLSDI89OR,YAHH5,YAHH5,3HHRAGRYX986N93ZW5URMGLSDI89OR,3HHRAGRYX986N93ZW5URMGLSDI89OR,262735,262735,,,,
,,,,,,,,1,8.5711,0,3,3,7,1,AKR9067Q09RZS,20,ma_32289063-a_w_outline.jpg,ma_32289063-b_w_outline.jpg,33,m,AKR9067Q09RZS,2020-12-08_13h52.25.981,MetaAwareness,2020.1.2,MacIntel,60,3IJ95K7NDYF0YES1JUVMBPCM4PUNGK,3HHRAGRYX986N93ZW5URMGLSDI89OR,YAHH5,YAHH5,3HHRAGRYX986N93ZW5URMGLSDI89OR,3HHRAGRYX986N93ZW5URMGLSDI89OR,262735,262735,,,,
,,,,,,,,1,9.6302,0,4,4,3,1,AKR9067Q09RZS,11,ma_18345691-a_w_outline.jpg,ma_18345691-b_w_outline.jpg,33,m,AKR9067Q09RZS,2020-12-08_13h52.25.981,MetaAwareness,2020.1.2,MacIntel,60,3IJ95K7NDYF0YES1JUVMBPCM4PUNGK,3HHRAGRYX986N93ZW5URMGLSDI89OR,YAHH5,YAHH5,3HHRAGRYX986N93ZW5URMGLSDI89OR,3HHRAGRYX986N93ZW5URMGLSDI89OR,262735,262735,,,,
,,,,,,,,1,7.354,0,5,5,2,1,AKR9067Q09RZS,9,ma_16527526-a_w_outline.jpg,ma_16527526-b_w_outline.jpg,33,m,AKR9067Q09RZS,2020-12-08_13h52.25.981,MetaAwareness,2020.1.2,MacIntel,60,3IJ95K7NDYF0YES1JUVMBPCM4PUNGK,3HHRAGRYX986N93ZW5URMGLSDI89OR,YAHH5,YAHH5,3HHRAGRYX986N93ZW5URMGLSDI89OR,3HHRAGRYX986N93ZW5URMGLSDI89OR,262735,262735,,,,
,,,,,,,,2,23.8359,0,6,6,14,1,AKR9067Q09RZS,31,ma_51537628-a_w_outline.jpg,ma_51537628-b_w_outline.jpg,33,m,AKR9067Q09RZS,2020-12-08_13h52.25.981,MetaAwareness,2020.1.2,MacIntel,60,3IJ95K7NDYF0YES1JUVMBPCM4PUNGK,3HHRAGRYX986N93ZW5URMGLSDI89OR,YAHH5,YAHH5,3HHRAGRYX986N93ZW5URMGLSDI89OR,3HHRAGRYX986N93ZW5URMGLSDI89OR,262735,262735,,,,
,,,,,,,,4,9.2139,0,7,7,23,1,AKR9067Q09RZS,52,ma_79241011-a_w_outline.jpg,ma_79241011-b_w_outline.jpg,33,m,AKR9067Q09RZS,2020-12-08_13h52.25.981,MetaAwareness,2020.1.2,MacIntel,60,3IJ95K7NDYF0YES1JUVMBPCM4PUNGK,3HHRAGRYX986N93ZW5URMGLSDI89OR,YAHH5,YAHH5,3HHRAGRYX986N93ZW5URMGLSDI89OR,3HHRAGRYX986N93ZW5URMGLSDI89OR,262735,262735,,,,
,,,,,,,,3,7.5839,0,8,8,21,1,AKR9067Q09RZS,46,ma_75958241-a_w_outline.jpg,ma_75958241-b_w_outline.jpg,33,m,AKR9067Q09RZS,2020-12-08_13h52.25.981,MetaAwareness,2020.1.2,MacIntel,60,3IJ95K7NDYF0YES1JUVMBPCM4PUNGK,3HHRAGRYX986N93ZW5URMGLSDI89OR,YAHH5,YAHH5,3HHRAGRYX986N93ZW5URMGLSDI89OR,3HHRAGRYX986N93ZW5URMGLSDI89OR,262735,262735,,,,
,,,,,,,,5,5.8533,0,9,9,22,1,AKR9067Q09RZS,51,ma_79222679-a_w_outline.jpg,ma_79222679-b_w_outline.jpg,33,m,AKR9067Q09RZS,2020-12-08_13h52.25.981,MetaAwareness,2020.1.2,MacIntel,60,3IJ95K7NDYF0YES1JUVMBPCM4PUNGK,3HHRAGRYX986N93ZW5URMGLSDI89OR,YAHH5,YAHH5,3HHRAGRYX986N93ZW5URMGLSDI89OR,3HHRAGRYX986N93ZW5URMGLSDI89OR,262735,262735,,,,
,,,,,,,,4,10.2683,0,10,10,29,1,AKR9067Q09RZS,69,ma_98265889-a_w_outline.jpg,ma_98265889-b_w_outline.jpg,33,m,AKR9067Q09RZS,2020-12-08_13h52.25.981,MetaAwareness,2020.1.2,MacIntel,60,3IJ95K7NDYF0YES1JUVMBPCM4PUNGK,3HHRAGRYX986N93ZW5URMGLSDI89OR,YAHH5,YAHH5,3HHRAGRYX986N93ZW5URMGLSDI89OR,3HHRAGRYX986N93ZW5URMGLSDI89OR,262735,262735,,,,
,,,,,,,,4,5.9337,0,11,11,28,1,AKR9067Q09RZS,65,ma_90405028-a_w_outline.jpg,ma_90405028-b_w_outline.jpg,33,m,AKR9067Q09RZS,2020-12-08_13h52.25.981,MetaAwareness,2020.1.2,MacIntel,60,3IJ95K7NDYF0YES1JUVMBPCM4PUNGK,3HHRAGRYX986N93ZW5URMGLSDI89OR,YAHH5,YAHH5,3HHRAGRYX986N93ZW5URMGLSDI89OR,3HHRAGRYX986N93ZW5URMGLSDI89OR,262735,262735,,,,
,,,,,,,,3,7.1643,0,12,12,19,1,AKR9067Q09RZS,41,ma_70687495-a_w_outline.jpg,ma_70687495-b_w_outline.jpg,33,m,AKR9067Q09RZS,2020-12-08_13h52.25.981,MetaAwareness,2020.1.2,MacIntel,60,3IJ95K7NDYF0YES1JUVMBPCM4PUNGK,3HHRAGRYX986N93ZW5URMGLSDI89OR,YAHH5,YAHH5,3HHRAGRYX986N93ZW5URMGLSDI89OR,3HHRAGRYX986N93ZW5URMGLSDI89OR,262735,262735,,,,
,,,,,,,,2,21.8803,0,13,13,13,1,AKR9067Q09RZS,30,ma_48486405-a_w_outline.jpg,ma_48486405-b_w_outline.jpg,33,m,AKR9067Q09RZS,2020-12-08_13h52.25.981,MetaAwareness,2020.1.2,MacIntel,60,3IJ95K7NDYF0YES1JUVMBPCM4PUNGK,3HHRAGRYX986N93ZW5URMGLSDI89OR,YAHH5,YAHH5,3HHRAGRYX986N93ZW5URMGLSDI89OR,3HHRAGRYX986N93ZW5URMGLSDI89OR,262735,262735,,,,
,,,,,,,,1,7.3677,0,14,14,11,1,AKR9067Q09RZS,25,ma_44993860-a_w_outline.jpg,ma_44993860-b_w_outline.jpg,33,m,AKR9067Q09RZS,2020-12-08_13h52.25.981,MetaAwareness,2020.1.2,MacIntel,60,3IJ95K7NDYF0YES1JUVMBPCM4PUNGK,3HHRAGRYX986N93ZW5URMGLSDI89OR,YAHH5,YAHH5,3HHRAGRYX986N93ZW5URMGLSDI89OR,3HHRAGRYX986N93ZW5URMGLSDI89OR,262735,262735,,,,
,,,,,,,,4,9.7714,0,15,15,26,1,AKR9067Q09RZS,62,ma_88767165-a_w_outline.jpg,ma_88767165-b_w_outline.jpg,33,m,AKR9067Q09RZS,2020-12-08_13h52.25.981,MetaAwareness,2020.1.2,MacIntel,60,3IJ95K7NDYF0YES1JUVMBPCM4PUNGK,3HHRAGRYX986N93ZW5URMGLSDI89OR,YAHH5,YAHH5,3HHRAGRYX986N93ZW5URMGLSDI89OR,3HHRAGRYX986N93ZW5URMGLSDI89OR,262735,262735,,,,
,,,,,,,,3,14.0075,0,16,16,9,1,AKR9067Q09RZS,22,ma_38546029-a_w_outline.jpg,ma_38546029-b_w_outline.jpg,33,m,AKR9067Q09RZS,2020-12-08_13h52.25.981,MetaAwareness,2020.1.2,MacIntel,60,3IJ95K7NDYF0YES1JUVMBPCM4PUNGK,3HHRAGRYX986N93ZW5URMGLSDI89OR,YAHH5,YAHH5,3HHRAGRYX986N93ZW5URMGLSDI89OR,3HHRAGRYX986N93ZW5URMGLSDI89OR,262735,262735,,,,
,,,,,,,,3,11.4724,0,17,17,27,1,AKR9067Q09RZS,63,ma_89354846-a_w_outline.jpg,ma_89354846-b_w_outline.jpg,33,m,AKR9067Q09RZS,2020-12-08_13h52.25.981,MetaAwareness,2020.1.2,MacIntel,60,3IJ95K7NDYF0YES1JUVMBPCM4PUNGK,3HHRAGRYX986N93ZW5URMGLSDI89OR,YAHH5,YAHH5,3HHRAGRYX986N93ZW5URMGLSDI89OR,3HHRAGRYX986N93ZW5URMGLSDI89OR,262735,262735,,,,
,,,,,,,,3,10.146,0,18,18,17,1,AKR9067Q09RZS,37,ma_62096551-a_w_outline.jpg,ma_62096551-b_w_outline.jpg,33,m,AKR9067Q09RZS,2020-12-08_13h52.25.981,MetaAwareness,2020.1.2,MacIntel,60,3IJ95K7NDYF0YES1JUVMBPCM4PUNGK,3HHRAGRYX986N93ZW5URMGLSDI89OR,YAHH5,YAHH5,3HHRAGRYX986N93ZW5URMGLSDI89OR,3HHRAGRYX986N93ZW5URMGLSDI89OR,262735,262735,,,,
,,,,,,,,4,12.5961,0,19,19,25,1,AKR9067Q09RZS,61,ma_87983207-a_w_outline.jpg,ma_87983207-b_w_outline.jpg,33,m,AKR9067Q09RZS,2020-12-08_13h52.25.981,MetaAwareness,2020.1.2,MacIntel,60,3IJ95K7NDYF0YES1JUVMBPCM4PUNGK,3HHRAGRYX986N93ZW5URMGLSDI89OR,YAHH5,YAHH5,3HHRAGRYX986N93ZW5URMGLSDI89OR,3HHRAGRYX986N93ZW5URMGLSDI89OR,262735,262735,,,,
,,,,,,,,4,9.5205,0,20,20,16,1,AKR9067Q09RZS,36,ma_61118260-a_w_outline.jpg,ma_61118260-b_w_outline.jpg,33,m,AKR9067Q09RZS,2020-12-08_13h52.25.981,MetaAwareness,2020.1.2,MacIntel,60,3IJ95K7NDYF0YES1JUVMBPCM4PUNGK,3HHRAGRYX986N93ZW5URMGLSDI89OR,YAHH5,YAHH5,3HHRAGRYX986N93ZW5URMGLSDI89OR,3HHRAGRYX986N93ZW5URMGLSDI89OR,262735,262735,,,,
,,,,,,,,3,20.6954,0,21,21,1,1,AKR9067Q09RZS,8,ma_13873251-a_w_outline.jpg,ma_13873251-b_w_outline.jpg,33,m,AKR9067Q09RZS,2020-12-08_13h52.25.981,MetaAwareness,2020.1.2,MacIntel,60,3IJ95K7NDYF0YES1JUVMBPCM4PUNGK,3HHRAGRYX986N93ZW5URMGLSDI89OR,YAHH5,YAHH5,3HHRAGRYX986N93ZW5URMGLSDI89OR,3HHRAGRYX986N93ZW5URMGLSDI89OR,262735,262735,,,,
,,,,,,,,5,7.0885,0,22,22,18,1,AKR9067Q09RZS,40,ma_69128765-a_w_outline.jpg,ma_69128765-b_w_outline.jpg,33,m,AKR9067Q09RZS,2020-12-08_13h52.25.981,MetaAwareness,2020.1.2,MacIntel,60,3IJ95K7NDYF0YES1JUVMBPCM4PUNGK,3HHRAGRYX986N93ZW5URMGLSDI89OR,YAHH5,YAHH5,3HHRAGRYX986N93ZW5URMGLSDI89OR,3HHRAGRYX986N93ZW5URMGLSDI89OR,262735,262735,,,,
,,,,,,,,4,11.0236,0,23,23,15,1,AKR9067Q09RZS,34,ma_56835136-a_w_outline.jpg,ma_56835136-b_w_outline.jpg,33,m,AKR9067Q09RZS,2020-12-08_13h52.25.981,MetaAwareness,2020.1.2,MacIntel,60,3IJ95K7NDYF0YES1JUVMBPCM4PUNGK,3HHRAGRYX986N93ZW5URMGLSDI89OR,YAHH5,YAHH5,3HHRAGRYX986N93ZW5URMGLSDI89OR,3HHRAGRYX986N93ZW5URMGLSDI89OR,262735,262735,,,,
,,,,,,,,1,11.427,0,24,24,6,1,AKR9067Q09RZS,19,ma_31236119-a_w_outline.jpg,ma_31236119-b_w_outline.jpg,33,m,AKR9067Q09RZS,2020-12-08_13h52.25.981,MetaAwareness,2020.1.2,MacIntel,60,3IJ95K7NDYF0YES1JUVMBPCM4PUNGK,3HHRAGRYX986N93ZW5URMGLSDI89OR,YAHH5,YAHH5,3HHRAGRYX986N93ZW5URMGLSDI89OR,3HHRAGRYX986N93ZW5URMGLSDI89OR,262735,262735,,,,
,,,,,,,,5,7.9552,0,25,25,4,1,AKR9067Q09RZS,12,ma_22020472-a_w_outline.jpg,ma_22020472-b_w_outline.jpg,33,m,AKR9067Q09RZS,2020-12-08_13h52.25.981,MetaAwareness,2020.1.2,MacIntel,60,3IJ95K7NDYF0YES1JUVMBPCM4PUNGK,3HHRAGRYX986N93ZW5URMGLSDI89OR,YAHH5,YAHH5,3HHRAGRYX986N93ZW5URMGLSDI89OR,3HHRAGRYX986N93ZW5URMGLSDI89OR,262735,262735,,,,
,,,,,,,,5,6.2346,0,26,26,20,1,AKR9067Q09RZS,45,ma_75081153-a_w_outline.jpg,ma_75081153-b_w_outline.jpg,33,m,AKR9067Q09RZS,2020-12-08_13h52.25.981,MetaAwareness,2020.1.2,MacIntel,60,3IJ95K7NDYF0YES1JUVMBPCM4PUNGK,3HHRAGRYX986N93ZW5URMGLSDI89OR,YAHH5,YAHH5,3HHRAGRYX986N93ZW5URMGLSDI89OR,3HHRAGRYX986N93ZW5URMGLSDI89OR,262735,262735,,,,
,,,,,,,,5,9.213,0,27,27,0,1,AKR9067Q09RZS,5,ma_12178414-a_w_outline.jpg,ma_12178414-b_w_outline.jpg,33,m,AKR9067Q09RZS,2020-12-08_13h52.25.981,MetaAwareness,2020.1.2,MacIntel,60,3IJ95K7NDYF0YES1JUVMBPCM4PUNGK,3HHRAGRYX986N93ZW5URMGLSDI89OR,YAHH5,YAHH5,3HHRAGRYX986N93ZW5URMGLSDI89OR,3HHRAGRYX986N93ZW5URMGLSDI89OR,262735,262735,,,,
,,,,,,,,4,7.7912,0,28,28,5,1,AKR9067Q09RZS,14,ma_23199105-a_w_outline.jpg,ma_23199105-b_w_outline.jpg,33,m,AKR9067Q09RZS,2020-12-08_13h52.25.981,MetaAwareness,2020.1.2,MacIntel,60,3IJ95K7NDYF0YES1JUVMBPCM4PUNGK,3HHRAGRYX986N93ZW5URMGLSDI89OR,YAHH5,YAHH5,3HHRAGRYX986N93ZW5URMGLSDI89OR,3HHRAGRYX986N93ZW5URMGLSDI89OR,262735,262735,,,,
,,,,,,,,2,18.6965,0,29,29,12,1,AKR9067Q09RZS,27,ma_46475259-a_w_outline.jpg,ma_46475259-b_w_outline.jpg,33,m,AKR9067Q09RZS,2020-12-08_13h52.25.981,MetaAwareness,2020.1.2,MacIntel,60,3IJ95K7NDYF0YES1JUVMBPCM4PUNGK,3HHRAGRYX986N93ZW5URMGLSDI89OR,YAHH5,YAHH5,3HHRAGRYX986N93ZW5URMGLSDI89OR,3HHRAGRYX986N93ZW5URMGLSDI89OR,262735,262735,,,,
,,,,,,,,,,,,,,,AKR9067Q09RZS,,,,33,m,AKR9067Q09RZS,2020-12-08_13h52.25.981,MetaAwareness,2020.1.2,MacIntel,60,3IJ95K7NDYF0YES1JUVMBPCM4PUNGK,3HHRAGRYX986N93ZW5URMGLSDI89OR,YAHH5,YAHH5,3HHRAGRYX986N93ZW5URMGLSDI89OR,3HHRAGRYX986N93ZW5URMGLSDI89OR,262735,262735,5,1.8292,1,7.5072
