consent_response.keys,consent_response.rt,key_resp_2.keys,key_resp_2.rt,user_resp.keys,user_resp.rt,trials.thisRepN,trials.thisTrialN,trials.thisN,trials.thisIndex,trials.ran,image_1_text,image_2_text,database,image,number,age,worker_ID,date,expName,psychopyVersion,OS,frameRate,hitId,workerId,assignmentId,a,tp_a,b,tp_b,c,tp_c,catch_same_resp.keys,catch_same_resp.rt,image_1_text_catch_same,image_2_text_catch_same,image_catch_same,catch_different_resp.keys,catch_different_resp.rt,image_1_text_catch_different,image_2_text_catch_different,image_catch_different
space,5.375,space,11.788,2,31.145,0,0,0,74,1,a collection of boats and ten people on jet skis in an open body of water,a collection of boats and nine people on jet skis in an open body of water,wolfe1,image-035,4,29,A1497L153RMH2L,2021-02-17_20h27.39.785,MetaAwareness,2020.1.2,Win32,60,38VTL6WC4BGWUG7V90L6O8J4LI6Y5S,A1497L153RMH2L,3EO896NRAXYB6DLGEY735K5IG1YJTZ,R9OE6,R9OE6,3EO896NRAXYB6DLGEY735K5IG1YJTZ,3EO896NRAXYB6DLGEY735K5IG1YJTZ,276286,276286,,,,,,,,,,
,,,,4,20.222,0,1,1,95,1,people gathered around a spot where they will be digging with a white container sitting in front of one man.,people gathered around a spot where they will be digging.,wolfe1,image-046,1,29,A1497L153RMH2L,2021-02-17_20h27.39.785,MetaAwareness,2020.1.2,Win32,60,38VTL6WC4BGWUG7V90L6O8J4LI6Y5S,A1497L153RMH2L,3EO896NRAXYB6DLGEY735K5IG1YJTZ,R9OE6,R9OE6,3EO896NRAXYB6DLGEY735K5IG1YJTZ,3EO896NRAXYB6DLGEY735K5IG1YJTZ,276286,276286,,,,,,,,,,
,,,,4,17.488,0,2,2,36,1,"three men on a golf course watching a forth man putting, there is a small flag on the ground behind the forth man",three men on a golf course watching a fourth man putting,wolfe1,image-017,6,29,A1497L153RMH2L,2021-02-17_20h27.39.785,MetaAwareness,2020.1.2,Win32,60,38VTL6WC4BGWUG7V90L6O8J4LI6Y5S,A1497L153RMH2L,3EO896NRAXYB6DLGEY735K5IG1YJTZ,R9OE6,R9OE6,3EO896NRAXYB6DLGEY735K5IG1YJTZ,3EO896NRAXYB6DLGEY735K5IG1YJTZ,276286,276286,,,,,,,,,,
,,,,4,42.837,0,3,3,29,1,people sitting on blankets on a lawn listening to a concert on a stage with a vacant blanket at the left,people sitting on blankets on a lawn listening to a concert on a stage with no blanket on the lawn to the left,wolfe1,image-014,4,29,A1497L153RMH2L,2021-02-17_20h27.39.785,MetaAwareness,2020.1.2,Win32,60,38VTL6WC4BGWUG7V90L6O8J4LI6Y5S,A1497L153RMH2L,3EO896NRAXYB6DLGEY735K5IG1YJTZ,R9OE6,R9OE6,3EO896NRAXYB6DLGEY735K5IG1YJTZ,3EO896NRAXYB6DLGEY735K5IG1YJTZ,276286,276286,,,,,,,,,,
,,,,5,21.127,0,4,4,107,1,spectators watching a dirt bike race with one of the spectators wearing a yellow shirt.,spectators watching a dirt bike race with one of the spectators wearing a blue shirt.,wolfe1,image-076,4,29,A1497L153RMH2L,2021-02-17_20h27.39.785,MetaAwareness,2020.1.2,Win32,60,38VTL6WC4BGWUG7V90L6O8J4LI6Y5S,A1497L153RMH2L,3EO896NRAXYB6DLGEY735K5IG1YJTZ,R9OE6,R9OE6,3EO896NRAXYB6DLGEY735K5IG1YJTZ,3EO896NRAXYB6DLGEY735K5IG1YJTZ,276286,276286,,,,,,,,,,
,,,,4,15.686,0,5,5,85,1,wasteland with a red brick factory in the distance. the terrain and lake is riddled with rocks,wasteland with a red brick factory in the distance. the terrain is riddled with rocks,wolfe1,image-041,5,29,A1497L153RMH2L,2021-02-17_20h27.39.785,MetaAwareness,2020.1.2,Win32,60,38VTL6WC4BGWUG7V90L6O8J4LI6Y5S,A1497L153RMH2L,3EO896NRAXYB6DLGEY735K5IG1YJTZ,R9OE6,R9OE6,3EO896NRAXYB6DLGEY735K5IG1YJTZ,3EO896NRAXYB6DLGEY735K5IG1YJTZ,276286,276286,,,,,,,,,,
,,,,5,22.923,0,6,6,16,1,"a luxurious and modern hotel room that features many appliances, such as a microwave, tv, refridgerator, and more","a luxurios and mdern hotel room that featuresa few appliances, such as a refridgerator, tv, and more",wolfe1,image-006,5,29,A1497L153RMH2L,2021-02-17_20h27.39.785,MetaAwareness,2020.1.2,Win32,60,38VTL6WC4BGWUG7V90L6O8J4LI6Y5S,A1497L153RMH2L,3EO896NRAXYB6DLGEY735K5IG1YJTZ,R9OE6,R9OE6,3EO896NRAXYB6DLGEY735K5IG1YJTZ,3EO896NRAXYB6DLGEY735K5IG1YJTZ,276286,276286,,,,,,,,,,
,,,,4,15.412,0,7,7,106,1,guy in yellow shirt watching the bikes,guy in green shirt watching the bikes,wolfe1,image-076,3,29,A1497L153RMH2L,2021-02-17_20h27.39.785,MetaAwareness,2020.1.2,Win32,60,38VTL6WC4BGWUG7V90L6O8J4LI6Y5S,A1497L153RMH2L,3EO896NRAXYB6DLGEY735K5IG1YJTZ,R9OE6,R9OE6,3EO896NRAXYB6DLGEY735K5IG1YJTZ,3EO896NRAXYB6DLGEY735K5IG1YJTZ,276286,276286,,,,,,,,,,
,,,,2,9.669,0,8,8,26,1,a small house with a manhole cover in front of it,a small house with gray rocks in front of it,wolfe1,image-012,7,29,A1497L153RMH2L,2021-02-17_20h27.39.785,MetaAwareness,2020.1.2,Win32,60,38VTL6WC4BGWUG7V90L6O8J4LI6Y5S,A1497L153RMH2L,3EO896NRAXYB6DLGEY735K5IG1YJTZ,R9OE6,R9OE6,3EO896NRAXYB6DLGEY735K5IG1YJTZ,3EO896NRAXYB6DLGEY735K5IG1YJTZ,276286,276286,,,,,,,,,,
,,,,5,10.481,0,9,9,32,1,two men with a bird mascot and a recycle bin and an art piece behind them,two men with a bird mascot and an art piece behind them,wolfe1,image-015,4,29,A1497L153RMH2L,2021-02-17_20h27.39.785,MetaAwareness,2020.1.2,Win32,60,38VTL6WC4BGWUG7V90L6O8J4LI6Y5S,A1497L153RMH2L,3EO896NRAXYB6DLGEY735K5IG1YJTZ,R9OE6,R9OE6,3EO896NRAXYB6DLGEY735K5IG1YJTZ,3EO896NRAXYB6DLGEY735K5IG1YJTZ,276286,276286,,,,,,,,,,
,,,,4,21.665,0,10,10,10,1,a man fishing on a wooden bench with a huge metal chain on it,a man fishing on a bench made of two wooden planks,wolfe1,image-004,4,29,A1497L153RMH2L,2021-02-17_20h27.39.785,MetaAwareness,2020.1.2,Win32,60,38VTL6WC4BGWUG7V90L6O8J4LI6Y5S,A1497L153RMH2L,3EO896NRAXYB6DLGEY735K5IG1YJTZ,R9OE6,R9OE6,3EO896NRAXYB6DLGEY735K5IG1YJTZ,3EO896NRAXYB6DLGEY735K5IG1YJTZ,276286,276286,,,,,,,,,,
,,,,5,10.962,0,11,11,201,1,the instructor shows the children dance moves. one of the children wears a pink skirt.,the instructor shows the children dance moves. one of the children wears a purple skirt.,wolfe1,image-131,1,29,A1497L153RMH2L,2021-02-17_20h27.39.785,MetaAwareness,2020.1.2,Win32,60,38VTL6WC4BGWUG7V90L6O8J4LI6Y5S,A1497L153RMH2L,3EO896NRAXYB6DLGEY735K5IG1YJTZ,R9OE6,R9OE6,3EO896NRAXYB6DLGEY735K5IG1YJTZ,3EO896NRAXYB6DLGEY735K5IG1YJTZ,276286,276286,,,,,,,,,,
,,,,5,12.933,0,12,12,159,1,a group of men playing golf with a view of a grayish buliding roof visible in the break of the tree line.,a group of men playing golf with a view of a reddish building roof visible in the break of the tree line.,wolfe1,image-108,2,29,A1497L153RMH2L,2021-02-17_20h27.39.785,MetaAwareness,2020.1.2,Win32,60,38VTL6WC4BGWUG7V90L6O8J4LI6Y5S,A1497L153RMH2L,3EO896NRAXYB6DLGEY735K5IG1YJTZ,R9OE6,R9OE6,3EO896NRAXYB6DLGEY735K5IG1YJTZ,3EO896NRAXYB6DLGEY735K5IG1YJTZ,276286,276286,,,,,,,,,,
,,,,1,10.539,0,13,13,80,1,a square black objects sits in the middle of the shelf in a room,nothing sits in the middle of the shelf  in a room,wolfe1,image-039,4,29,A1497L153RMH2L,2021-02-17_20h27.39.785,MetaAwareness,2020.1.2,Win32,60,38VTL6WC4BGWUG7V90L6O8J4LI6Y5S,A1497L153RMH2L,3EO896NRAXYB6DLGEY735K5IG1YJTZ,R9OE6,R9OE6,3EO896NRAXYB6DLGEY735K5IG1YJTZ,3EO896NRAXYB6DLGEY735K5IG1YJTZ,276286,276286,,,,,,,,,,
,,,,5,28.458,0,14,14,110,1,"there are a group of people, including police officers, standing in front of a large brick mansion. a woman is holding a blue child's jacket.",there is a group of people standing in front of a large brick mansion. some  of the people are police officers. there is a woman holding a child' yellow jacket.,wolfe1,image-077,2,29,A1497L153RMH2L,2021-02-17_20h27.39.785,MetaAwareness,2020.1.2,Win32,60,38VTL6WC4BGWUG7V90L6O8J4LI6Y5S,A1497L153RMH2L,3EO896NRAXYB6DLGEY735K5IG1YJTZ,R9OE6,R9OE6,3EO896NRAXYB6DLGEY735K5IG1YJTZ,3EO896NRAXYB6DLGEY735K5IG1YJTZ,276286,276286,,,,,,,,,,
,,,,4,13.691,0,15,15,69,1,guys playing basketball on a court which is covered slightly on the corner,guys playing basketball on a court,wolfe1,image-033,4,29,A1497L153RMH2L,2021-02-17_20h27.39.785,MetaAwareness,2020.1.2,Win32,60,38VTL6WC4BGWUG7V90L6O8J4LI6Y5S,A1497L153RMH2L,3EO896NRAXYB6DLGEY735K5IG1YJTZ,R9OE6,R9OE6,3EO896NRAXYB6DLGEY735K5IG1YJTZ,3EO896NRAXYB6DLGEY735K5IG1YJTZ,276286,276286,,,,,,,,,,
,,,,5,14.372,0,16,16,119,1,children are playing in a grassy field while a kid in a red shirt sits behind them,children are playing in a grassy fiel while a kid in purple sits behind them,wolfe1,image-086,3,29,A1497L153RMH2L,2021-02-17_20h27.39.785,MetaAwareness,2020.1.2,Win32,60,38VTL6WC4BGWUG7V90L6O8J4LI6Y5S,A1497L153RMH2L,3EO896NRAXYB6DLGEY735K5IG1YJTZ,R9OE6,R9OE6,3EO896NRAXYB6DLGEY735K5IG1YJTZ,3EO896NRAXYB6DLGEY735K5IG1YJTZ,276286,276286,,,,,,,,,,
,,,,2,14.522,0,17,17,7,1,a group of people engaged in a conversation in a room with a curtain on the wall.,a group of people sit in a circle while discussing something.,wolfe1,image-003,7,29,A1497L153RMH2L,2021-02-17_20h27.39.785,MetaAwareness,2020.1.2,Win32,60,38VTL6WC4BGWUG7V90L6O8J4LI6Y5S,A1497L153RMH2L,3EO896NRAXYB6DLGEY735K5IG1YJTZ,R9OE6,R9OE6,3EO896NRAXYB6DLGEY735K5IG1YJTZ,3EO896NRAXYB6DLGEY735K5IG1YJTZ,276286,276286,,,,,,,,,,
,,,,4,8.432,0,18,18,125,1,people walking along a street and a woman in a pink shirt,people walking along a street and a woman in a green shirt,wolfe1,image-090,3,29,A1497L153RMH2L,2021-02-17_20h27.39.785,MetaAwareness,2020.1.2,Win32,60,38VTL6WC4BGWUG7V90L6O8J4LI6Y5S,A1497L153RMH2L,3EO896NRAXYB6DLGEY735K5IG1YJTZ,R9OE6,R9OE6,3EO896NRAXYB6DLGEY735K5IG1YJTZ,3EO896NRAXYB6DLGEY735K5IG1YJTZ,276286,276286,,,,,,,,,,
,,,,5,11.012,0,19,19,143,1,"a large tent is set up on a campground, next to an rv. there is a blue towell on the clothesline next to the tent.","a large tent is set up on a campground, ne to an rv. there is a pink towell on the clothesline next to the tent",wolfe1,image-100,1,29,A1497L153RMH2L,2021-02-17_20h27.39.785,MetaAwareness,2020.1.2,Win32,60,38VTL6WC4BGWUG7V90L6O8J4LI6Y5S,A1497L153RMH2L,3EO896NRAXYB6DLGEY735K5IG1YJTZ,R9OE6,R9OE6,3EO896NRAXYB6DLGEY735K5IG1YJTZ,3EO896NRAXYB6DLGEY735K5IG1YJTZ,276286,276286,,,,,,,,,,
,,,,5,9.86,0,20,20,202,1,a lady leading a workout class of all different ages of children and a little girl in a red skirt,a lady leading a workout class of all different ages of children and a little girl in a purple skirt,wolfe1,image-131,3,29,A1497L153RMH2L,2021-02-17_20h27.39.785,MetaAwareness,2020.1.2,Win32,60,38VTL6WC4BGWUG7V90L6O8J4LI6Y5S,A1497L153RMH2L,3EO896NRAXYB6DLGEY735K5IG1YJTZ,R9OE6,R9OE6,3EO896NRAXYB6DLGEY735K5IG1YJTZ,3EO896NRAXYB6DLGEY735K5IG1YJTZ,276286,276286,,,,,,,,,,
,,,,3,10.746,0,21,21,6,1,people gathered in a circle in a classroom with a window and blinds on the wall with a speaker below,people gathered in a circle in a classroom with a blank wall and a speaker behind them,wolfe1,image-003,6,29,A1497L153RMH2L,2021-02-17_20h27.39.785,MetaAwareness,2020.1.2,Win32,60,38VTL6WC4BGWUG7V90L6O8J4LI6Y5S,A1497L153RMH2L,3EO896NRAXYB6DLGEY735K5IG1YJTZ,R9OE6,R9OE6,3EO896NRAXYB6DLGEY735K5IG1YJTZ,3EO896NRAXYB6DLGEY735K5IG1YJTZ,276286,276286,,,,,,,,,,
,,,,5,15.577,0,22,22,137,1,a man is hiking on a dirt trail with red flowers growing beside it.,a man is hiking on a dirt trail with yellow flowers growing beside it.,wolfe1,image-095,7,29,A1497L153RMH2L,2021-02-17_20h27.39.785,MetaAwareness,2020.1.2,Win32,60,38VTL6WC4BGWUG7V90L6O8J4LI6Y5S,A1497L153RMH2L,3EO896NRAXYB6DLGEY735K5IG1YJTZ,R9OE6,R9OE6,3EO896NRAXYB6DLGEY735K5IG1YJTZ,3EO896NRAXYB6DLGEY735K5IG1YJTZ,276286,276286,,,,,,,,,,
,,,,5,9.708,0,23,23,122,1,a group of young children with two teachers on a day out. the teacher is holding a red cooler.,"a group of young children with two teachers on a day out, the teacher is holding a pink cooler.",wolfe1,image-088,2,29,A1497L153RMH2L,2021-02-17_20h27.39.785,MetaAwareness,2020.1.2,Win32,60,38VTL6WC4BGWUG7V90L6O8J4LI6Y5S,A1497L153RMH2L,3EO896NRAXYB6DLGEY735K5IG1YJTZ,R9OE6,R9OE6,3EO896NRAXYB6DLGEY735K5IG1YJTZ,3EO896NRAXYB6DLGEY735K5IG1YJTZ,276286,276286,,,,,,,,,,
,,,,2,19.541,0,24,24,98,1,"in front of the man with a black jacket on, there is a white object on the ground","in front of the man with a blck jacket on, there is nothing on the ground",wolfe1,image-046,8,29,A1497L153RMH2L,2021-02-17_20h27.39.785,MetaAwareness,2020.1.2,Win32,60,38VTL6WC4BGWUG7V90L6O8J4LI6Y5S,A1497L153RMH2L,3EO896NRAXYB6DLGEY735K5IG1YJTZ,R9OE6,R9OE6,3EO896NRAXYB6DLGEY735K5IG1YJTZ,3EO896NRAXYB6DLGEY735K5IG1YJTZ,276286,276286,,,,,,,,,,
,,,,4,13.869,0,25,25,48,1,3 people running in front of a park with a bench next to a fountain,3 people running in front of a park that has a view of a fountain.,wolfe1,image-022,6,29,A1497L153RMH2L,2021-02-17_20h27.39.785,MetaAwareness,2020.1.2,Win32,60,38VTL6WC4BGWUG7V90L6O8J4LI6Y5S,A1497L153RMH2L,3EO896NRAXYB6DLGEY735K5IG1YJTZ,R9OE6,R9OE6,3EO896NRAXYB6DLGEY735K5IG1YJTZ,3EO896NRAXYB6DLGEY735K5IG1YJTZ,276286,276286,,,,,,,,,,
,,,,3,10.482,0,26,26,57,1,a group of people are listening to a speaker while sitting on the grass in front of a building with a piece of paper behind them.,a group of people are listening to a speaker while sitting on the grass with no litter.,wolfe1,image-028,4,29,A1497L153RMH2L,2021-02-17_20h27.39.785,MetaAwareness,2020.1.2,Win32,60,38VTL6WC4BGWUG7V90L6O8J4LI6Y5S,A1497L153RMH2L,3EO896NRAXYB6DLGEY735K5IG1YJTZ,R9OE6,R9OE6,3EO896NRAXYB6DLGEY735K5IG1YJTZ,3EO896NRAXYB6DLGEY735K5IG1YJTZ,276286,276286,,,,,,,,,,
,,,,5,8.459,0,27,27,113,1,people walking in mall with a red store sign upstairs,people walking in mall with a pink store sign upstairs,wolfe1,image-079,1,29,A1497L153RMH2L,2021-02-17_20h27.39.785,MetaAwareness,2020.1.2,Win32,60,38VTL6WC4BGWUG7V90L6O8J4LI6Y5S,A1497L153RMH2L,3EO896NRAXYB6DLGEY735K5IG1YJTZ,R9OE6,R9OE6,3EO896NRAXYB6DLGEY735K5IG1YJTZ,3EO896NRAXYB6DLGEY735K5IG1YJTZ,276286,276286,,,,,,,,,,
,,,,4,9.436,0,28,28,61,1,scouts walking in a parade and a woman wearing a patch,scouts walking in a parade,wolfe1,image-031,3,29,A1497L153RMH2L,2021-02-17_20h27.39.785,MetaAwareness,2020.1.2,Win32,60,38VTL6WC4BGWUG7V90L6O8J4LI6Y5S,A1497L153RMH2L,3EO896NRAXYB6DLGEY735K5IG1YJTZ,R9OE6,R9OE6,3EO896NRAXYB6DLGEY735K5IG1YJTZ,3EO896NRAXYB6DLGEY735K5IG1YJTZ,276286,276286,,,,,,,,,,
,,,,5,20.455,0,29,29,139,1,a blue cooler sits under a table at a computer room,a green cooler sits under a table at a computer room,wolfe1,image-096,3,29,A1497L153RMH2L,2021-02-17_20h27.39.785,MetaAwareness,2020.1.2,Win32,60,38VTL6WC4BGWUG7V90L6O8J4LI6Y5S,A1497L153RMH2L,3EO896NRAXYB6DLGEY735K5IG1YJTZ,R9OE6,R9OE6,3EO896NRAXYB6DLGEY735K5IG1YJTZ,3EO896NRAXYB6DLGEY735K5IG1YJTZ,276286,276286,,,,,,,,,,
,,,,,,,,,,,,,,,,29,A1497L153RMH2L,2021-02-17_20h27.39.785,MetaAwareness,2020.1.2,Win32,60,38VTL6WC4BGWUG7V90L6O8J4LI6Y5S,A1497L153RMH2L,3EO896NRAXYB6DLGEY735K5IG1YJTZ,R9OE6,R9OE6,3EO896NRAXYB6DLGEY735K5IG1YJTZ,3EO896NRAXYB6DLGEY735K5IG1YJTZ,276286,276286,6,11.945,someone laying underneath a blue beach umbrella on a crowded beach,someone laying underneath a blue beach umbrella on a crowded beach,same,1,5.125,members of a marching band crossing a track that all have feather plumes at the front of their hats,a cluttered and rustic looking cafe with 10 hanging lights,different
