consent_response.keys,consent_response.rt,key_resp_2.keys,key_resp_2.rt,user_resp.keys,user_resp.rt,trials.thisRepN,trials.thisTrialN,trials.thisN,trials.thisIndex,trials.ran,image_1_text,image_2_text,database,image,number,age,worker_ID,date,expName,psychopyVersion,OS,frameRate,hitId,workerId,assignmentId,a,tp_a,b,tp_b,c,tp_c,catch_same_resp.keys,catch_same_resp.rt,image_1_text_catch_same,image_2_text_catch_same,image_catch_same,catch_different_resp.keys,catch_different_resp.rt,image_1_text_catch_different,image_2_text_catch_different,image_catch_different
space,7.594,space,0.626,5,3.842,0,0,0,104,1,people racing dirt bikes on a dirt track with people standing behind a fence watching one man is in a yellow shirt,people racing dirt bikes on a dirt track with people standing behind a fence watching one man is wearing a blue shirt,wolfe1,image-076,1,28,AUSCGUM2XIPYL,2021-02-17_15h35.28.136,MetaAwareness,2020.1.2,Win32,60,388FBO7JZSW0K5D1D0HSIPJQC30YNC,AUSCGUM2XIPYL,3O6CYIULEE4CCA04L2GSZ6LS1BYUWG,LY6O6,LY6O6,3O6CYIULEE4CCA04L2GSZ6LS1BYUWG,3O6CYIULEE4CCA04L2GSZ6LS1BYUWG,276286,276286,,,,,,,,,,
,,,,6,0.669,0,1,1,185,1,three buildings on a street with a shop that has a green window above a sign,three buildings on a street with a shop that has a red window above a sign,wolfe1,image-123,4,28,AUSCGUM2XIPYL,2021-02-17_15h35.28.136,MetaAwareness,2020.1.2,Win32,60,388FBO7JZSW0K5D1D0HSIPJQC30YNC,AUSCGUM2XIPYL,3O6CYIULEE4CCA04L2GSZ6LS1BYUWG,LY6O6,LY6O6,3O6CYIULEE4CCA04L2GSZ6LS1BYUWG,3O6CYIULEE4CCA04L2GSZ6LS1BYUWG,276286,276286,,,,,,,,,,
,,,,5,0.562,0,2,2,0,1,there is a table by the beach with 8 place settings.,there is a table by the beach with 8 place settings and two glass jars in the center.,wolfe1,image-001,1,28,AUSCGUM2XIPYL,2021-02-17_15h35.28.136,MetaAwareness,2020.1.2,Win32,60,388FBO7JZSW0K5D1D0HSIPJQC30YNC,AUSCGUM2XIPYL,3O6CYIULEE4CCA04L2GSZ6LS1BYUWG,LY6O6,LY6O6,3O6CYIULEE4CCA04L2GSZ6LS1BYUWG,3O6CYIULEE4CCA04L2GSZ6LS1BYUWG,276286,276286,,,,,,,,,,
,,,,4,0.545,0,3,3,36,1,"three men on a golf course watching a forth man putting, there is a small flag on the ground behind the forth man",three men on a golf course watching a fourth man putting,wolfe1,image-017,6,28,AUSCGUM2XIPYL,2021-02-17_15h35.28.136,MetaAwareness,2020.1.2,Win32,60,388FBO7JZSW0K5D1D0HSIPJQC30YNC,AUSCGUM2XIPYL,3O6CYIULEE4CCA04L2GSZ6LS1BYUWG,LY6O6,LY6O6,3O6CYIULEE4CCA04L2GSZ6LS1BYUWG,3O6CYIULEE4CCA04L2GSZ6LS1BYUWG,276286,276286,,,,,,,,,,
,,,,6,0.468,0,4,4,192,1,a person that's in water and about to climb up a rope. they're wearing a blue life vest.,a person that's in water and about to climb up a rope. they're wearing a green life vest.,wolfe1,image-128,2,28,AUSCGUM2XIPYL,2021-02-17_15h35.28.136,MetaAwareness,2020.1.2,Win32,60,388FBO7JZSW0K5D1D0HSIPJQC30YNC,AUSCGUM2XIPYL,3O6CYIULEE4CCA04L2GSZ6LS1BYUWG,LY6O6,LY6O6,3O6CYIULEE4CCA04L2GSZ6LS1BYUWG,3O6CYIULEE4CCA04L2GSZ6LS1BYUWG,276286,276286,,,,,,,,,,
,,,,4,0.484,0,5,5,151,1,twelve people a a conference table face a woman at the end of the table. the man to the left of the woman at the front is wearing a blue shirt,twelve people at a conference table face a woman at the end of the table. the man to the left of the woman at the front is wearing a green shirt,wolfe1,image-104,7,28,AUSCGUM2XIPYL,2021-02-17_15h35.28.136,MetaAwareness,2020.1.2,Win32,60,388FBO7JZSW0K5D1D0HSIPJQC30YNC,AUSCGUM2XIPYL,3O6CYIULEE4CCA04L2GSZ6LS1BYUWG,LY6O6,LY6O6,3O6CYIULEE4CCA04L2GSZ6LS1BYUWG,3O6CYIULEE4CCA04L2GSZ6LS1BYUWG,276286,276286,,,,,,,,,,
,,,,6,0.538,0,6,6,140,1,food stalls in front of bleachers with one customer wearing mint blue pants.,food stalls in front of bleachers with one customer wearing green pants.,wolfe1,image-097,4,28,AUSCGUM2XIPYL,2021-02-17_15h35.28.136,MetaAwareness,2020.1.2,Win32,60,388FBO7JZSW0K5D1D0HSIPJQC30YNC,AUSCGUM2XIPYL,3O6CYIULEE4CCA04L2GSZ6LS1BYUWG,LY6O6,LY6O6,3O6CYIULEE4CCA04L2GSZ6LS1BYUWG,3O6CYIULEE4CCA04L2GSZ6LS1BYUWG,276286,276286,,,,,,,,,,
,,,,3,0.486,0,7,7,201,1,the instructor shows the children dance moves. one of the children wears a pink skirt.,the instructor shows the children dance moves. one of the children wears a purple skirt.,wolfe1,image-131,1,28,AUSCGUM2XIPYL,2021-02-17_15h35.28.136,MetaAwareness,2020.1.2,Win32,60,388FBO7JZSW0K5D1D0HSIPJQC30YNC,AUSCGUM2XIPYL,3O6CYIULEE4CCA04L2GSZ6LS1BYUWG,LY6O6,LY6O6,3O6CYIULEE4CCA04L2GSZ6LS1BYUWG,3O6CYIULEE4CCA04L2GSZ6LS1BYUWG,276286,276286,,,,,,,,,,
,,,,5,0.445,0,8,8,129,1,a group of old people in a movement class with one old woman wearing a white pair of shoes,a group of old people in a movement class with one old woman wearing a pink pair of shoes,wolfe1,image-092,4,28,AUSCGUM2XIPYL,2021-02-17_15h35.28.136,MetaAwareness,2020.1.2,Win32,60,388FBO7JZSW0K5D1D0HSIPJQC30YNC,AUSCGUM2XIPYL,3O6CYIULEE4CCA04L2GSZ6LS1BYUWG,LY6O6,LY6O6,3O6CYIULEE4CCA04L2GSZ6LS1BYUWG,3O6CYIULEE4CCA04L2GSZ6LS1BYUWG,276286,276286,,,,,,,,,,
,,,,4,0.427,0,9,9,13,1,a 'jump for joy' graduation celebration of five graduates in front of a bench on the path,a 'jump for joy' graduation celebration of five graduates on an otherwise empty path,wolfe1,image-005,7,28,AUSCGUM2XIPYL,2021-02-17_15h35.28.136,MetaAwareness,2020.1.2,Win32,60,388FBO7JZSW0K5D1D0HSIPJQC30YNC,AUSCGUM2XIPYL,3O6CYIULEE4CCA04L2GSZ6LS1BYUWG,LY6O6,LY6O6,3O6CYIULEE4CCA04L2GSZ6LS1BYUWG,3O6CYIULEE4CCA04L2GSZ6LS1BYUWG,276286,276286,,,,,,,,,,
,,,,6,0.379,0,10,10,95,1,people gathered around a spot where they will be digging with a white container sitting in front of one man.,people gathered around a spot where they will be digging.,wolfe1,image-046,1,28,AUSCGUM2XIPYL,2021-02-17_15h35.28.136,MetaAwareness,2020.1.2,Win32,60,388FBO7JZSW0K5D1D0HSIPJQC30YNC,AUSCGUM2XIPYL,3O6CYIULEE4CCA04L2GSZ6LS1BYUWG,LY6O6,LY6O6,3O6CYIULEE4CCA04L2GSZ6LS1BYUWG,3O6CYIULEE4CCA04L2GSZ6LS1BYUWG,276286,276286,,,,,,,,,,
,,,,3,1.248,0,11,11,198,1,a group of people standing outside a building. the lady in the front is wearing blue jeans,a group of people standing outiside a building. the lady in the front is wearing gray pants.,wolfe1,image-129,4,28,AUSCGUM2XIPYL,2021-02-17_15h35.28.136,MetaAwareness,2020.1.2,Win32,60,388FBO7JZSW0K5D1D0HSIPJQC30YNC,AUSCGUM2XIPYL,3O6CYIULEE4CCA04L2GSZ6LS1BYUWG,LY6O6,LY6O6,3O6CYIULEE4CCA04L2GSZ6LS1BYUWG,3O6CYIULEE4CCA04L2GSZ6LS1BYUWG,276286,276286,,,,,,,,,,
,,,,5,0.373,0,12,12,60,1,adult boy scouts marching in a parade with one girl scout accompanying them and wearing a badge on the right side of her chest.,adult boy scouts marching in a parade with one girl scout accompanying them.,wolfe1,image-031,2,28,AUSCGUM2XIPYL,2021-02-17_15h35.28.136,MetaAwareness,2020.1.2,Win32,60,388FBO7JZSW0K5D1D0HSIPJQC30YNC,AUSCGUM2XIPYL,3O6CYIULEE4CCA04L2GSZ6LS1BYUWG,LY6O6,LY6O6,3O6CYIULEE4CCA04L2GSZ6LS1BYUWG,3O6CYIULEE4CCA04L2GSZ6LS1BYUWG,276286,276286,,,,,,,,,,
,,,,4,0.393,0,13,13,175,1,"a group of people hang around some playground equipment, including someone with a red backpack","a group of people hang around some playground equipment, including someone wwith an orange backpack.",wolfe1,image-118,2,28,AUSCGUM2XIPYL,2021-02-17_15h35.28.136,MetaAwareness,2020.1.2,Win32,60,388FBO7JZSW0K5D1D0HSIPJQC30YNC,AUSCGUM2XIPYL,3O6CYIULEE4CCA04L2GSZ6LS1BYUWG,LY6O6,LY6O6,3O6CYIULEE4CCA04L2GSZ6LS1BYUWG,3O6CYIULEE4CCA04L2GSZ6LS1BYUWG,276286,276286,,,,,,,,,,
,,,,6,0.329,0,14,14,178,1,"several parents, including a man with a red backpack are watching children at a playground","several parents, including a man with an orange backpack, are watching children at a playground",wolfe1,image-118,5,28,AUSCGUM2XIPYL,2021-02-17_15h35.28.136,MetaAwareness,2020.1.2,Win32,60,388FBO7JZSW0K5D1D0HSIPJQC30YNC,AUSCGUM2XIPYL,3O6CYIULEE4CCA04L2GSZ6LS1BYUWG,LY6O6,LY6O6,3O6CYIULEE4CCA04L2GSZ6LS1BYUWG,3O6CYIULEE4CCA04L2GSZ6LS1BYUWG,276286,276286,,,,,,,,,,
,,,,4,0.83,0,15,15,23,1,someone sets up camp in the snow and a yellow piece of plastic is by their equipment,someone sets up camp in the snow and their equipment is all around them,wolfe1,image-010,5,28,AUSCGUM2XIPYL,2021-02-17_15h35.28.136,MetaAwareness,2020.1.2,Win32,60,388FBO7JZSW0K5D1D0HSIPJQC30YNC,AUSCGUM2XIPYL,3O6CYIULEE4CCA04L2GSZ6LS1BYUWG,LY6O6,LY6O6,3O6CYIULEE4CCA04L2GSZ6LS1BYUWG,3O6CYIULEE4CCA04L2GSZ6LS1BYUWG,276286,276286,,,,,,,,,,
,,,,5,0.373,0,16,16,37,1,four men playing golf and the current golfer has something behind him.,four men playing golf,wolfe1,image-017,9,28,AUSCGUM2XIPYL,2021-02-17_15h35.28.136,MetaAwareness,2020.1.2,Win32,60,388FBO7JZSW0K5D1D0HSIPJQC30YNC,AUSCGUM2XIPYL,3O6CYIULEE4CCA04L2GSZ6LS1BYUWG,LY6O6,LY6O6,3O6CYIULEE4CCA04L2GSZ6LS1BYUWG,3O6CYIULEE4CCA04L2GSZ6LS1BYUWG,276286,276286,,,,,,,,,,
,,,,3,0.36,0,17,17,84,1,"a mossy, marsh like scene with mountains and blue sky in the background as well as a red, farmlike facility, with one of the marsh rocks in the foreground","a marshlike, rocky setting with water and moutains and a red, farmlike facility in the background and a swatch of lake and plant growth in the foreground",wolfe1,image-041,2,28,AUSCGUM2XIPYL,2021-02-17_15h35.28.136,MetaAwareness,2020.1.2,Win32,60,388FBO7JZSW0K5D1D0HSIPJQC30YNC,AUSCGUM2XIPYL,3O6CYIULEE4CCA04L2GSZ6LS1BYUWG,LY6O6,LY6O6,3O6CYIULEE4CCA04L2GSZ6LS1BYUWG,3O6CYIULEE4CCA04L2GSZ6LS1BYUWG,276286,276286,,,,,,,,,,
,,,,6,0.462,0,18,18,214,1,a rooftop lounge area with a blue house below,a rooftop lounge area with a pink house below,wolfe1,image-136,6,28,AUSCGUM2XIPYL,2021-02-17_15h35.28.136,MetaAwareness,2020.1.2,Win32,60,388FBO7JZSW0K5D1D0HSIPJQC30YNC,AUSCGUM2XIPYL,3O6CYIULEE4CCA04L2GSZ6LS1BYUWG,LY6O6,LY6O6,3O6CYIULEE4CCA04L2GSZ6LS1BYUWG,3O6CYIULEE4CCA04L2GSZ6LS1BYUWG,276286,276286,,,,,,,,,,
,,,,3,0.363,0,19,19,191,1,a group of people cleaning off a car with the lady on the right using a blue shovel.,a group of people cleaning off a car with the lady on the right using a green shovel.,wolfe1,image-127,2,28,AUSCGUM2XIPYL,2021-02-17_15h35.28.136,MetaAwareness,2020.1.2,Win32,60,388FBO7JZSW0K5D1D0HSIPJQC30YNC,AUSCGUM2XIPYL,3O6CYIULEE4CCA04L2GSZ6LS1BYUWG,LY6O6,LY6O6,3O6CYIULEE4CCA04L2GSZ6LS1BYUWG,3O6CYIULEE4CCA04L2GSZ6LS1BYUWG,276286,276286,,,,,,,,,,
,,,,5,0.3,0,20,20,45,1,a pink and white striped bag sitting in a crowd,some grass in the middle of a crowd of people,wolfe1,image-020,7,28,AUSCGUM2XIPYL,2021-02-17_15h35.28.136,MetaAwareness,2020.1.2,Win32,60,388FBO7JZSW0K5D1D0HSIPJQC30YNC,AUSCGUM2XIPYL,3O6CYIULEE4CCA04L2GSZ6LS1BYUWG,LY6O6,LY6O6,3O6CYIULEE4CCA04L2GSZ6LS1BYUWG,3O6CYIULEE4CCA04L2GSZ6LS1BYUWG,276286,276286,,,,,,,,,,
,,,,4,0.352,0,21,21,96,1,diggers with white box,diggers discussing dig site,wolfe1,image-046,2,28,AUSCGUM2XIPYL,2021-02-17_15h35.28.136,MetaAwareness,2020.1.2,Win32,60,388FBO7JZSW0K5D1D0HSIPJQC30YNC,AUSCGUM2XIPYL,3O6CYIULEE4CCA04L2GSZ6LS1BYUWG,LY6O6,LY6O6,3O6CYIULEE4CCA04L2GSZ6LS1BYUWG,3O6CYIULEE4CCA04L2GSZ6LS1BYUWG,276286,276286,,,,,,,,,,
,,,,2,0.687,0,22,22,38,1,"a beach scene with kayaks, a tent, and an empty blue chair in the foreground",a beach scene with kayaks and a tent in the foreground,wolfe1,image-018,2,28,AUSCGUM2XIPYL,2021-02-17_15h35.28.136,MetaAwareness,2020.1.2,Win32,60,388FBO7JZSW0K5D1D0HSIPJQC30YNC,AUSCGUM2XIPYL,3O6CYIULEE4CCA04L2GSZ6LS1BYUWG,LY6O6,LY6O6,3O6CYIULEE4CCA04L2GSZ6LS1BYUWG,3O6CYIULEE4CCA04L2GSZ6LS1BYUWG,276286,276286,,,,,,,,,,
,,,,6,0.546,0,23,23,8,1,a man fishes into the water while sitting on wood that is held together with a chain,a man fishes into the water while sitting on wood,wolfe1,image-004,1,28,AUSCGUM2XIPYL,2021-02-17_15h35.28.136,MetaAwareness,2020.1.2,Win32,60,388FBO7JZSW0K5D1D0HSIPJQC30YNC,AUSCGUM2XIPYL,3O6CYIULEE4CCA04L2GSZ6LS1BYUWG,LY6O6,LY6O6,3O6CYIULEE4CCA04L2GSZ6LS1BYUWG,3O6CYIULEE4CCA04L2GSZ6LS1BYUWG,276286,276286,,,,,,,,,,
,,,,1,0.358,0,24,24,187,1,two people walking their dog in a park next to the marina with a dull green colored post.,two people walking their dog in a park next to the marina with a brown colored post.,wolfe1,image-124,1,28,AUSCGUM2XIPYL,2021-02-17_15h35.28.136,MetaAwareness,2020.1.2,Win32,60,388FBO7JZSW0K5D1D0HSIPJQC30YNC,AUSCGUM2XIPYL,3O6CYIULEE4CCA04L2GSZ6LS1BYUWG,LY6O6,LY6O6,3O6CYIULEE4CCA04L2GSZ6LS1BYUWG,3O6CYIULEE4CCA04L2GSZ6LS1BYUWG,276286,276286,,,,,,,,,,
,,,,5,0.343,0,25,25,55,1,a large building with many windows with people sittin infront of it and there is an object behind them in the grass,a large building ith many widowd with people sitting in the grass with no object behind them,wolfe1,image-028,1,28,AUSCGUM2XIPYL,2021-02-17_15h35.28.136,MetaAwareness,2020.1.2,Win32,60,388FBO7JZSW0K5D1D0HSIPJQC30YNC,AUSCGUM2XIPYL,3O6CYIULEE4CCA04L2GSZ6LS1BYUWG,LY6O6,LY6O6,3O6CYIULEE4CCA04L2GSZ6LS1BYUWG,3O6CYIULEE4CCA04L2GSZ6LS1BYUWG,276286,276286,,,,,,,,,,
,,,,4,0.366,0,26,26,212,1,an outdoor rooftop patio overlooks a baby blue building.,an outdoor rooftop patio overlooks a pink building.,wolfe1,image-136,2,28,AUSCGUM2XIPYL,2021-02-17_15h35.28.136,MetaAwareness,2020.1.2,Win32,60,388FBO7JZSW0K5D1D0HSIPJQC30YNC,AUSCGUM2XIPYL,3O6CYIULEE4CCA04L2GSZ6LS1BYUWG,LY6O6,LY6O6,3O6CYIULEE4CCA04L2GSZ6LS1BYUWG,3O6CYIULEE4CCA04L2GSZ6LS1BYUWG,276286,276286,,,,,,,,,,
,,,,6,0.389,0,27,27,164,1,a plane at the airport with a yellow jet truck parked next to it,a plane at the airport with a red jet truck parked next to it,wolfe1,image-111,1,28,AUSCGUM2XIPYL,2021-02-17_15h35.28.136,MetaAwareness,2020.1.2,Win32,60,388FBO7JZSW0K5D1D0HSIPJQC30YNC,AUSCGUM2XIPYL,3O6CYIULEE4CCA04L2GSZ6LS1BYUWG,LY6O6,LY6O6,3O6CYIULEE4CCA04L2GSZ6LS1BYUWG,3O6CYIULEE4CCA04L2GSZ6LS1BYUWG,276286,276286,,,,,,,,,,
,,,,5,1.3,0,28,28,69,1,guys playing basketball on a court which is covered slightly on the corner,guys playing basketball on a court,wolfe1,image-033,4,28,AUSCGUM2XIPYL,2021-02-17_15h35.28.136,MetaAwareness,2020.1.2,Win32,60,388FBO7JZSW0K5D1D0HSIPJQC30YNC,AUSCGUM2XIPYL,3O6CYIULEE4CCA04L2GSZ6LS1BYUWG,LY6O6,LY6O6,3O6CYIULEE4CCA04L2GSZ6LS1BYUWG,3O6CYIULEE4CCA04L2GSZ6LS1BYUWG,276286,276286,,,,,,,,,,
,,,,6,0.663,0,29,29,79,1,quiet street with a few traditional style buildings with a sign on the yellow building,quiet street with a few traditional style buildings,wolfe1,image-038,2,28,AUSCGUM2XIPYL,2021-02-17_15h35.28.136,MetaAwareness,2020.1.2,Win32,60,388FBO7JZSW0K5D1D0HSIPJQC30YNC,AUSCGUM2XIPYL,3O6CYIULEE4CCA04L2GSZ6LS1BYUWG,LY6O6,LY6O6,3O6CYIULEE4CCA04L2GSZ6LS1BYUWG,3O6CYIULEE4CCA04L2GSZ6LS1BYUWG,276286,276286,,,,,,,,,,
,,,,,,,,,,,,,,,,28,AUSCGUM2XIPYL,2021-02-17_15h35.28.136,MetaAwareness,2020.1.2,Win32,60,388FBO7JZSW0K5D1D0HSIPJQC30YNC,AUSCGUM2XIPYL,3O6CYIULEE4CCA04L2GSZ6LS1BYUWG,LY6O6,LY6O6,3O6CYIULEE4CCA04L2GSZ6LS1BYUWG,3O6CYIULEE4CCA04L2GSZ6LS1BYUWG,276286,276286,3,0.533,someone laying underneath a blue beach umbrella on a crowded beach,someone laying underneath a blue beach umbrella on a crowded beach,same,6,1.297,members of a marching band crossing a track that all have feather plumes at the front of their hats,a cluttered and rustic looking cafe with 10 hanging lights,different
