consent_response.keys,consent_response.rt,key_resp_2.keys,key_resp_2.rt,user_resp.keys,user_resp.rt,trials.thisRepN,trials.thisTrialN,trials.thisN,trials.thisIndex,trials.ran,image_1_text,image_2_text,database,image,number,age,worker_ID,date,expName,psychopyVersion,OS,frameRate,hitId,workerId,assignmentId,a,tp_a,b,tp_b,c,tp_c,catch_same_resp.keys,catch_same_resp.rt,image_1_text_catch_same,image_2_text_catch_same,image_catch_same,catch_different_resp.keys,catch_different_resp.rt,image_1_text_catch_different,image_2_text_catch_different,image_catch_different
space,3.964715,space,11.52029,3,12.42148,0,0,0,197,1,a group of old ladies and men with one old woman wearing a pair of blue jeans,a group of old ladies and men with one old woman wearing a pair of gray jeans,wolfe1,image-129,3,21,AWAHIWLMQ0HUQ,2021-02-17_20h32.43.092,MetaAwareness,2020.1.2,MacIntel,60,3JY0Q5X05K9UOMBFWQIRL53P6VSGGS,AWAHIWLMQ0HUQ,3NJM2BJS4X9Q67M3NPHXD6RQ1E0PCI,S2JN6,S2JN6,3NJM2BJS4X9Q67M3NPHXD6RQ1E0PCI,3NJM2BJS4X9Q67M3NPHXD6RQ1E0PCI,276286,276286,,,,,,,,,,
,,,,5,14.204215,0,1,1,36,1,"three men on a golf course watching a forth man putting, there is a small flag on the ground behind the forth man",three men on a golf course watching a fourth man putting,wolfe1,image-017,6,21,AWAHIWLMQ0HUQ,2021-02-17_20h32.43.092,MetaAwareness,2020.1.2,MacIntel,60,3JY0Q5X05K9UOMBFWQIRL53P6VSGGS,AWAHIWLMQ0HUQ,3NJM2BJS4X9Q67M3NPHXD6RQ1E0PCI,S2JN6,S2JN6,3NJM2BJS4X9Q67M3NPHXD6RQ1E0PCI,3NJM2BJS4X9Q67M3NPHXD6RQ1E0PCI,276286,276286,,,,,,,,,,
,,,,4,14.77098,0,2,2,3,1,a table is set at an outdoor cafe next to the sea. the table setting has service for eight and salt and pepper shakers.,a table is set at an outdoor cafe next to the sea. the table setting has service for eight.,wolfe1,image-001,6,21,AWAHIWLMQ0HUQ,2021-02-17_20h32.43.092,MetaAwareness,2020.1.2,MacIntel,60,3JY0Q5X05K9UOMBFWQIRL53P6VSGGS,AWAHIWLMQ0HUQ,3NJM2BJS4X9Q67M3NPHXD6RQ1E0PCI,S2JN6,S2JN6,3NJM2BJS4X9Q67M3NPHXD6RQ1E0PCI,3NJM2BJS4X9Q67M3NPHXD6RQ1E0PCI,276286,276286,,,,,,,,,,
,,,,5,13.553405,0,3,3,150,1,"a group of doctors and or nurses are in a meeting room having a discussion, and one of the men is wearing a light blue button-down dress shirt","a group of doctors and or nurses are in a meeting room having a discussion, and one of the men is wearing a light green button-down dress shirt",wolfe1,image-104,6,21,AWAHIWLMQ0HUQ,2021-02-17_20h32.43.092,MetaAwareness,2020.1.2,MacIntel,60,3JY0Q5X05K9UOMBFWQIRL53P6VSGGS,AWAHIWLMQ0HUQ,3NJM2BJS4X9Q67M3NPHXD6RQ1E0PCI,S2JN6,S2JN6,3NJM2BJS4X9Q67M3NPHXD6RQ1E0PCI,3NJM2BJS4X9Q67M3NPHXD6RQ1E0PCI,276286,276286,,,,,,,,,,
,,,,5,7.36993,0,4,4,123,1,"a group of parents and children hold hands in a park, while one mom holds a red thermos","a group of parents and children hold hands in a park, while one mom holds a purple thermos",wolfe1,image-088,4,21,AWAHIWLMQ0HUQ,2021-02-17_20h32.43.092,MetaAwareness,2020.1.2,MacIntel,60,3JY0Q5X05K9UOMBFWQIRL53P6VSGGS,AWAHIWLMQ0HUQ,3NJM2BJS4X9Q67M3NPHXD6RQ1E0PCI,S2JN6,S2JN6,3NJM2BJS4X9Q67M3NPHXD6RQ1E0PCI,3NJM2BJS4X9Q67M3NPHXD6RQ1E0PCI,276286,276286,,,,,,,,,,
,,,,4,9.441085,0,5,5,28,1,"many people are enjoying an outdoor concert in the grass, there is a blanket with no one on it",many people are enjoying an outdoor concert in the grass,wolfe1,image-014,1,21,AWAHIWLMQ0HUQ,2021-02-17_20h32.43.092,MetaAwareness,2020.1.2,MacIntel,60,3JY0Q5X05K9UOMBFWQIRL53P6VSGGS,AWAHIWLMQ0HUQ,3NJM2BJS4X9Q67M3NPHXD6RQ1E0PCI,S2JN6,S2JN6,3NJM2BJS4X9Q67M3NPHXD6RQ1E0PCI,3NJM2BJS4X9Q67M3NPHXD6RQ1E0PCI,276286,276286,,,,,,,,,,
,,,,5,5.450545,0,6,6,212,1,an outdoor rooftop patio overlooks a baby blue building.,an outdoor rooftop patio overlooks a pink building.,wolfe1,image-136,2,21,AWAHIWLMQ0HUQ,2021-02-17_20h32.43.092,MetaAwareness,2020.1.2,MacIntel,60,3JY0Q5X05K9UOMBFWQIRL53P6VSGGS,AWAHIWLMQ0HUQ,3NJM2BJS4X9Q67M3NPHXD6RQ1E0PCI,S2JN6,S2JN6,3NJM2BJS4X9Q67M3NPHXD6RQ1E0PCI,3NJM2BJS4X9Q67M3NPHXD6RQ1E0PCI,276286,276286,,,,,,,,,,
,,,,5,6.11939,0,7,7,209,1,"there are various people walking down a sidealk in front of a tropicana store, one of them is a woman wearing a red top","there are various people walking down a sidewalk in front of a tropicana store, one of them is a woman wearing a blue top",wolfe1,image-134,1,21,AWAHIWLMQ0HUQ,2021-02-17_20h32.43.092,MetaAwareness,2020.1.2,MacIntel,60,3JY0Q5X05K9UOMBFWQIRL53P6VSGGS,AWAHIWLMQ0HUQ,3NJM2BJS4X9Q67M3NPHXD6RQ1E0PCI,S2JN6,S2JN6,3NJM2BJS4X9Q67M3NPHXD6RQ1E0PCI,3NJM2BJS4X9Q67M3NPHXD6RQ1E0PCI,276286,276286,,,,,,,,,,
,,,,4,15.59597,0,8,8,4,1,yard sale with clothes and toy table with a blue jacket hanging by the table,yard sale with clothes and brown jacket hanging by a table.,wolfe1,image-002,3,21,AWAHIWLMQ0HUQ,2021-02-17_20h32.43.092,MetaAwareness,2020.1.2,MacIntel,60,3JY0Q5X05K9UOMBFWQIRL53P6VSGGS,AWAHIWLMQ0HUQ,3NJM2BJS4X9Q67M3NPHXD6RQ1E0PCI,S2JN6,S2JN6,3NJM2BJS4X9Q67M3NPHXD6RQ1E0PCI,3NJM2BJS4X9Q67M3NPHXD6RQ1E0PCI,276286,276286,,,,,,,,,,
,,,,5,9.34182,0,9,9,121,1,"a woman browses a table at a yard sale, ignoring the blue plastic toy to her right on the table.","a woman browses a table at a yard sale, ignoring the purple plastic toy to her right on the table.",wolfe1,image-087,4,21,AWAHIWLMQ0HUQ,2021-02-17_20h32.43.092,MetaAwareness,2020.1.2,MacIntel,60,3JY0Q5X05K9UOMBFWQIRL53P6VSGGS,AWAHIWLMQ0HUQ,3NJM2BJS4X9Q67M3NPHXD6RQ1E0PCI,S2JN6,S2JN6,3NJM2BJS4X9Q67M3NPHXD6RQ1E0PCI,3NJM2BJS4X9Q67M3NPHXD6RQ1E0PCI,276286,276286,,,,,,,,,,
,,,,5,6.47063,0,10,10,130,1,a group of people on a basketball court with one person wearing a pair of pink pants,a group of people on a basketball court with one person wearing a pair of green pants,wolfe1,image-093,3,21,AWAHIWLMQ0HUQ,2021-02-17_20h32.43.092,MetaAwareness,2020.1.2,MacIntel,60,3JY0Q5X05K9UOMBFWQIRL53P6VSGGS,AWAHIWLMQ0HUQ,3NJM2BJS4X9Q67M3NPHXD6RQ1E0PCI,S2JN6,S2JN6,3NJM2BJS4X9Q67M3NPHXD6RQ1E0PCI,3NJM2BJS4X9Q67M3NPHXD6RQ1E0PCI,276286,276286,,,,,,,,,,
,,,,4,6.439305,0,11,11,180,1,a pond with a yellow sign.,a pond with a dark orange sign.,wolfe1,image-119,5,21,AWAHIWLMQ0HUQ,2021-02-17_20h32.43.092,MetaAwareness,2020.1.2,MacIntel,60,3JY0Q5X05K9UOMBFWQIRL53P6VSGGS,AWAHIWLMQ0HUQ,3NJM2BJS4X9Q67M3NPHXD6RQ1E0PCI,S2JN6,S2JN6,3NJM2BJS4X9Q67M3NPHXD6RQ1E0PCI,3NJM2BJS4X9Q67M3NPHXD6RQ1E0PCI,276286,276286,,,,,,,,,,
,,,,4,8.574245,0,12,12,9,1,a man sitting on the edge of the dock with a wooden addition chained to it.,"a man sitting on the edge of the dock with a wooden addition chained to it, but by only one chain.",wolfe1,image-004,2,21,AWAHIWLMQ0HUQ,2021-02-17_20h32.43.092,MetaAwareness,2020.1.2,MacIntel,60,3JY0Q5X05K9UOMBFWQIRL53P6VSGGS,AWAHIWLMQ0HUQ,3NJM2BJS4X9Q67M3NPHXD6RQ1E0PCI,S2JN6,S2JN6,3NJM2BJS4X9Q67M3NPHXD6RQ1E0PCI,3NJM2BJS4X9Q67M3NPHXD6RQ1E0PCI,276286,276286,,,,,,,,,,
,,,,5,5.68319,0,13,13,168,1,"an outdoor city street with various shops and restaurants, one of which is under a red awning.","an outdoor city street with various shops and restaurants, one of which is under a yellow awning.",wolfe1,image-113,2,21,AWAHIWLMQ0HUQ,2021-02-17_20h32.43.092,MetaAwareness,2020.1.2,MacIntel,60,3JY0Q5X05K9UOMBFWQIRL53P6VSGGS,AWAHIWLMQ0HUQ,3NJM2BJS4X9Q67M3NPHXD6RQ1E0PCI,S2JN6,S2JN6,3NJM2BJS4X9Q67M3NPHXD6RQ1E0PCI,3NJM2BJS4X9Q67M3NPHXD6RQ1E0PCI,276286,276286,,,,,,,,,,
,,,,5,5.535705,0,14,14,204,1,"a living room with two white sofas, a red pillow is used","a living room with two white sofas, a green pillow is used",wolfe1,image-132,1,21,AWAHIWLMQ0HUQ,2021-02-17_20h32.43.092,MetaAwareness,2020.1.2,MacIntel,60,3JY0Q5X05K9UOMBFWQIRL53P6VSGGS,AWAHIWLMQ0HUQ,3NJM2BJS4X9Q67M3NPHXD6RQ1E0PCI,S2JN6,S2JN6,3NJM2BJS4X9Q67M3NPHXD6RQ1E0PCI,3NJM2BJS4X9Q67M3NPHXD6RQ1E0PCI,276286,276286,,,,,,,,,,
,,,,4,8.464435,0,15,15,38,1,"a beach scene with kayaks, a tent, and an empty blue chair in the foreground",a beach scene with kayaks and a tent in the foreground,wolfe1,image-018,2,21,AWAHIWLMQ0HUQ,2021-02-17_20h32.43.092,MetaAwareness,2020.1.2,MacIntel,60,3JY0Q5X05K9UOMBFWQIRL53P6VSGGS,AWAHIWLMQ0HUQ,3NJM2BJS4X9Q67M3NPHXD6RQ1E0PCI,S2JN6,S2JN6,3NJM2BJS4X9Q67M3NPHXD6RQ1E0PCI,3NJM2BJS4X9Q67M3NPHXD6RQ1E0PCI,276286,276286,,,,,,,,,,
,,,,4,9.903255,0,16,16,179,1,people hang out at a park along the water with a yellow flag nearby,people hang out at a park along the water with a red flag nearby,wolfe1,image-119,3,21,AWAHIWLMQ0HUQ,2021-02-17_20h32.43.092,MetaAwareness,2020.1.2,MacIntel,60,3JY0Q5X05K9UOMBFWQIRL53P6VSGGS,AWAHIWLMQ0HUQ,3NJM2BJS4X9Q67M3NPHXD6RQ1E0PCI,S2JN6,S2JN6,3NJM2BJS4X9Q67M3NPHXD6RQ1E0PCI,3NJM2BJS4X9Q67M3NPHXD6RQ1E0PCI,276286,276286,,,,,,,,,,
,,,,2,7.64538,0,17,17,78,1,"several buildings line a cobblestone street. the first building on the right has a yellow sign, probably giving the street name.",several buildings line a cobblestone street.,wolfe1,image-038,1,21,AWAHIWLMQ0HUQ,2021-02-17_20h32.43.092,MetaAwareness,2020.1.2,MacIntel,60,3JY0Q5X05K9UOMBFWQIRL53P6VSGGS,AWAHIWLMQ0HUQ,3NJM2BJS4X9Q67M3NPHXD6RQ1E0PCI,S2JN6,S2JN6,3NJM2BJS4X9Q67M3NPHXD6RQ1E0PCI,3NJM2BJS4X9Q67M3NPHXD6RQ1E0PCI,276286,276286,,,,,,,,,,
,,,,3,8.94573,0,18,18,89,1,a crowd is in front of an ornate church with statues at the top of each arch on its facade,a crowd is in front of an ornate church with statues at the top of each arch on its facade except for the leftmost arch,wolfe1,image-042,6,21,AWAHIWLMQ0HUQ,2021-02-17_20h32.43.092,MetaAwareness,2020.1.2,MacIntel,60,3JY0Q5X05K9UOMBFWQIRL53P6VSGGS,AWAHIWLMQ0HUQ,3NJM2BJS4X9Q67M3NPHXD6RQ1E0PCI,S2JN6,S2JN6,3NJM2BJS4X9Q67M3NPHXD6RQ1E0PCI,3NJM2BJS4X9Q67M3NPHXD6RQ1E0PCI,276286,276286,,,,,,,,,,
,,,,2,12.726045,0,19,19,166,1,a plane on the red way getting filled up with gasoline by a yellow and blue truck,a plane sitting on the tarmac getting filled up with gasoline by a red and blue truck,wolfe1,image-111,4,21,AWAHIWLMQ0HUQ,2021-02-17_20h32.43.092,MetaAwareness,2020.1.2,MacIntel,60,3JY0Q5X05K9UOMBFWQIRL53P6VSGGS,AWAHIWLMQ0HUQ,3NJM2BJS4X9Q67M3NPHXD6RQ1E0PCI,S2JN6,S2JN6,3NJM2BJS4X9Q67M3NPHXD6RQ1E0PCI,3NJM2BJS4X9Q67M3NPHXD6RQ1E0PCI,276286,276286,,,,,,,,,,
,,,,4,9.84771,0,20,20,159,1,a group of men playing golf with a view of a grayish buliding roof visible in the break of the tree line.,a group of men playing golf with a view of a reddish building roof visible in the break of the tree line.,wolfe1,image-108,2,21,AWAHIWLMQ0HUQ,2021-02-17_20h32.43.092,MetaAwareness,2020.1.2,MacIntel,60,3JY0Q5X05K9UOMBFWQIRL53P6VSGGS,AWAHIWLMQ0HUQ,3NJM2BJS4X9Q67M3NPHXD6RQ1E0PCI,S2JN6,S2JN6,3NJM2BJS4X9Q67M3NPHXD6RQ1E0PCI,3NJM2BJS4X9Q67M3NPHXD6RQ1E0PCI,276286,276286,,,,,,,,,,
,,,,4,5.750795,0,21,21,118,1,a group of young hikers in which one hiker is checking out something in his red backpack,a group of young ikers in whic one hiker is checking out something in his green backpack,wolfe1,image-084,4,21,AWAHIWLMQ0HUQ,2021-02-17_20h32.43.092,MetaAwareness,2020.1.2,MacIntel,60,3JY0Q5X05K9UOMBFWQIRL53P6VSGGS,AWAHIWLMQ0HUQ,3NJM2BJS4X9Q67M3NPHXD6RQ1E0PCI,S2JN6,S2JN6,3NJM2BJS4X9Q67M3NPHXD6RQ1E0PCI,3NJM2BJS4X9Q67M3NPHXD6RQ1E0PCI,276286,276286,,,,,,,,,,
,,,,5,6.53581,0,22,22,129,1,a group of old people in a movement class with one old woman wearing a white pair of shoes,a group of old people in a movement class with one old woman wearing a pink pair of shoes,wolfe1,image-092,4,21,AWAHIWLMQ0HUQ,2021-02-17_20h32.43.092,MetaAwareness,2020.1.2,MacIntel,60,3JY0Q5X05K9UOMBFWQIRL53P6VSGGS,AWAHIWLMQ0HUQ,3NJM2BJS4X9Q67M3NPHXD6RQ1E0PCI,S2JN6,S2JN6,3NJM2BJS4X9Q67M3NPHXD6RQ1E0PCI,3NJM2BJS4X9Q67M3NPHXD6RQ1E0PCI,276286,276286,,,,,,,,,,
,,,,5,4.835375,0,23,23,163,1,"a downtown city street with shops and stores, one of which is under a red awning","a downtown city street with shops and stores, one of which is under a blue awning",wolfe1,image-110,7,21,AWAHIWLMQ0HUQ,2021-02-17_20h32.43.092,MetaAwareness,2020.1.2,MacIntel,60,3JY0Q5X05K9UOMBFWQIRL53P6VSGGS,AWAHIWLMQ0HUQ,3NJM2BJS4X9Q67M3NPHXD6RQ1E0PCI,S2JN6,S2JN6,3NJM2BJS4X9Q67M3NPHXD6RQ1E0PCI,3NJM2BJS4X9Q67M3NPHXD6RQ1E0PCI,276286,276286,,,,,,,,,,
,,,,4,7.25432,0,24,24,122,1,a group of young children with two teachers on a day out. the teacher is holding a red cooler.,"a group of young children with two teachers on a day out, the teacher is holding a pink cooler.",wolfe1,image-088,2,21,AWAHIWLMQ0HUQ,2021-02-17_20h32.43.092,MetaAwareness,2020.1.2,MacIntel,60,3JY0Q5X05K9UOMBFWQIRL53P6VSGGS,AWAHIWLMQ0HUQ,3NJM2BJS4X9Q67M3NPHXD6RQ1E0PCI,S2JN6,S2JN6,3NJM2BJS4X9Q67M3NPHXD6RQ1E0PCI,3NJM2BJS4X9Q67M3NPHXD6RQ1E0PCI,276286,276286,,,,,,,,,,
,,,,3,7.458495,0,25,25,206,1,a living room scene including a couch with two orange pillows,a living room scene including a couch with one orange and one yellow pillow,wolfe1,image-132,4,21,AWAHIWLMQ0HUQ,2021-02-17_20h32.43.092,MetaAwareness,2020.1.2,MacIntel,60,3JY0Q5X05K9UOMBFWQIRL53P6VSGGS,AWAHIWLMQ0HUQ,3NJM2BJS4X9Q67M3NPHXD6RQ1E0PCI,S2JN6,S2JN6,3NJM2BJS4X9Q67M3NPHXD6RQ1E0PCI,3NJM2BJS4X9Q67M3NPHXD6RQ1E0PCI,276286,276286,,,,,,,,,,
,,,,3,7.681865,0,26,26,83,1,kids playing basketball in front of a house with a lamp hanging on the wall,kids playing basketball in their front yard,wolfe1,image-040,7,21,AWAHIWLMQ0HUQ,2021-02-17_20h32.43.092,MetaAwareness,2020.1.2,MacIntel,60,3JY0Q5X05K9UOMBFWQIRL53P6VSGGS,AWAHIWLMQ0HUQ,3NJM2BJS4X9Q67M3NPHXD6RQ1E0PCI,S2JN6,S2JN6,3NJM2BJS4X9Q67M3NPHXD6RQ1E0PCI,3NJM2BJS4X9Q67M3NPHXD6RQ1E0PCI,276286,276286,,,,,,,,,,
,,,,4,5.384265,0,27,27,185,1,three buildings on a street with a shop that has a green window above a sign,three buildings on a street with a shop that has a red window above a sign,wolfe1,image-123,4,21,AWAHIWLMQ0HUQ,2021-02-17_20h32.43.092,MetaAwareness,2020.1.2,MacIntel,60,3JY0Q5X05K9UOMBFWQIRL53P6VSGGS,AWAHIWLMQ0HUQ,3NJM2BJS4X9Q67M3NPHXD6RQ1E0PCI,S2JN6,S2JN6,3NJM2BJS4X9Q67M3NPHXD6RQ1E0PCI,3NJM2BJS4X9Q67M3NPHXD6RQ1E0PCI,276286,276286,,,,,,,,,,
,,,,2,15.060115,0,28,28,57,1,a group of people are listening to a speaker while sitting on the grass in front of a building with a piece of paper behind them.,a group of people are listening to a speaker while sitting on the grass with no litter.,wolfe1,image-028,4,21,AWAHIWLMQ0HUQ,2021-02-17_20h32.43.092,MetaAwareness,2020.1.2,MacIntel,60,3JY0Q5X05K9UOMBFWQIRL53P6VSGGS,AWAHIWLMQ0HUQ,3NJM2BJS4X9Q67M3NPHXD6RQ1E0PCI,S2JN6,S2JN6,3NJM2BJS4X9Q67M3NPHXD6RQ1E0PCI,3NJM2BJS4X9Q67M3NPHXD6RQ1E0PCI,276286,276286,,,,,,,,,,
,,,,4,6.300495,0,29,29,211,1,a family enjoying a camel ride where the second girl is wearing a green cap backwards.,a family enjoying a camel ride where the second girl is wearing a purple cap backwards.,wolfe1,image-135,1,21,AWAHIWLMQ0HUQ,2021-02-17_20h32.43.092,MetaAwareness,2020.1.2,MacIntel,60,3JY0Q5X05K9UOMBFWQIRL53P6VSGGS,AWAHIWLMQ0HUQ,3NJM2BJS4X9Q67M3NPHXD6RQ1E0PCI,S2JN6,S2JN6,3NJM2BJS4X9Q67M3NPHXD6RQ1E0PCI,3NJM2BJS4X9Q67M3NPHXD6RQ1E0PCI,276286,276286,,,,,,,,,,
,,,,,,,,,,,,,,,,21,AWAHIWLMQ0HUQ,2021-02-17_20h32.43.092,MetaAwareness,2020.1.2,MacIntel,60,3JY0Q5X05K9UOMBFWQIRL53P6VSGGS,AWAHIWLMQ0HUQ,3NJM2BJS4X9Q67M3NPHXD6RQ1E0PCI,S2JN6,S2JN6,3NJM2BJS4X9Q67M3NPHXD6RQ1E0PCI,3NJM2BJS4X9Q67M3NPHXD6RQ1E0PCI,276286,276286,6,8.983255,someone laying underneath a blue beach umbrella on a crowded beach,someone laying underneath a blue beach umbrella on a crowded beach,same,1,9.376445,members of a marching band crossing a track that all have feather plumes at the front of their hats,a cluttered and rustic looking cafe with 10 hanging lights,different
