consent_response.keys,consent_response.rt,key_resp_2.keys,key_resp_2.rt,Airplane_resp.keys,Airplane_resp.rt,Boat_resp.keys,Boat_resp.rt,user_resp.keys,user_resp.rt,trials.thisRepN,trials.thisTrialN,trials.thisN,trials.thisIndex,trials.ran,workerId,trial_num,image_a,image_b,age,gender (m/f),worker_ID,date,expName,psychopyVersion,OS,frameRate,hitId,assignmentId,a,tp_a,b,tp_b,c,tp_c,Cow_resp.keys,Cow_resp.rt,Garden_resp.keys,Garden_resp.rt
space,16.51205,space,37.38057,5,4.32935,5,2.8158,3,6.420885,0,0,0,7,1,A1ING769NXJIHR,22,wolfe_image-022-a_w_outline.jpg,wolfe_image-022-b_w_outline.jpg,44,F,A1ING769NXJIHR,2020-12-08_16h08.37.756,MetaAwareness,2020.1.2,Win32,60,3YO4AH2FPENOQ7U8LKY0URKB2JSQ07,3LO69W1SU4GDWYNAXJK9MG3LMQYLGD,S9OL7,S9OL7,3LO69W1SU4GDWYNAXJK9MG3LMQYLGD,3LO69W1SU4GDWYNAXJK9MG3LMQYLGD,262737,262737,,,,
,,,,,,,,4,5.376355,0,1,1,3,1,A1ING769NXJIHR,9,wolfe_image-009-a_w_outline.jpg,wolfe_image-009-b_w_outline.jpg,44,F,A1ING769NXJIHR,2020-12-08_16h08.37.756,MetaAwareness,2020.1.2,Win32,60,3YO4AH2FPENOQ7U8LKY0URKB2JSQ07,3LO69W1SU4GDWYNAXJK9MG3LMQYLGD,S9OL7,S9OL7,3LO69W1SU4GDWYNAXJK9MG3LMQYLGD,3LO69W1SU4GDWYNAXJK9MG3LMQYLGD,262737,262737,,,,
,,,,,,,,2,6.78342,0,2,2,10,1,A1ING769NXJIHR,31,wolfe_image-031-a_w_outline.jpg,wolfe_image-031-b_w_outline.jpg,44,F,A1ING769NXJIHR,2020-12-08_16h08.37.756,MetaAwareness,2020.1.2,Win32,60,3YO4AH2FPENOQ7U8LKY0URKB2JSQ07,3LO69W1SU4GDWYNAXJK9MG3LMQYLGD,S9OL7,S9OL7,3LO69W1SU4GDWYNAXJK9MG3LMQYLGD,3LO69W1SU4GDWYNAXJK9MG3LMQYLGD,262737,262737,,,,
,,,,,,,,3,6.389655,0,3,3,24,1,A1ING769NXJIHR,87,wolfe_image-112-a_w_outline.jpg,wolfe_image-112-b_w_outline.jpg,44,F,A1ING769NXJIHR,2020-12-08_16h08.37.756,MetaAwareness,2020.1.2,Win32,60,3YO4AH2FPENOQ7U8LKY0URKB2JSQ07,3LO69W1SU4GDWYNAXJK9MG3LMQYLGD,S9OL7,S9OL7,3LO69W1SU4GDWYNAXJK9MG3LMQYLGD,3LO69W1SU4GDWYNAXJK9MG3LMQYLGD,262737,262737,,,,
,,,,,,,,2,10.62701,0,4,4,26,1,A1ING769NXJIHR,97,wolfe_image-122-a_w_outline.jpg,wolfe_image-122-b_w_outline.jpg,44,F,A1ING769NXJIHR,2020-12-08_16h08.37.756,MetaAwareness,2020.1.2,Win32,60,3YO4AH2FPENOQ7U8LKY0URKB2JSQ07,3LO69W1SU4GDWYNAXJK9MG3LMQYLGD,S9OL7,S9OL7,3LO69W1SU4GDWYNAXJK9MG3LMQYLGD,3LO69W1SU4GDWYNAXJK9MG3LMQYLGD,262737,262737,,,,
,,,,,,,,5,4.441265,0,5,5,11,1,A1ING769NXJIHR,32,wolfe_image-032-a_w_outline.jpg,wolfe_image-032-b_w_outline.jpg,44,F,A1ING769NXJIHR,2020-12-08_16h08.37.756,MetaAwareness,2020.1.2,Win32,60,3YO4AH2FPENOQ7U8LKY0URKB2JSQ07,3LO69W1SU4GDWYNAXJK9MG3LMQYLGD,S9OL7,S9OL7,3LO69W1SU4GDWYNAXJK9MG3LMQYLGD,3LO69W1SU4GDWYNAXJK9MG3LMQYLGD,262737,262737,,,,
,,,,,,,,1,6.04084,0,6,6,22,1,A1ING769NXJIHR,83,wolfe_image-108-a_w_outline.jpg,wolfe_image-108-b_w_outline.jpg,44,F,A1ING769NXJIHR,2020-12-08_16h08.37.756,MetaAwareness,2020.1.2,Win32,60,3YO4AH2FPENOQ7U8LKY0URKB2JSQ07,3LO69W1SU4GDWYNAXJK9MG3LMQYLGD,S9OL7,S9OL7,3LO69W1SU4GDWYNAXJK9MG3LMQYLGD,3LO69W1SU4GDWYNAXJK9MG3LMQYLGD,262737,262737,,,,
,,,,,,,,3,7.162885,0,7,7,2,1,A1ING769NXJIHR,6,wolfe_image-006-a_w_outline.jpg,wolfe_image-006-b_w_outline.jpg,44,F,A1ING769NXJIHR,2020-12-08_16h08.37.756,MetaAwareness,2020.1.2,Win32,60,3YO4AH2FPENOQ7U8LKY0URKB2JSQ07,3LO69W1SU4GDWYNAXJK9MG3LMQYLGD,S9OL7,S9OL7,3LO69W1SU4GDWYNAXJK9MG3LMQYLGD,3LO69W1SU4GDWYNAXJK9MG3LMQYLGD,262737,262737,,,,
,,,,,,,,4,6.225415,0,8,8,14,1,A1ING769NXJIHR,41,wolfe_image-041-a_w_outline.jpg,wolfe_image-041-b_w_outline.jpg,44,F,A1ING769NXJIHR,2020-12-08_16h08.37.756,MetaAwareness,2020.1.2,Win32,60,3YO4AH2FPENOQ7U8LKY0URKB2JSQ07,3LO69W1SU4GDWYNAXJK9MG3LMQYLGD,S9OL7,S9OL7,3LO69W1SU4GDWYNAXJK9MG3LMQYLGD,3LO69W1SU4GDWYNAXJK9MG3LMQYLGD,262737,262737,,,,
,,,,,,,,4,4.923815,0,9,9,5,1,A1ING769NXJIHR,11,wolfe_image-011-a_w_outline.jpg,wolfe_image-011-b_w_outline.jpg,44,F,A1ING769NXJIHR,2020-12-08_16h08.37.756,MetaAwareness,2020.1.2,Win32,60,3YO4AH2FPENOQ7U8LKY0URKB2JSQ07,3LO69W1SU4GDWYNAXJK9MG3LMQYLGD,S9OL7,S9OL7,3LO69W1SU4GDWYNAXJK9MG3LMQYLGD,3LO69W1SU4GDWYNAXJK9MG3LMQYLGD,262737,262737,,,,
,,,,,,,,4,7.071345,0,10,10,21,1,A1ING769NXJIHR,77,wolfe_image-102-a_w_outline.jpg,wolfe_image-102-b_w_outline.jpg,44,F,A1ING769NXJIHR,2020-12-08_16h08.37.756,MetaAwareness,2020.1.2,Win32,60,3YO4AH2FPENOQ7U8LKY0URKB2JSQ07,3LO69W1SU4GDWYNAXJK9MG3LMQYLGD,S9OL7,S9OL7,3LO69W1SU4GDWYNAXJK9MG3LMQYLGD,3LO69W1SU4GDWYNAXJK9MG3LMQYLGD,262737,262737,,,,
,,,,,,,,5,3.242775,0,11,11,23,1,A1ING769NXJIHR,86,wolfe_image-111-a_w_outline.jpg,wolfe_image-111-b_w_outline.jpg,44,F,A1ING769NXJIHR,2020-12-08_16h08.37.756,MetaAwareness,2020.1.2,Win32,60,3YO4AH2FPENOQ7U8LKY0URKB2JSQ07,3LO69W1SU4GDWYNAXJK9MG3LMQYLGD,S9OL7,S9OL7,3LO69W1SU4GDWYNAXJK9MG3LMQYLGD,3LO69W1SU4GDWYNAXJK9MG3LMQYLGD,262737,262737,,,,
,,,,,,,,5,3.47272,0,12,12,29,1,A1ING769NXJIHR,112,wolfe_image-137-a_w_outline.jpg,wolfe_image-137-b_w_outline.jpg,44,F,A1ING769NXJIHR,2020-12-08_16h08.37.756,MetaAwareness,2020.1.2,Win32,60,3YO4AH2FPENOQ7U8LKY0URKB2JSQ07,3LO69W1SU4GDWYNAXJK9MG3LMQYLGD,S9OL7,S9OL7,3LO69W1SU4GDWYNAXJK9MG3LMQYLGD,3LO69W1SU4GDWYNAXJK9MG3LMQYLGD,262737,262737,,,,
,,,,,,,,3,8.203015,0,13,13,4,1,A1ING769NXJIHR,10,wolfe_image-010-a_w_outline.jpg,wolfe_image-010-b_w_outline.jpg,44,F,A1ING769NXJIHR,2020-12-08_16h08.37.756,MetaAwareness,2020.1.2,Win32,60,3YO4AH2FPENOQ7U8LKY0URKB2JSQ07,3LO69W1SU4GDWYNAXJK9MG3LMQYLGD,S9OL7,S9OL7,3LO69W1SU4GDWYNAXJK9MG3LMQYLGD,3LO69W1SU4GDWYNAXJK9MG3LMQYLGD,262737,262737,,,,
,,,,,,,,5,5.08744,0,14,14,18,1,A1ING769NXJIHR,70,wolfe_image-095-a_w_outline.jpg,wolfe_image-095-b_w_outline.jpg,44,F,A1ING769NXJIHR,2020-12-08_16h08.37.756,MetaAwareness,2020.1.2,Win32,60,3YO4AH2FPENOQ7U8LKY0URKB2JSQ07,3LO69W1SU4GDWYNAXJK9MG3LMQYLGD,S9OL7,S9OL7,3LO69W1SU4GDWYNAXJK9MG3LMQYLGD,3LO69W1SU4GDWYNAXJK9MG3LMQYLGD,262737,262737,,,,
,,,,,,,,5,5.55882,0,15,15,13,1,A1ING769NXJIHR,37,wolfe_image-037-a_w_outline.jpg,wolfe_image-037-b_w_outline.jpg,44,F,A1ING769NXJIHR,2020-12-08_16h08.37.756,MetaAwareness,2020.1.2,Win32,60,3YO4AH2FPENOQ7U8LKY0URKB2JSQ07,3LO69W1SU4GDWYNAXJK9MG3LMQYLGD,S9OL7,S9OL7,3LO69W1SU4GDWYNAXJK9MG3LMQYLGD,3LO69W1SU4GDWYNAXJK9MG3LMQYLGD,262737,262737,,,,
,,,,,,,,1,5.193175,0,16,16,19,1,A1ING769NXJIHR,72,wolfe_image-097-a_w_outline.jpg,wolfe_image-097-b_w_outline.jpg,44,F,A1ING769NXJIHR,2020-12-08_16h08.37.756,MetaAwareness,2020.1.2,Win32,60,3YO4AH2FPENOQ7U8LKY0URKB2JSQ07,3LO69W1SU4GDWYNAXJK9MG3LMQYLGD,S9OL7,S9OL7,3LO69W1SU4GDWYNAXJK9MG3LMQYLGD,3LO69W1SU4GDWYNAXJK9MG3LMQYLGD,262737,262737,,,,
,,,,,,,,3,4.79111,0,17,17,9,1,A1ING769NXJIHR,28,wolfe_image-028-a_w_outline.jpg,wolfe_image-028-b_w_outline.jpg,44,F,A1ING769NXJIHR,2020-12-08_16h08.37.756,MetaAwareness,2020.1.2,Win32,60,3YO4AH2FPENOQ7U8LKY0URKB2JSQ07,3LO69W1SU4GDWYNAXJK9MG3LMQYLGD,S9OL7,S9OL7,3LO69W1SU4GDWYNAXJK9MG3LMQYLGD,3LO69W1SU4GDWYNAXJK9MG3LMQYLGD,262737,262737,,,,
,,,,,,,,2,9.888345,0,18,18,20,1,A1ING769NXJIHR,74,wolfe_image-099-a_w_outline.jpg,wolfe_image-099-b_w_outline.jpg,44,F,A1ING769NXJIHR,2020-12-08_16h08.37.756,MetaAwareness,2020.1.2,Win32,60,3YO4AH2FPENOQ7U8LKY0URKB2JSQ07,3LO69W1SU4GDWYNAXJK9MG3LMQYLGD,S9OL7,S9OL7,3LO69W1SU4GDWYNAXJK9MG3LMQYLGD,3LO69W1SU4GDWYNAXJK9MG3LMQYLGD,262737,262737,,,,
,,,,,,,,3,4.325065,0,19,19,12,1,A1ING769NXJIHR,34,wolfe_image-034-a_w_outline.jpg,wolfe_image-034-b_w_outline.jpg,44,F,A1ING769NXJIHR,2020-12-08_16h08.37.756,MetaAwareness,2020.1.2,Win32,60,3YO4AH2FPENOQ7U8LKY0URKB2JSQ07,3LO69W1SU4GDWYNAXJK9MG3LMQYLGD,S9OL7,S9OL7,3LO69W1SU4GDWYNAXJK9MG3LMQYLGD,3LO69W1SU4GDWYNAXJK9MG3LMQYLGD,262737,262737,,,,
,,,,,,,,2,5.312795,0,20,20,17,1,A1ING769NXJIHR,69,wolfe_image-094-a_w_outline.jpg,wolfe_image-094-b_w_outline.jpg,44,F,A1ING769NXJIHR,2020-12-08_16h08.37.756,MetaAwareness,2020.1.2,Win32,60,3YO4AH2FPENOQ7U8LKY0URKB2JSQ07,3LO69W1SU4GDWYNAXJK9MG3LMQYLGD,S9OL7,S9OL7,3LO69W1SU4GDWYNAXJK9MG3LMQYLGD,3LO69W1SU4GDWYNAXJK9MG3LMQYLGD,262737,262737,,,,
,,,,,,,,4,9.62075,0,21,21,8,1,A1ING769NXJIHR,24,wolfe_image-024-a_w_outline.jpg,wolfe_image-024-b_w_outline.jpg,44,F,A1ING769NXJIHR,2020-12-08_16h08.37.756,MetaAwareness,2020.1.2,Win32,60,3YO4AH2FPENOQ7U8LKY0URKB2JSQ07,3LO69W1SU4GDWYNAXJK9MG3LMQYLGD,S9OL7,S9OL7,3LO69W1SU4GDWYNAXJK9MG3LMQYLGD,3LO69W1SU4GDWYNAXJK9MG3LMQYLGD,262737,262737,,,,
,,,,,,,,3,6.009465,0,22,22,0,1,A1ING769NXJIHR,1,wolfe_image-001-a_w_outline.jpg,wolfe_image-001-b_w_outline.jpg,44,F,A1ING769NXJIHR,2020-12-08_16h08.37.756,MetaAwareness,2020.1.2,Win32,60,3YO4AH2FPENOQ7U8LKY0URKB2JSQ07,3LO69W1SU4GDWYNAXJK9MG3LMQYLGD,S9OL7,S9OL7,3LO69W1SU4GDWYNAXJK9MG3LMQYLGD,3LO69W1SU4GDWYNAXJK9MG3LMQYLGD,262737,262737,,,,
,,,,,,,,4,4.78583,0,23,23,6,1,A1ING769NXJIHR,14,wolfe_image-014-a_w_outline.jpg,wolfe_image-014-b_w_outline.jpg,44,F,A1ING769NXJIHR,2020-12-08_16h08.37.756,MetaAwareness,2020.1.2,Win32,60,3YO4AH2FPENOQ7U8LKY0URKB2JSQ07,3LO69W1SU4GDWYNAXJK9MG3LMQYLGD,S9OL7,S9OL7,3LO69W1SU4GDWYNAXJK9MG3LMQYLGD,3LO69W1SU4GDWYNAXJK9MG3LMQYLGD,262737,262737,,,,
,,,,,,,,3,4.908955,0,24,24,16,1,A1ING769NXJIHR,60,wolfe_image-085-a_w_outline.jpg,wolfe_image-085-b_w_outline.jpg,44,F,A1ING769NXJIHR,2020-12-08_16h08.37.756,MetaAwareness,2020.1.2,Win32,60,3YO4AH2FPENOQ7U8LKY0URKB2JSQ07,3LO69W1SU4GDWYNAXJK9MG3LMQYLGD,S9OL7,S9OL7,3LO69W1SU4GDWYNAXJK9MG3LMQYLGD,3LO69W1SU4GDWYNAXJK9MG3LMQYLGD,262737,262737,,,,
,,,,,,,,4,12.622545,0,25,25,1,1,A1ING769NXJIHR,2,wolfe_image-002-a_w_outline.jpg,wolfe_image-002-b_w_outline.jpg,44,F,A1ING769NXJIHR,2020-12-08_16h08.37.756,MetaAwareness,2020.1.2,Win32,60,3YO4AH2FPENOQ7U8LKY0URKB2JSQ07,3LO69W1SU4GDWYNAXJK9MG3LMQYLGD,S9OL7,S9OL7,3LO69W1SU4GDWYNAXJK9MG3LMQYLGD,3LO69W1SU4GDWYNAXJK9MG3LMQYLGD,262737,262737,,,,
,,,,,,,,2,7.74384,0,26,26,28,1,A1ING769NXJIHR,108,wolfe_image-133-a_w_outline.jpg,wolfe_image-133-b_w_outline.jpg,44,F,A1ING769NXJIHR,2020-12-08_16h08.37.756,MetaAwareness,2020.1.2,Win32,60,3YO4AH2FPENOQ7U8LKY0URKB2JSQ07,3LO69W1SU4GDWYNAXJK9MG3LMQYLGD,S9OL7,S9OL7,3LO69W1SU4GDWYNAXJK9MG3LMQYLGD,3LO69W1SU4GDWYNAXJK9MG3LMQYLGD,262737,262737,,,,
,,,,,,,,2,11.65848,0,27,27,27,1,A1ING769NXJIHR,100,wolfe_image-125-a_w_outline.jpg,wolfe_image-125-b_w_outline.jpg,44,F,A1ING769NXJIHR,2020-12-08_16h08.37.756,MetaAwareness,2020.1.2,Win32,60,3YO4AH2FPENOQ7U8LKY0URKB2JSQ07,3LO69W1SU4GDWYNAXJK9MG3LMQYLGD,S9OL7,S9OL7,3LO69W1SU4GDWYNAXJK9MG3LMQYLGD,3LO69W1SU4GDWYNAXJK9MG3LMQYLGD,262737,262737,,,,
,,,,,,,,5,4.423375,0,28,28,25,1,A1ING769NXJIHR,92,wolfe_image-117-a_w_outline.jpg,wolfe_image-117-b_w_outline.jpg,44,F,A1ING769NXJIHR,2020-12-08_16h08.37.756,MetaAwareness,2020.1.2,Win32,60,3YO4AH2FPENOQ7U8LKY0URKB2JSQ07,3LO69W1SU4GDWYNAXJK9MG3LMQYLGD,S9OL7,S9OL7,3LO69W1SU4GDWYNAXJK9MG3LMQYLGD,3LO69W1SU4GDWYNAXJK9MG3LMQYLGD,262737,262737,,,,
,,,,,,,,3,3.956095,0,29,29,15,1,A1ING769NXJIHR,49,wolfe_image-049-a_w_outline.jpg,wolfe_image-049-b_w_outline.jpg,44,F,A1ING769NXJIHR,2020-12-08_16h08.37.756,MetaAwareness,2020.1.2,Win32,60,3YO4AH2FPENOQ7U8LKY0URKB2JSQ07,3LO69W1SU4GDWYNAXJK9MG3LMQYLGD,S9OL7,S9OL7,3LO69W1SU4GDWYNAXJK9MG3LMQYLGD,3LO69W1SU4GDWYNAXJK9MG3LMQYLGD,262737,262737,,,,
,,,,,,,,,,,,,,,A1ING769NXJIHR,,,,44,F,A1ING769NXJIHR,2020-12-08_16h08.37.756,MetaAwareness,2020.1.2,Win32,60,3YO4AH2FPENOQ7U8LKY0URKB2JSQ07,3LO69W1SU4GDWYNAXJK9MG3LMQYLGD,S9OL7,S9OL7,3LO69W1SU4GDWYNAXJK9MG3LMQYLGD,3LO69W1SU4GDWYNAXJK9MG3LMQYLGD,262737,262737,5,2.26179,1,9.457165
