consent_response.keys,consent_response.rt,key_resp_2.keys,key_resp_2.rt,Airplane_resp.keys,Airplane_resp.rt,Boat_resp.keys,Boat_resp.rt,user_resp.keys,user_resp.rt,trials.thisRepN,trials.thisTrialN,trials.thisN,trials.thisIndex,trials.ran,workerId,trial_num,image_a,image_b,age,gender (m/f),worker_ID,date,expName,psychopyVersion,OS,frameRate,hitId,assignmentId,a,tp_a,b,tp_b,c,tp_c,Cow_resp.keys,Cow_resp.rt,Garden_resp.keys,Garden_resp.rt
space,17.85261,space,4.34534,5,3.01622,5,0.91465,2,3.888605,0,0,0,3,1,A1PR74OHURJNTO,6,wolfe_image-006-a_w_outline.jpg,wolfe_image-006-b_w_outline.jpg,29,m,A1PR74OHURJNTO,2020-12-08_11h09.27.454,MetaAwareness,2020.1.2,Win32,60,3L7SUC0TTVXX5SWGTRRJDI06SIN0MM,3WI0P0II62VLNC8W0DGX279NFPVRDL,IPIW5,IPIW5,3WI0P0II62VLNC8W0DGX279NFPVRDL,3WI0P0II62VLNC8W0DGX279NFPVRDL,262475,262475,,,,
,,,,,,,,2,3.31837,0,1,1,4,1,A1PR74OHURJNTO,10,wolfe_image-010-a_w_outline.jpg,wolfe_image-010-b_w_outline.jpg,29,m,A1PR74OHURJNTO,2020-12-08_11h09.27.454,MetaAwareness,2020.1.2,Win32,60,3L7SUC0TTVXX5SWGTRRJDI06SIN0MM,3WI0P0II62VLNC8W0DGX279NFPVRDL,IPIW5,IPIW5,3WI0P0II62VLNC8W0DGX279NFPVRDL,3WI0P0II62VLNC8W0DGX279NFPVRDL,262475,262475,,,,
,,,,,,,,1,3.350235,0,2,2,27,1,A1PR74OHURJNTO,103,wolfe_image-128-a_w_outline.jpg,wolfe_image-128-b_w_outline.jpg,29,m,A1PR74OHURJNTO,2020-12-08_11h09.27.454,MetaAwareness,2020.1.2,Win32,60,3L7SUC0TTVXX5SWGTRRJDI06SIN0MM,3WI0P0II62VLNC8W0DGX279NFPVRDL,IPIW5,IPIW5,3WI0P0II62VLNC8W0DGX279NFPVRDL,3WI0P0II62VLNC8W0DGX279NFPVRDL,262475,262475,,,,
,,,,,,,,3,3.534255,0,3,3,23,1,A1PR74OHURJNTO,89,wolfe_image-114-a_w_outline.jpg,wolfe_image-114-b_w_outline.jpg,29,m,A1PR74OHURJNTO,2020-12-08_11h09.27.454,MetaAwareness,2020.1.2,Win32,60,3L7SUC0TTVXX5SWGTRRJDI06SIN0MM,3WI0P0II62VLNC8W0DGX279NFPVRDL,IPIW5,IPIW5,3WI0P0II62VLNC8W0DGX279NFPVRDL,3WI0P0II62VLNC8W0DGX279NFPVRDL,262475,262475,,,,
,,,,,,,,3,4.13458,0,4,4,25,1,A1PR74OHURJNTO,97,wolfe_image-122-a_w_outline.jpg,wolfe_image-122-b_w_outline.jpg,29,m,A1PR74OHURJNTO,2020-12-08_11h09.27.454,MetaAwareness,2020.1.2,Win32,60,3L7SUC0TTVXX5SWGTRRJDI06SIN0MM,3WI0P0II62VLNC8W0DGX279NFPVRDL,IPIW5,IPIW5,3WI0P0II62VLNC8W0DGX279NFPVRDL,3WI0P0II62VLNC8W0DGX279NFPVRDL,262475,262475,,,,
,,,,,,,,4,3.73433,0,5,5,16,1,A1PR74OHURJNTO,52,wolfe_image-077-a_w_outline.jpg,wolfe_image-077-b_w_outline.jpg,29,m,A1PR74OHURJNTO,2020-12-08_11h09.27.454,MetaAwareness,2020.1.2,Win32,60,3L7SUC0TTVXX5SWGTRRJDI06SIN0MM,3WI0P0II62VLNC8W0DGX279NFPVRDL,IPIW5,IPIW5,3WI0P0II62VLNC8W0DGX279NFPVRDL,3WI0P0II62VLNC8W0DGX279NFPVRDL,262475,262475,,,,
,,,,,,,,1,2.83457,0,6,6,8,1,A1PR74OHURJNTO,27,wolfe_image-027-a_w_outline.jpg,wolfe_image-027-b_w_outline.jpg,29,m,A1PR74OHURJNTO,2020-12-08_11h09.27.454,MetaAwareness,2020.1.2,Win32,60,3L7SUC0TTVXX5SWGTRRJDI06SIN0MM,3WI0P0II62VLNC8W0DGX279NFPVRDL,IPIW5,IPIW5,3WI0P0II62VLNC8W0DGX279NFPVRDL,3WI0P0II62VLNC8W0DGX279NFPVRDL,262475,262475,,,,
,,,,,,,,2,3.484525,0,7,7,14,1,A1PR74OHURJNTO,43,wolfe_image-043-a_w_outline.jpg,wolfe_image-043-b_w_outline.jpg,29,m,A1PR74OHURJNTO,2020-12-08_11h09.27.454,MetaAwareness,2020.1.2,Win32,60,3L7SUC0TTVXX5SWGTRRJDI06SIN0MM,3WI0P0II62VLNC8W0DGX279NFPVRDL,IPIW5,IPIW5,3WI0P0II62VLNC8W0DGX279NFPVRDL,3WI0P0II62VLNC8W0DGX279NFPVRDL,262475,262475,,,,
,,,,,,,,1,3.36968,0,8,8,24,1,A1PR74OHURJNTO,96,wolfe_image-121-a_w_outline.jpg,wolfe_image-121-b_w_outline.jpg,29,m,A1PR74OHURJNTO,2020-12-08_11h09.27.454,MetaAwareness,2020.1.2,Win32,60,3L7SUC0TTVXX5SWGTRRJDI06SIN0MM,3WI0P0II62VLNC8W0DGX279NFPVRDL,IPIW5,IPIW5,3WI0P0II62VLNC8W0DGX279NFPVRDL,3WI0P0II62VLNC8W0DGX279NFPVRDL,262475,262475,,,,
,,,,,,,,2,1.31619,0,9,9,12,1,A1PR74OHURJNTO,40,wolfe_image-040-a_w_outline.jpg,wolfe_image-040-b_w_outline.jpg,29,m,A1PR74OHURJNTO,2020-12-08_11h09.27.454,MetaAwareness,2020.1.2,Win32,60,3L7SUC0TTVXX5SWGTRRJDI06SIN0MM,3WI0P0II62VLNC8W0DGX279NFPVRDL,IPIW5,IPIW5,3WI0P0II62VLNC8W0DGX279NFPVRDL,3WI0P0II62VLNC8W0DGX279NFPVRDL,262475,262475,,,,
,,,,,,,,3,0.80512,0,10,10,18,1,A1PR74OHURJNTO,64,wolfe_image-089-a_w_outline.jpg,wolfe_image-089-b_w_outline.jpg,29,m,A1PR74OHURJNTO,2020-12-08_11h09.27.454,MetaAwareness,2020.1.2,Win32,60,3L7SUC0TTVXX5SWGTRRJDI06SIN0MM,3WI0P0II62VLNC8W0DGX279NFPVRDL,IPIW5,IPIW5,3WI0P0II62VLNC8W0DGX279NFPVRDL,3WI0P0II62VLNC8W0DGX279NFPVRDL,262475,262475,,,,
,,,,,,,,4,0.22162,0,11,11,2,1,A1PR74OHURJNTO,5,wolfe_image-005-a_w_outline.jpg,wolfe_image-005-b_w_outline.jpg,29,m,A1PR74OHURJNTO,2020-12-08_11h09.27.454,MetaAwareness,2020.1.2,Win32,60,3L7SUC0TTVXX5SWGTRRJDI06SIN0MM,3WI0P0II62VLNC8W0DGX279NFPVRDL,IPIW5,IPIW5,3WI0P0II62VLNC8W0DGX279NFPVRDL,3WI0P0II62VLNC8W0DGX279NFPVRDL,262475,262475,,,,
,,,,,,,,3,0.13726,0,12,12,28,1,A1PR74OHURJNTO,105,wolfe_image-130-a_w_outline.jpg,wolfe_image-130-b_w_outline.jpg,29,m,A1PR74OHURJNTO,2020-12-08_11h09.27.454,MetaAwareness,2020.1.2,Win32,60,3L7SUC0TTVXX5SWGTRRJDI06SIN0MM,3WI0P0II62VLNC8W0DGX279NFPVRDL,IPIW5,IPIW5,3WI0P0II62VLNC8W0DGX279NFPVRDL,3WI0P0II62VLNC8W0DGX279NFPVRDL,262475,262475,,,,
,,,,,,,,2,0.00463,0,13,13,20,1,A1PR74OHURJNTO,77,wolfe_image-102-a_w_outline.jpg,wolfe_image-102-b_w_outline.jpg,29,m,A1PR74OHURJNTO,2020-12-08_11h09.27.454,MetaAwareness,2020.1.2,Win32,60,3L7SUC0TTVXX5SWGTRRJDI06SIN0MM,3WI0P0II62VLNC8W0DGX279NFPVRDL,IPIW5,IPIW5,3WI0P0II62VLNC8W0DGX279NFPVRDL,3WI0P0II62VLNC8W0DGX279NFPVRDL,262475,262475,,,,
,,,,,,,,4,0.102225,0,14,14,21,1,A1PR74OHURJNTO,82,wolfe_image-107-a_w_outline.jpg,wolfe_image-107-b_w_outline.jpg,29,m,A1PR74OHURJNTO,2020-12-08_11h09.27.454,MetaAwareness,2020.1.2,Win32,60,3L7SUC0TTVXX5SWGTRRJDI06SIN0MM,3WI0P0II62VLNC8W0DGX279NFPVRDL,IPIW5,IPIW5,3WI0P0II62VLNC8W0DGX279NFPVRDL,3WI0P0II62VLNC8W0DGX279NFPVRDL,262475,262475,,,,
,,,,,,,,3,0.117865,0,15,15,0,1,A1PR74OHURJNTO,1,wolfe_image-001-a_w_outline.jpg,wolfe_image-001-b_w_outline.jpg,29,m,A1PR74OHURJNTO,2020-12-08_11h09.27.454,MetaAwareness,2020.1.2,Win32,60,3L7SUC0TTVXX5SWGTRRJDI06SIN0MM,3WI0P0II62VLNC8W0DGX279NFPVRDL,IPIW5,IPIW5,3WI0P0II62VLNC8W0DGX279NFPVRDL,3WI0P0II62VLNC8W0DGX279NFPVRDL,262475,262475,,,,
,,,,,,,,4,0.169495,0,16,16,1,1,A1PR74OHURJNTO,3,wolfe_image-003-a_w_outline.jpg,wolfe_image-003-b_w_outline.jpg,29,m,A1PR74OHURJNTO,2020-12-08_11h09.27.454,MetaAwareness,2020.1.2,Win32,60,3L7SUC0TTVXX5SWGTRRJDI06SIN0MM,3WI0P0II62VLNC8W0DGX279NFPVRDL,IPIW5,IPIW5,3WI0P0II62VLNC8W0DGX279NFPVRDL,3WI0P0II62VLNC8W0DGX279NFPVRDL,262475,262475,,,,
,,,,,,,,4,0.125955,0,17,17,29,1,A1PR74OHURJNTO,110,wolfe_image-135-a_w_outline.jpg,wolfe_image-135-b_w_outline.jpg,29,m,A1PR74OHURJNTO,2020-12-08_11h09.27.454,MetaAwareness,2020.1.2,Win32,60,3L7SUC0TTVXX5SWGTRRJDI06SIN0MM,3WI0P0II62VLNC8W0DGX279NFPVRDL,IPIW5,IPIW5,3WI0P0II62VLNC8W0DGX279NFPVRDL,3WI0P0II62VLNC8W0DGX279NFPVRDL,262475,262475,,,,
,,,,,,,,4,0.193245,0,18,18,22,1,A1PR74OHURJNTO,84,wolfe_image-109-a_w_outline.jpg,wolfe_image-109-b_w_outline.jpg,29,m,A1PR74OHURJNTO,2020-12-08_11h09.27.454,MetaAwareness,2020.1.2,Win32,60,3L7SUC0TTVXX5SWGTRRJDI06SIN0MM,3WI0P0II62VLNC8W0DGX279NFPVRDL,IPIW5,IPIW5,3WI0P0II62VLNC8W0DGX279NFPVRDL,3WI0P0II62VLNC8W0DGX279NFPVRDL,262475,262475,,,,
,,,,,,,,2,0.05121,0,19,19,9,1,A1PR74OHURJNTO,28,wolfe_image-028-a_w_outline.jpg,wolfe_image-028-b_w_outline.jpg,29,m,A1PR74OHURJNTO,2020-12-08_11h09.27.454,MetaAwareness,2020.1.2,Win32,60,3L7SUC0TTVXX5SWGTRRJDI06SIN0MM,3WI0P0II62VLNC8W0DGX279NFPVRDL,IPIW5,IPIW5,3WI0P0II62VLNC8W0DGX279NFPVRDL,3WI0P0II62VLNC8W0DGX279NFPVRDL,262475,262475,,,,
,,,,,,,,2,0.71868,0,20,20,19,1,A1PR74OHURJNTO,66,wolfe_image-091-a_w_outline.jpg,wolfe_image-091-b_w_outline.jpg,29,m,A1PR74OHURJNTO,2020-12-08_11h09.27.454,MetaAwareness,2020.1.2,Win32,60,3L7SUC0TTVXX5SWGTRRJDI06SIN0MM,3WI0P0II62VLNC8W0DGX279NFPVRDL,IPIW5,IPIW5,3WI0P0II62VLNC8W0DGX279NFPVRDL,3WI0P0II62VLNC8W0DGX279NFPVRDL,262475,262475,,,,
,,,,,,,,3,0.00095,0,21,21,17,1,A1PR74OHURJNTO,63,wolfe_image-088-a_w_outline.jpg,wolfe_image-088-b_w_outline.jpg,29,m,A1PR74OHURJNTO,2020-12-08_11h09.27.454,MetaAwareness,2020.1.2,Win32,60,3L7SUC0TTVXX5SWGTRRJDI06SIN0MM,3WI0P0II62VLNC8W0DGX279NFPVRDL,IPIW5,IPIW5,3WI0P0II62VLNC8W0DGX279NFPVRDL,3WI0P0II62VLNC8W0DGX279NFPVRDL,262475,262475,,,,
,,,,,,,,4,0.222435,0,22,22,13,1,A1PR74OHURJNTO,41,wolfe_image-041-a_w_outline.jpg,wolfe_image-041-b_w_outline.jpg,29,m,A1PR74OHURJNTO,2020-12-08_11h09.27.454,MetaAwareness,2020.1.2,Win32,60,3L7SUC0TTVXX5SWGTRRJDI06SIN0MM,3WI0P0II62VLNC8W0DGX279NFPVRDL,IPIW5,IPIW5,3WI0P0II62VLNC8W0DGX279NFPVRDL,3WI0P0II62VLNC8W0DGX279NFPVRDL,262475,262475,,,,
,,,,,,,,2,0.14094,0,23,23,6,1,A1PR74OHURJNTO,16,wolfe_image-016-a_w_outline.jpg,wolfe_image-016-b_w_outline.jpg,29,m,A1PR74OHURJNTO,2020-12-08_11h09.27.454,MetaAwareness,2020.1.2,Win32,60,3L7SUC0TTVXX5SWGTRRJDI06SIN0MM,3WI0P0II62VLNC8W0DGX279NFPVRDL,IPIW5,IPIW5,3WI0P0II62VLNC8W0DGX279NFPVRDL,3WI0P0II62VLNC8W0DGX279NFPVRDL,262475,262475,,,,
,,,,,,,,4,0.26576,0,24,24,7,1,A1PR74OHURJNTO,21,wolfe_image-021-a_w_outline.jpg,wolfe_image-021-b_w_outline.jpg,29,m,A1PR74OHURJNTO,2020-12-08_11h09.27.454,MetaAwareness,2020.1.2,Win32,60,3L7SUC0TTVXX5SWGTRRJDI06SIN0MM,3WI0P0II62VLNC8W0DGX279NFPVRDL,IPIW5,IPIW5,3WI0P0II62VLNC8W0DGX279NFPVRDL,3WI0P0II62VLNC8W0DGX279NFPVRDL,262475,262475,,,,
,,,,,,,,4,0.451715,0,25,25,10,1,A1PR74OHURJNTO,33,wolfe_image-033-a_w_outline.jpg,wolfe_image-033-b_w_outline.jpg,29,m,A1PR74OHURJNTO,2020-12-08_11h09.27.454,MetaAwareness,2020.1.2,Win32,60,3L7SUC0TTVXX5SWGTRRJDI06SIN0MM,3WI0P0II62VLNC8W0DGX279NFPVRDL,IPIW5,IPIW5,3WI0P0II62VLNC8W0DGX279NFPVRDL,3WI0P0II62VLNC8W0DGX279NFPVRDL,262475,262475,,,,
,,,,,,,,3,0.447535,0,26,26,15,1,A1PR74OHURJNTO,45,wolfe_image-045-a_w_outline.jpg,wolfe_image-045-b_w_outline.jpg,29,m,A1PR74OHURJNTO,2020-12-08_11h09.27.454,MetaAwareness,2020.1.2,Win32,60,3L7SUC0TTVXX5SWGTRRJDI06SIN0MM,3WI0P0II62VLNC8W0DGX279NFPVRDL,IPIW5,IPIW5,3WI0P0II62VLNC8W0DGX279NFPVRDL,3WI0P0II62VLNC8W0DGX279NFPVRDL,262475,262475,,,,
,,,,,,,,4,0.00426,0,27,27,26,1,A1PR74OHURJNTO,100,wolfe_image-125-a_w_outline.jpg,wolfe_image-125-b_w_outline.jpg,29,m,A1PR74OHURJNTO,2020-12-08_11h09.27.454,MetaAwareness,2020.1.2,Win32,60,3L7SUC0TTVXX5SWGTRRJDI06SIN0MM,3WI0P0II62VLNC8W0DGX279NFPVRDL,IPIW5,IPIW5,3WI0P0II62VLNC8W0DGX279NFPVRDL,3WI0P0II62VLNC8W0DGX279NFPVRDL,262475,262475,,,,
,,,,,,,,3,0.444365,0,28,28,11,1,A1PR74OHURJNTO,35,wolfe_image-035-a_w_outline.jpg,wolfe_image-035-b_w_outline.jpg,29,m,A1PR74OHURJNTO,2020-12-08_11h09.27.454,MetaAwareness,2020.1.2,Win32,60,3L7SUC0TTVXX5SWGTRRJDI06SIN0MM,3WI0P0II62VLNC8W0DGX279NFPVRDL,IPIW5,IPIW5,3WI0P0II62VLNC8W0DGX279NFPVRDL,3WI0P0II62VLNC8W0DGX279NFPVRDL,262475,262475,,,,
,,,,,,,,4,0.009085,0,29,29,5,1,A1PR74OHURJNTO,13,wolfe_image-013-a_w_outline.jpg,wolfe_image-013-b_w_outline.jpg,29,m,A1PR74OHURJNTO,2020-12-08_11h09.27.454,MetaAwareness,2020.1.2,Win32,60,3L7SUC0TTVXX5SWGTRRJDI06SIN0MM,3WI0P0II62VLNC8W0DGX279NFPVRDL,IPIW5,IPIW5,3WI0P0II62VLNC8W0DGX279NFPVRDL,3WI0P0II62VLNC8W0DGX279NFPVRDL,262475,262475,,,,
,,,,,,,,,,,,,,,A1PR74OHURJNTO,,,,29,m,A1PR74OHURJNTO,2020-12-08_11h09.27.454,MetaAwareness,2020.1.2,Win32,60,3L7SUC0TTVXX5SWGTRRJDI06SIN0MM,3WI0P0II62VLNC8W0DGX279NFPVRDL,IPIW5,IPIW5,3WI0P0II62VLNC8W0DGX279NFPVRDL,3WI0P0II62VLNC8W0DGX279NFPVRDL,262475,262475,4,0.073455,3,0.0207
