consent_response.keys,consent_response.rt,key_resp_2.keys,key_resp_2.rt,Airplane_resp.keys,Airplane_resp.rt,Boat_resp.keys,Boat_resp.rt,user_resp.keys,user_resp.rt,trials.thisRepN,trials.thisTrialN,trials.thisN,trials.thisIndex,trials.ran,workerId,trial_num,image_a,image_b,age,gender (m/f),worker_ID,date,expName,psychopyVersion,OS,frameRate,hitId,assignmentId,a,tp_a,b,tp_b,c,tp_c,Cow_resp.keys,Cow_resp.rt,Garden_resp.keys,Garden_resp.rt
space,2.3533,space,0.78482,5,1.262795,5,0.502045,4,3.10432,0,0,0,11,1,A1U3TT3VMH9FU9,45,wolfe_image-045-a_w_outline.jpg,wolfe_image-045-b_w_outline.jpg,26,female,A1U3TT3VMH9FU9,2020-12-08_20h23.59.134,MetaAwareness,2020.1.2,MacIntel,60,337F8MIIM0GH127ANNRNROJ66RD042,3GDTJDAPVVEI91ZDEX90UG1CYDS8M5,PJDG7,PJDG7,3GDTJDAPVVEI91ZDEX90UG1CYDS8M5,3GDTJDAPVVEI91ZDEX90UG1CYDS8M5,262737,262737,,,,
,,,,,,,,5,2.916565,0,1,1,1,1,A1U3TT3VMH9FU9,6,wolfe_image-006-a_w_outline.jpg,wolfe_image-006-b_w_outline.jpg,26,female,A1U3TT3VMH9FU9,2020-12-08_20h23.59.134,MetaAwareness,2020.1.2,MacIntel,60,337F8MIIM0GH127ANNRNROJ66RD042,3GDTJDAPVVEI91ZDEX90UG1CYDS8M5,PJDG7,PJDG7,3GDTJDAPVVEI91ZDEX90UG1CYDS8M5,3GDTJDAPVVEI91ZDEX90UG1CYDS8M5,262737,262737,,,,
,,,,,,,,5,4.308585,0,2,2,21,1,A1U3TT3VMH9FU9,76,wolfe_image-101-a_w_outline.jpg,wolfe_image-101-b_w_outline.jpg,26,female,A1U3TT3VMH9FU9,2020-12-08_20h23.59.134,MetaAwareness,2020.1.2,MacIntel,60,337F8MIIM0GH127ANNRNROJ66RD042,3GDTJDAPVVEI91ZDEX90UG1CYDS8M5,PJDG7,PJDG7,3GDTJDAPVVEI91ZDEX90UG1CYDS8M5,3GDTJDAPVVEI91ZDEX90UG1CYDS8M5,262737,262737,,,,
,,,,,,,,4,2.792435,0,3,3,14,1,A1U3TT3VMH9FU9,57,wolfe_image-082-a_w_outline.jpg,wolfe_image-082-b_w_outline.jpg,26,female,A1U3TT3VMH9FU9,2020-12-08_20h23.59.134,MetaAwareness,2020.1.2,MacIntel,60,337F8MIIM0GH127ANNRNROJ66RD042,3GDTJDAPVVEI91ZDEX90UG1CYDS8M5,PJDG7,PJDG7,3GDTJDAPVVEI91ZDEX90UG1CYDS8M5,3GDTJDAPVVEI91ZDEX90UG1CYDS8M5,262737,262737,,,,
,,,,,,,,4,3.10969,0,4,4,26,1,A1U3TT3VMH9FU9,102,wolfe_image-127-a_w_outline.jpg,wolfe_image-127-b_w_outline.jpg,26,female,A1U3TT3VMH9FU9,2020-12-08_20h23.59.134,MetaAwareness,2020.1.2,MacIntel,60,337F8MIIM0GH127ANNRNROJ66RD042,3GDTJDAPVVEI91ZDEX90UG1CYDS8M5,PJDG7,PJDG7,3GDTJDAPVVEI91ZDEX90UG1CYDS8M5,3GDTJDAPVVEI91ZDEX90UG1CYDS8M5,262737,262737,,,,
,,,,,,,,5,2.956755,0,5,5,23,1,A1U3TT3VMH9FU9,89,wolfe_image-114-a_w_outline.jpg,wolfe_image-114-b_w_outline.jpg,26,female,A1U3TT3VMH9FU9,2020-12-08_20h23.59.134,MetaAwareness,2020.1.2,MacIntel,60,337F8MIIM0GH127ANNRNROJ66RD042,3GDTJDAPVVEI91ZDEX90UG1CYDS8M5,PJDG7,PJDG7,3GDTJDAPVVEI91ZDEX90UG1CYDS8M5,3GDTJDAPVVEI91ZDEX90UG1CYDS8M5,262737,262737,,,,
,,,,,,,,3,4.35007,0,6,6,7,1,A1U3TT3VMH9FU9,25,wolfe_image-025-a_w_outline.jpg,wolfe_image-025-b_w_outline.jpg,26,female,A1U3TT3VMH9FU9,2020-12-08_20h23.59.134,MetaAwareness,2020.1.2,MacIntel,60,337F8MIIM0GH127ANNRNROJ66RD042,3GDTJDAPVVEI91ZDEX90UG1CYDS8M5,PJDG7,PJDG7,3GDTJDAPVVEI91ZDEX90UG1CYDS8M5,3GDTJDAPVVEI91ZDEX90UG1CYDS8M5,262737,262737,,,,
,,,,,,,,2,3.42262,0,7,7,12,1,A1U3TT3VMH9FU9,47,wolfe_image-047-a_w_outline.jpg,wolfe_image-047-b_w_outline.jpg,26,female,A1U3TT3VMH9FU9,2020-12-08_20h23.59.134,MetaAwareness,2020.1.2,MacIntel,60,337F8MIIM0GH127ANNRNROJ66RD042,3GDTJDAPVVEI91ZDEX90UG1CYDS8M5,PJDG7,PJDG7,3GDTJDAPVVEI91ZDEX90UG1CYDS8M5,3GDTJDAPVVEI91ZDEX90UG1CYDS8M5,262737,262737,,,,
,,,,,,,,3,3.320935,0,8,8,27,1,A1U3TT3VMH9FU9,105,wolfe_image-130-a_w_outline.jpg,wolfe_image-130-b_w_outline.jpg,26,female,A1U3TT3VMH9FU9,2020-12-08_20h23.59.134,MetaAwareness,2020.1.2,MacIntel,60,337F8MIIM0GH127ANNRNROJ66RD042,3GDTJDAPVVEI91ZDEX90UG1CYDS8M5,PJDG7,PJDG7,3GDTJDAPVVEI91ZDEX90UG1CYDS8M5,3GDTJDAPVVEI91ZDEX90UG1CYDS8M5,262737,262737,,,,
,,,,,,,,1,3.422685,0,9,9,19,1,A1U3TT3VMH9FU9,71,wolfe_image-096-a_w_outline.jpg,wolfe_image-096-b_w_outline.jpg,26,female,A1U3TT3VMH9FU9,2020-12-08_20h23.59.134,MetaAwareness,2020.1.2,MacIntel,60,337F8MIIM0GH127ANNRNROJ66RD042,3GDTJDAPVVEI91ZDEX90UG1CYDS8M5,PJDG7,PJDG7,3GDTJDAPVVEI91ZDEX90UG1CYDS8M5,3GDTJDAPVVEI91ZDEX90UG1CYDS8M5,262737,262737,,,,
,,,,,,,,3,3.72133,0,10,10,28,1,A1U3TT3VMH9FU9,106,wolfe_image-131-a_w_outline.jpg,wolfe_image-131-b_w_outline.jpg,26,female,A1U3TT3VMH9FU9,2020-12-08_20h23.59.134,MetaAwareness,2020.1.2,MacIntel,60,337F8MIIM0GH127ANNRNROJ66RD042,3GDTJDAPVVEI91ZDEX90UG1CYDS8M5,PJDG7,PJDG7,3GDTJDAPVVEI91ZDEX90UG1CYDS8M5,3GDTJDAPVVEI91ZDEX90UG1CYDS8M5,262737,262737,,,,
,,,,,,,,3,3.411895,0,11,11,18,1,A1U3TT3VMH9FU9,70,wolfe_image-095-a_w_outline.jpg,wolfe_image-095-b_w_outline.jpg,26,female,A1U3TT3VMH9FU9,2020-12-08_20h23.59.134,MetaAwareness,2020.1.2,MacIntel,60,337F8MIIM0GH127ANNRNROJ66RD042,3GDTJDAPVVEI91ZDEX90UG1CYDS8M5,PJDG7,PJDG7,3GDTJDAPVVEI91ZDEX90UG1CYDS8M5,3GDTJDAPVVEI91ZDEX90UG1CYDS8M5,262737,262737,,,,
,,,,,,,,2,5.70495,0,12,12,0,1,A1U3TT3VMH9FU9,5,wolfe_image-005-a_w_outline.jpg,wolfe_image-005-b_w_outline.jpg,26,female,A1U3TT3VMH9FU9,2020-12-08_20h23.59.134,MetaAwareness,2020.1.2,MacIntel,60,337F8MIIM0GH127ANNRNROJ66RD042,3GDTJDAPVVEI91ZDEX90UG1CYDS8M5,PJDG7,PJDG7,3GDTJDAPVVEI91ZDEX90UG1CYDS8M5,3GDTJDAPVVEI91ZDEX90UG1CYDS8M5,262737,262737,,,,
,,,,,,,,2,3.33793,0,13,13,5,1,A1U3TT3VMH9FU9,17,wolfe_image-017-a_w_outline.jpg,wolfe_image-017-b_w_outline.jpg,26,female,A1U3TT3VMH9FU9,2020-12-08_20h23.59.134,MetaAwareness,2020.1.2,MacIntel,60,337F8MIIM0GH127ANNRNROJ66RD042,3GDTJDAPVVEI91ZDEX90UG1CYDS8M5,PJDG7,PJDG7,3GDTJDAPVVEI91ZDEX90UG1CYDS8M5,3GDTJDAPVVEI91ZDEX90UG1CYDS8M5,262737,262737,,,,
,,,,,,,,3,2.80862,0,14,14,24,1,A1U3TT3VMH9FU9,92,wolfe_image-117-a_w_outline.jpg,wolfe_image-117-b_w_outline.jpg,26,female,A1U3TT3VMH9FU9,2020-12-08_20h23.59.134,MetaAwareness,2020.1.2,MacIntel,60,337F8MIIM0GH127ANNRNROJ66RD042,3GDTJDAPVVEI91ZDEX90UG1CYDS8M5,PJDG7,PJDG7,3GDTJDAPVVEI91ZDEX90UG1CYDS8M5,3GDTJDAPVVEI91ZDEX90UG1CYDS8M5,262737,262737,,,,
,,,,,,,,3,3.64361,0,15,15,16,1,A1U3TT3VMH9FU9,63,wolfe_image-088-a_w_outline.jpg,wolfe_image-088-b_w_outline.jpg,26,female,A1U3TT3VMH9FU9,2020-12-08_20h23.59.134,MetaAwareness,2020.1.2,MacIntel,60,337F8MIIM0GH127ANNRNROJ66RD042,3GDTJDAPVVEI91ZDEX90UG1CYDS8M5,PJDG7,PJDG7,3GDTJDAPVVEI91ZDEX90UG1CYDS8M5,3GDTJDAPVVEI91ZDEX90UG1CYDS8M5,262737,262737,,,,
,,,,,,,,4,2.506355,0,16,16,29,1,A1U3TT3VMH9FU9,112,wolfe_image-137-a_w_outline.jpg,wolfe_image-137-b_w_outline.jpg,26,female,A1U3TT3VMH9FU9,2020-12-08_20h23.59.134,MetaAwareness,2020.1.2,MacIntel,60,337F8MIIM0GH127ANNRNROJ66RD042,3GDTJDAPVVEI91ZDEX90UG1CYDS8M5,PJDG7,PJDG7,3GDTJDAPVVEI91ZDEX90UG1CYDS8M5,3GDTJDAPVVEI91ZDEX90UG1CYDS8M5,262737,262737,,,,
,,,,,,,,3,2.553355,0,17,17,22,1,A1U3TT3VMH9FU9,87,wolfe_image-112-a_w_outline.jpg,wolfe_image-112-b_w_outline.jpg,26,female,A1U3TT3VMH9FU9,2020-12-08_20h23.59.134,MetaAwareness,2020.1.2,MacIntel,60,337F8MIIM0GH127ANNRNROJ66RD042,3GDTJDAPVVEI91ZDEX90UG1CYDS8M5,PJDG7,PJDG7,3GDTJDAPVVEI91ZDEX90UG1CYDS8M5,3GDTJDAPVVEI91ZDEX90UG1CYDS8M5,262737,262737,,,,
,,,,,,,,2,3.856925,0,18,18,8,1,A1U3TT3VMH9FU9,31,wolfe_image-031-a_w_outline.jpg,wolfe_image-031-b_w_outline.jpg,26,female,A1U3TT3VMH9FU9,2020-12-08_20h23.59.134,MetaAwareness,2020.1.2,MacIntel,60,337F8MIIM0GH127ANNRNROJ66RD042,3GDTJDAPVVEI91ZDEX90UG1CYDS8M5,PJDG7,PJDG7,3GDTJDAPVVEI91ZDEX90UG1CYDS8M5,3GDTJDAPVVEI91ZDEX90UG1CYDS8M5,262737,262737,,,,
,,,,,,,,4,4.156485,0,19,19,3,1,A1U3TT3VMH9FU9,13,wolfe_image-013-a_w_outline.jpg,wolfe_image-013-b_w_outline.jpg,26,female,A1U3TT3VMH9FU9,2020-12-08_20h23.59.134,MetaAwareness,2020.1.2,MacIntel,60,337F8MIIM0GH127ANNRNROJ66RD042,3GDTJDAPVVEI91ZDEX90UG1CYDS8M5,PJDG7,PJDG7,3GDTJDAPVVEI91ZDEX90UG1CYDS8M5,3GDTJDAPVVEI91ZDEX90UG1CYDS8M5,262737,262737,,,,
,,,,,,,,3,2.88856,0,20,20,2,1,A1U3TT3VMH9FU9,9,wolfe_image-009-a_w_outline.jpg,wolfe_image-009-b_w_outline.jpg,26,female,A1U3TT3VMH9FU9,2020-12-08_20h23.59.134,MetaAwareness,2020.1.2,MacIntel,60,337F8MIIM0GH127ANNRNROJ66RD042,3GDTJDAPVVEI91ZDEX90UG1CYDS8M5,PJDG7,PJDG7,3GDTJDAPVVEI91ZDEX90UG1CYDS8M5,3GDTJDAPVVEI91ZDEX90UG1CYDS8M5,262737,262737,,,,
,,,,,,,,1,2.837065,0,21,21,4,1,A1U3TT3VMH9FU9,16,wolfe_image-016-a_w_outline.jpg,wolfe_image-016-b_w_outline.jpg,26,female,A1U3TT3VMH9FU9,2020-12-08_20h23.59.134,MetaAwareness,2020.1.2,MacIntel,60,337F8MIIM0GH127ANNRNROJ66RD042,3GDTJDAPVVEI91ZDEX90UG1CYDS8M5,PJDG7,PJDG7,3GDTJDAPVVEI91ZDEX90UG1CYDS8M5,3GDTJDAPVVEI91ZDEX90UG1CYDS8M5,262737,262737,,,,
,,,,,,,,4,4.32352,0,22,22,25,1,A1U3TT3VMH9FU9,97,wolfe_image-122-a_w_outline.jpg,wolfe_image-122-b_w_outline.jpg,26,female,A1U3TT3VMH9FU9,2020-12-08_20h23.59.134,MetaAwareness,2020.1.2,MacIntel,60,337F8MIIM0GH127ANNRNROJ66RD042,3GDTJDAPVVEI91ZDEX90UG1CYDS8M5,PJDG7,PJDG7,3GDTJDAPVVEI91ZDEX90UG1CYDS8M5,3GDTJDAPVVEI91ZDEX90UG1CYDS8M5,262737,262737,,,,
,,,,,,,,3,5.754875,0,23,23,17,1,A1U3TT3VMH9FU9,68,wolfe_image-093-a_w_outline.jpg,wolfe_image-093-b_w_outline.jpg,26,female,A1U3TT3VMH9FU9,2020-12-08_20h23.59.134,MetaAwareness,2020.1.2,MacIntel,60,337F8MIIM0GH127ANNRNROJ66RD042,3GDTJDAPVVEI91ZDEX90UG1CYDS8M5,PJDG7,PJDG7,3GDTJDAPVVEI91ZDEX90UG1CYDS8M5,3GDTJDAPVVEI91ZDEX90UG1CYDS8M5,262737,262737,,,,
,,,,,,,,4,3.85427,0,24,24,9,1,A1U3TT3VMH9FU9,42,wolfe_image-042-a_w_outline.jpg,wolfe_image-042-b_w_outline.jpg,26,female,A1U3TT3VMH9FU9,2020-12-08_20h23.59.134,MetaAwareness,2020.1.2,MacIntel,60,337F8MIIM0GH127ANNRNROJ66RD042,3GDTJDAPVVEI91ZDEX90UG1CYDS8M5,PJDG7,PJDG7,3GDTJDAPVVEI91ZDEX90UG1CYDS8M5,3GDTJDAPVVEI91ZDEX90UG1CYDS8M5,262737,262737,,,,
,,,,,,,,3,3.572995,0,25,25,20,1,A1U3TT3VMH9FU9,74,wolfe_image-099-a_w_outline.jpg,wolfe_image-099-b_w_outline.jpg,26,female,A1U3TT3VMH9FU9,2020-12-08_20h23.59.134,MetaAwareness,2020.1.2,MacIntel,60,337F8MIIM0GH127ANNRNROJ66RD042,3GDTJDAPVVEI91ZDEX90UG1CYDS8M5,PJDG7,PJDG7,3GDTJDAPVVEI91ZDEX90UG1CYDS8M5,3GDTJDAPVVEI91ZDEX90UG1CYDS8M5,262737,262737,,,,
,,,,,,,,5,2.621435,0,26,26,6,1,A1U3TT3VMH9FU9,19,wolfe_image-019-a_w_outline.jpg,wolfe_image-019-b_w_outline.jpg,26,female,A1U3TT3VMH9FU9,2020-12-08_20h23.59.134,MetaAwareness,2020.1.2,MacIntel,60,337F8MIIM0GH127ANNRNROJ66RD042,3GDTJDAPVVEI91ZDEX90UG1CYDS8M5,PJDG7,PJDG7,3GDTJDAPVVEI91ZDEX90UG1CYDS8M5,3GDTJDAPVVEI91ZDEX90UG1CYDS8M5,262737,262737,,,,
,,,,,,,,3,2.34858,0,27,27,15,1,A1U3TT3VMH9FU9,62,wolfe_image-087-a_w_outline.jpg,wolfe_image-087-b_w_outline.jpg,26,female,A1U3TT3VMH9FU9,2020-12-08_20h23.59.134,MetaAwareness,2020.1.2,MacIntel,60,337F8MIIM0GH127ANNRNROJ66RD042,3GDTJDAPVVEI91ZDEX90UG1CYDS8M5,PJDG7,PJDG7,3GDTJDAPVVEI91ZDEX90UG1CYDS8M5,3GDTJDAPVVEI91ZDEX90UG1CYDS8M5,262737,262737,,,,
,,,,,,,,4,1.88423,0,28,28,13,1,A1U3TT3VMH9FU9,52,wolfe_image-077-a_w_outline.jpg,wolfe_image-077-b_w_outline.jpg,26,female,A1U3TT3VMH9FU9,2020-12-08_20h23.59.134,MetaAwareness,2020.1.2,MacIntel,60,337F8MIIM0GH127ANNRNROJ66RD042,3GDTJDAPVVEI91ZDEX90UG1CYDS8M5,PJDG7,PJDG7,3GDTJDAPVVEI91ZDEX90UG1CYDS8M5,3GDTJDAPVVEI91ZDEX90UG1CYDS8M5,262737,262737,,,,
,,,,,,,,3,5.45936,0,29,29,10,1,A1U3TT3VMH9FU9,43,wolfe_image-043-a_w_outline.jpg,wolfe_image-043-b_w_outline.jpg,26,female,A1U3TT3VMH9FU9,2020-12-08_20h23.59.134,MetaAwareness,2020.1.2,MacIntel,60,337F8MIIM0GH127ANNRNROJ66RD042,3GDTJDAPVVEI91ZDEX90UG1CYDS8M5,PJDG7,PJDG7,3GDTJDAPVVEI91ZDEX90UG1CYDS8M5,3GDTJDAPVVEI91ZDEX90UG1CYDS8M5,262737,262737,,,,
,,,,,,,,,,,,,,,A1U3TT3VMH9FU9,,,,26,female,A1U3TT3VMH9FU9,2020-12-08_20h23.59.134,MetaAwareness,2020.1.2,MacIntel,60,337F8MIIM0GH127ANNRNROJ66RD042,3GDTJDAPVVEI91ZDEX90UG1CYDS8M5,PJDG7,PJDG7,3GDTJDAPVVEI91ZDEX90UG1CYDS8M5,3GDTJDAPVVEI91ZDEX90UG1CYDS8M5,262737,262737,5,1.175415,2,3.6385
