consent_response.keys,consent_response.rt,key_resp_2.keys,key_resp_2.rt,Airplane_resp.keys,Airplane_resp.rt,Boat_resp.keys,Boat_resp.rt,user_resp.keys,user_resp.rt,trials.thisRepN,trials.thisTrialN,trials.thisN,trials.thisIndex,trials.ran,workerId,trial_num,image_a,image_b,age,gender (m/f),worker_ID,date,expName,psychopyVersion,OS,frameRate,hitId,assignmentId,a,tp_a,b,tp_b,c,tp_c,Cow_resp.keys,Cow_resp.rt,Garden_resp.keys,Garden_resp.rt
space,72.621045,space,50.968875,5,8.254345,5,1.679095,5,4.723595,0,0,0,9,1,A277UVT82WHF65,45,wolfe_image-045-a_w_outline.jpg,wolfe_image-045-b_w_outline.jpg,39,M,A277UVT82WHF65,2020-12-08_17h48.51.596,MetaAwareness,2020.1.2,Win32,60,3D06DR5226MT65UYLTOC2OCJ148AMW,3LKC68YZ3B6HZ5G7PG4J00T3BJWWO7,Z6KL7,Z6KL7,3LKC68YZ3B6HZ5G7PG4J00T3BJWWO7,3LKC68YZ3B6HZ5G7PG4J00T3BJWWO7,262737,262737,,,,
,,,,,,,,5,3.70298,0,1,1,13,1,A277UVT82WHF65,57,wolfe_image-082-a_w_outline.jpg,wolfe_image-082-b_w_outline.jpg,39,M,A277UVT82WHF65,2020-12-08_17h48.51.596,MetaAwareness,2020.1.2,Win32,60,3D06DR5226MT65UYLTOC2OCJ148AMW,3LKC68YZ3B6HZ5G7PG4J00T3BJWWO7,Z6KL7,Z6KL7,3LKC68YZ3B6HZ5G7PG4J00T3BJWWO7,3LKC68YZ3B6HZ5G7PG4J00T3BJWWO7,262737,262737,,,,
,,,,,,,,5,7.43706,0,2,2,1,1,A277UVT82WHF65,10,wolfe_image-010-a_w_outline.jpg,wolfe_image-010-b_w_outline.jpg,39,M,A277UVT82WHF65,2020-12-08_17h48.51.596,MetaAwareness,2020.1.2,Win32,60,3D06DR5226MT65UYLTOC2OCJ148AMW,3LKC68YZ3B6HZ5G7PG4J00T3BJWWO7,Z6KL7,Z6KL7,3LKC68YZ3B6HZ5G7PG4J00T3BJWWO7,3LKC68YZ3B6HZ5G7PG4J00T3BJWWO7,262737,262737,,,,
,,,,,,,,3,5.190655,0,3,3,3,1,A277UVT82WHF65,20,wolfe_image-020-a_w_outline.jpg,wolfe_image-020-b_w_outline.jpg,39,M,A277UVT82WHF65,2020-12-08_17h48.51.596,MetaAwareness,2020.1.2,Win32,60,3D06DR5226MT65UYLTOC2OCJ148AMW,3LKC68YZ3B6HZ5G7PG4J00T3BJWWO7,Z6KL7,Z6KL7,3LKC68YZ3B6HZ5G7PG4J00T3BJWWO7,3LKC68YZ3B6HZ5G7PG4J00T3BJWWO7,262737,262737,,,,
,,,,,,,,3,3.00424,0,4,4,27,1,A277UVT82WHF65,106,wolfe_image-131-a_w_outline.jpg,wolfe_image-131-b_w_outline.jpg,39,M,A277UVT82WHF65,2020-12-08_17h48.51.596,MetaAwareness,2020.1.2,Win32,60,3D06DR5226MT65UYLTOC2OCJ148AMW,3LKC68YZ3B6HZ5G7PG4J00T3BJWWO7,Z6KL7,Z6KL7,3LKC68YZ3B6HZ5G7PG4J00T3BJWWO7,3LKC68YZ3B6HZ5G7PG4J00T3BJWWO7,262737,262737,,,,
,,,,,,,,4,5.03965,0,5,5,12,1,A277UVT82WHF65,56,wolfe_image-081-a_w_outline.jpg,wolfe_image-081-b_w_outline.jpg,39,M,A277UVT82WHF65,2020-12-08_17h48.51.596,MetaAwareness,2020.1.2,Win32,60,3D06DR5226MT65UYLTOC2OCJ148AMW,3LKC68YZ3B6HZ5G7PG4J00T3BJWWO7,Z6KL7,Z6KL7,3LKC68YZ3B6HZ5G7PG4J00T3BJWWO7,3LKC68YZ3B6HZ5G7PG4J00T3BJWWO7,262737,262737,,,,
,,,,,,,,2,4.633355,0,6,6,21,1,A277UVT82WHF65,82,wolfe_image-107-a_w_outline.jpg,wolfe_image-107-b_w_outline.jpg,39,M,A277UVT82WHF65,2020-12-08_17h48.51.596,MetaAwareness,2020.1.2,Win32,60,3D06DR5226MT65UYLTOC2OCJ148AMW,3LKC68YZ3B6HZ5G7PG4J00T3BJWWO7,Z6KL7,Z6KL7,3LKC68YZ3B6HZ5G7PG4J00T3BJWWO7,3LKC68YZ3B6HZ5G7PG4J00T3BJWWO7,262737,262737,,,,
,,,,,,,,3,5.353045,0,7,7,24,1,A277UVT82WHF65,94,wolfe_image-119-a_w_outline.jpg,wolfe_image-119-b_w_outline.jpg,39,M,A277UVT82WHF65,2020-12-08_17h48.51.596,MetaAwareness,2020.1.2,Win32,60,3D06DR5226MT65UYLTOC2OCJ148AMW,3LKC68YZ3B6HZ5G7PG4J00T3BJWWO7,Z6KL7,Z6KL7,3LKC68YZ3B6HZ5G7PG4J00T3BJWWO7,3LKC68YZ3B6HZ5G7PG4J00T3BJWWO7,262737,262737,,,,
,,,,,,,,2,5.70301,0,8,8,14,1,A277UVT82WHF65,58,wolfe_image-083-a_w_outline.jpg,wolfe_image-083-b_w_outline.jpg,39,M,A277UVT82WHF65,2020-12-08_17h48.51.596,MetaAwareness,2020.1.2,Win32,60,3D06DR5226MT65UYLTOC2OCJ148AMW,3LKC68YZ3B6HZ5G7PG4J00T3BJWWO7,Z6KL7,Z6KL7,3LKC68YZ3B6HZ5G7PG4J00T3BJWWO7,3LKC68YZ3B6HZ5G7PG4J00T3BJWWO7,262737,262737,,,,
,,,,,,,,4,3.92156,0,9,9,16,1,A277UVT82WHF65,64,wolfe_image-089-a_w_outline.jpg,wolfe_image-089-b_w_outline.jpg,39,M,A277UVT82WHF65,2020-12-08_17h48.51.596,MetaAwareness,2020.1.2,Win32,60,3D06DR5226MT65UYLTOC2OCJ148AMW,3LKC68YZ3B6HZ5G7PG4J00T3BJWWO7,Z6KL7,Z6KL7,3LKC68YZ3B6HZ5G7PG4J00T3BJWWO7,3LKC68YZ3B6HZ5G7PG4J00T3BJWWO7,262737,262737,,,,
,,,,,,,,3,3.91995,0,10,10,4,1,A277UVT82WHF65,28,wolfe_image-028-a_w_outline.jpg,wolfe_image-028-b_w_outline.jpg,39,M,A277UVT82WHF65,2020-12-08_17h48.51.596,MetaAwareness,2020.1.2,Win32,60,3D06DR5226MT65UYLTOC2OCJ148AMW,3LKC68YZ3B6HZ5G7PG4J00T3BJWWO7,Z6KL7,Z6KL7,3LKC68YZ3B6HZ5G7PG4J00T3BJWWO7,3LKC68YZ3B6HZ5G7PG4J00T3BJWWO7,262737,262737,,,,
,,,,,,,,5,3.570235,0,11,11,15,1,A277UVT82WHF65,63,wolfe_image-088-a_w_outline.jpg,wolfe_image-088-b_w_outline.jpg,39,M,A277UVT82WHF65,2020-12-08_17h48.51.596,MetaAwareness,2020.1.2,Win32,60,3D06DR5226MT65UYLTOC2OCJ148AMW,3LKC68YZ3B6HZ5G7PG4J00T3BJWWO7,Z6KL7,Z6KL7,3LKC68YZ3B6HZ5G7PG4J00T3BJWWO7,3LKC68YZ3B6HZ5G7PG4J00T3BJWWO7,262737,262737,,,,
,,,,,,,,2,5.05294,0,12,12,10,1,A277UVT82WHF65,48,wolfe_image-048-a_w_outline.jpg,wolfe_image-048-b_w_outline.jpg,39,M,A277UVT82WHF65,2020-12-08_17h48.51.596,MetaAwareness,2020.1.2,Win32,60,3D06DR5226MT65UYLTOC2OCJ148AMW,3LKC68YZ3B6HZ5G7PG4J00T3BJWWO7,Z6KL7,Z6KL7,3LKC68YZ3B6HZ5G7PG4J00T3BJWWO7,3LKC68YZ3B6HZ5G7PG4J00T3BJWWO7,262737,262737,,,,
,,,,,,,,5,4.235655,0,13,13,22,1,A277UVT82WHF65,88,wolfe_image-113-a_w_outline.jpg,wolfe_image-113-b_w_outline.jpg,39,M,A277UVT82WHF65,2020-12-08_17h48.51.596,MetaAwareness,2020.1.2,Win32,60,3D06DR5226MT65UYLTOC2OCJ148AMW,3LKC68YZ3B6HZ5G7PG4J00T3BJWWO7,Z6KL7,Z6KL7,3LKC68YZ3B6HZ5G7PG4J00T3BJWWO7,3LKC68YZ3B6HZ5G7PG4J00T3BJWWO7,262737,262737,,,,
,,,,,,,,4,5.2861,0,14,14,20,1,A277UVT82WHF65,81,wolfe_image-106-a_w_outline.jpg,wolfe_image-106-b_w_outline.jpg,39,M,A277UVT82WHF65,2020-12-08_17h48.51.596,MetaAwareness,2020.1.2,Win32,60,3D06DR5226MT65UYLTOC2OCJ148AMW,3LKC68YZ3B6HZ5G7PG4J00T3BJWWO7,Z6KL7,Z6KL7,3LKC68YZ3B6HZ5G7PG4J00T3BJWWO7,3LKC68YZ3B6HZ5G7PG4J00T3BJWWO7,262737,262737,,,,
,,,,,,,,2,7.572875,0,15,15,23,1,A277UVT82WHF65,93,wolfe_image-118-a_w_outline.jpg,wolfe_image-118-b_w_outline.jpg,39,M,A277UVT82WHF65,2020-12-08_17h48.51.596,MetaAwareness,2020.1.2,Win32,60,3D06DR5226MT65UYLTOC2OCJ148AMW,3LKC68YZ3B6HZ5G7PG4J00T3BJWWO7,Z6KL7,Z6KL7,3LKC68YZ3B6HZ5G7PG4J00T3BJWWO7,3LKC68YZ3B6HZ5G7PG4J00T3BJWWO7,262737,262737,,,,
,,,,,,,,5,3.638145,0,16,16,0,1,A277UVT82WHF65,4,wolfe_image-004-a_w_outline.jpg,wolfe_image-004-b_w_outline.jpg,39,M,A277UVT82WHF65,2020-12-08_17h48.51.596,MetaAwareness,2020.1.2,Win32,60,3D06DR5226MT65UYLTOC2OCJ148AMW,3LKC68YZ3B6HZ5G7PG4J00T3BJWWO7,Z6KL7,Z6KL7,3LKC68YZ3B6HZ5G7PG4J00T3BJWWO7,3LKC68YZ3B6HZ5G7PG4J00T3BJWWO7,262737,262737,,,,
,,,,,,,,4,5.57047,0,17,17,7,1,A277UVT82WHF65,39,wolfe_image-039-a_w_outline.jpg,wolfe_image-039-b_w_outline.jpg,39,M,A277UVT82WHF65,2020-12-08_17h48.51.596,MetaAwareness,2020.1.2,Win32,60,3D06DR5226MT65UYLTOC2OCJ148AMW,3LKC68YZ3B6HZ5G7PG4J00T3BJWWO7,Z6KL7,Z6KL7,3LKC68YZ3B6HZ5G7PG4J00T3BJWWO7,3LKC68YZ3B6HZ5G7PG4J00T3BJWWO7,262737,262737,,,,
,,,,,,,,5,5.25323,0,18,18,29,1,A277UVT82WHF65,111,wolfe_image-136-a_w_outline.jpg,wolfe_image-136-b_w_outline.jpg,39,M,A277UVT82WHF65,2020-12-08_17h48.51.596,MetaAwareness,2020.1.2,Win32,60,3D06DR5226MT65UYLTOC2OCJ148AMW,3LKC68YZ3B6HZ5G7PG4J00T3BJWWO7,Z6KL7,Z6KL7,3LKC68YZ3B6HZ5G7PG4J00T3BJWWO7,3LKC68YZ3B6HZ5G7PG4J00T3BJWWO7,262737,262737,,,,
,,,,,,,,4,6.038035,0,19,19,25,1,A277UVT82WHF65,98,wolfe_image-123-a_w_outline.jpg,wolfe_image-123-b_w_outline.jpg,39,M,A277UVT82WHF65,2020-12-08_17h48.51.596,MetaAwareness,2020.1.2,Win32,60,3D06DR5226MT65UYLTOC2OCJ148AMW,3LKC68YZ3B6HZ5G7PG4J00T3BJWWO7,Z6KL7,Z6KL7,3LKC68YZ3B6HZ5G7PG4J00T3BJWWO7,3LKC68YZ3B6HZ5G7PG4J00T3BJWWO7,262737,262737,,,,
,,,,,,,,2,3.969535,0,20,20,19,1,A277UVT82WHF65,78,wolfe_image-103-a_w_outline.jpg,wolfe_image-103-b_w_outline.jpg,39,M,A277UVT82WHF65,2020-12-08_17h48.51.596,MetaAwareness,2020.1.2,Win32,60,3D06DR5226MT65UYLTOC2OCJ148AMW,3LKC68YZ3B6HZ5G7PG4J00T3BJWWO7,Z6KL7,Z6KL7,3LKC68YZ3B6HZ5G7PG4J00T3BJWWO7,3LKC68YZ3B6HZ5G7PG4J00T3BJWWO7,262737,262737,,,,
,,,,,,,,4,5.319995,0,21,21,8,1,A277UVT82WHF65,42,wolfe_image-042-a_w_outline.jpg,wolfe_image-042-b_w_outline.jpg,39,M,A277UVT82WHF65,2020-12-08_17h48.51.596,MetaAwareness,2020.1.2,Win32,60,3D06DR5226MT65UYLTOC2OCJ148AMW,3LKC68YZ3B6HZ5G7PG4J00T3BJWWO7,Z6KL7,Z6KL7,3LKC68YZ3B6HZ5G7PG4J00T3BJWWO7,3LKC68YZ3B6HZ5G7PG4J00T3BJWWO7,262737,262737,,,,
,,,,,,,,4,5.06978,0,22,22,26,1,A277UVT82WHF65,101,wolfe_image-126-a_w_outline.jpg,wolfe_image-126-b_w_outline.jpg,39,M,A277UVT82WHF65,2020-12-08_17h48.51.596,MetaAwareness,2020.1.2,Win32,60,3D06DR5226MT65UYLTOC2OCJ148AMW,3LKC68YZ3B6HZ5G7PG4J00T3BJWWO7,Z6KL7,Z6KL7,3LKC68YZ3B6HZ5G7PG4J00T3BJWWO7,3LKC68YZ3B6HZ5G7PG4J00T3BJWWO7,262737,262737,,,,
,,,,,,,,4,6.47036,0,23,23,18,1,A277UVT82WHF65,76,wolfe_image-101-a_w_outline.jpg,wolfe_image-101-b_w_outline.jpg,39,M,A277UVT82WHF65,2020-12-08_17h48.51.596,MetaAwareness,2020.1.2,Win32,60,3D06DR5226MT65UYLTOC2OCJ148AMW,3LKC68YZ3B6HZ5G7PG4J00T3BJWWO7,Z6KL7,Z6KL7,3LKC68YZ3B6HZ5G7PG4J00T3BJWWO7,3LKC68YZ3B6HZ5G7PG4J00T3BJWWO7,262737,262737,,,,
,,,,,,,,4,3.10232,0,24,24,17,1,A277UVT82WHF65,67,wolfe_image-092-a_w_outline.jpg,wolfe_image-092-b_w_outline.jpg,39,M,A277UVT82WHF65,2020-12-08_17h48.51.596,MetaAwareness,2020.1.2,Win32,60,3D06DR5226MT65UYLTOC2OCJ148AMW,3LKC68YZ3B6HZ5G7PG4J00T3BJWWO7,Z6KL7,Z6KL7,3LKC68YZ3B6HZ5G7PG4J00T3BJWWO7,3LKC68YZ3B6HZ5G7PG4J00T3BJWWO7,262737,262737,,,,
,,,,,,,,5,3.56934,0,25,25,11,1,A277UVT82WHF65,55,wolfe_image-080-a_w_outline.jpg,wolfe_image-080-b_w_outline.jpg,39,M,A277UVT82WHF65,2020-12-08_17h48.51.596,MetaAwareness,2020.1.2,Win32,60,3D06DR5226MT65UYLTOC2OCJ148AMW,3LKC68YZ3B6HZ5G7PG4J00T3BJWWO7,Z6KL7,Z6KL7,3LKC68YZ3B6HZ5G7PG4J00T3BJWWO7,3LKC68YZ3B6HZ5G7PG4J00T3BJWWO7,262737,262737,,,,
,,,,,,,,4,3.603215,0,26,26,28,1,A277UVT82WHF65,110,wolfe_image-135-a_w_outline.jpg,wolfe_image-135-b_w_outline.jpg,39,M,A277UVT82WHF65,2020-12-08_17h48.51.596,MetaAwareness,2020.1.2,Win32,60,3D06DR5226MT65UYLTOC2OCJ148AMW,3LKC68YZ3B6HZ5G7PG4J00T3BJWWO7,Z6KL7,Z6KL7,3LKC68YZ3B6HZ5G7PG4J00T3BJWWO7,3LKC68YZ3B6HZ5G7PG4J00T3BJWWO7,262737,262737,,,,
,,,,,,,,4,3.43805,0,27,27,6,1,A277UVT82WHF65,30,wolfe_image-030-a_w_outline.jpg,wolfe_image-030-b_w_outline.jpg,39,M,A277UVT82WHF65,2020-12-08_17h48.51.596,MetaAwareness,2020.1.2,Win32,60,3D06DR5226MT65UYLTOC2OCJ148AMW,3LKC68YZ3B6HZ5G7PG4J00T3BJWWO7,Z6KL7,Z6KL7,3LKC68YZ3B6HZ5G7PG4J00T3BJWWO7,3LKC68YZ3B6HZ5G7PG4J00T3BJWWO7,262737,262737,,,,
,,,,,,,,5,3.76992,0,28,28,2,1,A277UVT82WHF65,12,wolfe_image-012-a_w_outline.jpg,wolfe_image-012-b_w_outline.jpg,39,M,A277UVT82WHF65,2020-12-08_17h48.51.596,MetaAwareness,2020.1.2,Win32,60,3D06DR5226MT65UYLTOC2OCJ148AMW,3LKC68YZ3B6HZ5G7PG4J00T3BJWWO7,Z6KL7,Z6KL7,3LKC68YZ3B6HZ5G7PG4J00T3BJWWO7,3LKC68YZ3B6HZ5G7PG4J00T3BJWWO7,262737,262737,,,,
,,,,,,,,4,3.519835,0,29,29,5,1,A277UVT82WHF65,29,wolfe_image-029-a_w_outline.jpg,wolfe_image-029-b_w_outline.jpg,39,M,A277UVT82WHF65,2020-12-08_17h48.51.596,MetaAwareness,2020.1.2,Win32,60,3D06DR5226MT65UYLTOC2OCJ148AMW,3LKC68YZ3B6HZ5G7PG4J00T3BJWWO7,Z6KL7,Z6KL7,3LKC68YZ3B6HZ5G7PG4J00T3BJWWO7,3LKC68YZ3B6HZ5G7PG4J00T3BJWWO7,262737,262737,,,,
,,,,,,,,,,,,,,,A277UVT82WHF65,,,,39,M,A277UVT82WHF65,2020-12-08_17h48.51.596,MetaAwareness,2020.1.2,Win32,60,3D06DR5226MT65UYLTOC2OCJ148AMW,3LKC68YZ3B6HZ5G7PG4J00T3BJWWO7,Z6KL7,Z6KL7,3LKC68YZ3B6HZ5G7PG4J00T3BJWWO7,3LKC68YZ3B6HZ5G7PG4J00T3BJWWO7,262737,262737,5,1.68683,2,5.871545
