consent_response.keys,consent_response.rt,key_resp_2.keys,key_resp_2.rt,Airplane_resp.keys,Airplane_resp.rt,Boat_resp.keys,Boat_resp.rt,user_resp.keys,user_resp.rt,trials.thisRepN,trials.thisTrialN,trials.thisN,trials.thisIndex,trials.ran,workerId,trial_num,image_a,image_b,age,gender (m/f),worker_ID,date,expName,psychopyVersion,OS,frameRate,hitId,assignmentId,a,tp_a,b,tp_b,c,tp_c,Cow_resp.keys,Cow_resp.rt,Garden_resp.keys,Garden_resp.rt
space,4.651,space,26.362,5,3.816,5,2.44,3,4.417,0,0,0,19,1,A2H91DERNK3CAL,72,wolfe_image-097-a_w_outline.jpg,wolfe_image-097-b_w_outline.jpg,32,m,A2H91DERNK3CAL,2020-12-10_11h13.59.291,MetaAwareness,2020.1.2,Win32,60,3UYRNV2KIU2L5ZMJ0WJYJCVOG8VN8M,3N2BF7Y2VRXB2C06H1367TUB11IMH8,2F2N0,2F2N0,3N2BF7Y2VRXB2C06H1367TUB11IMH8,3N2BF7Y2VRXB2C06H1367TUB11IMH8,263090,263090,,,,
,,,,,,,,4,4.957,0,1,1,6,1,A2H91DERNK3CAL,25,wolfe_image-025-a_w_outline.jpg,wolfe_image-025-b_w_outline.jpg,32,m,A2H91DERNK3CAL,2020-12-10_11h13.59.291,MetaAwareness,2020.1.2,Win32,60,3UYRNV2KIU2L5ZMJ0WJYJCVOG8VN8M,3N2BF7Y2VRXB2C06H1367TUB11IMH8,2F2N0,2F2N0,3N2BF7Y2VRXB2C06H1367TUB11IMH8,3N2BF7Y2VRXB2C06H1367TUB11IMH8,263090,263090,,,,
,,,,,,,,3,5.467,0,2,2,23,1,A2H91DERNK3CAL,89,wolfe_image-114-a_w_outline.jpg,wolfe_image-114-b_w_outline.jpg,32,m,A2H91DERNK3CAL,2020-12-10_11h13.59.291,MetaAwareness,2020.1.2,Win32,60,3UYRNV2KIU2L5ZMJ0WJYJCVOG8VN8M,3N2BF7Y2VRXB2C06H1367TUB11IMH8,2F2N0,2F2N0,3N2BF7Y2VRXB2C06H1367TUB11IMH8,3N2BF7Y2VRXB2C06H1367TUB11IMH8,263090,263090,,,,
,,,,,,,,2,3.833,0,3,3,9,1,A2H91DERNK3CAL,38,wolfe_image-038-a_w_outline.jpg,wolfe_image-038-b_w_outline.jpg,32,m,A2H91DERNK3CAL,2020-12-10_11h13.59.291,MetaAwareness,2020.1.2,Win32,60,3UYRNV2KIU2L5ZMJ0WJYJCVOG8VN8M,3N2BF7Y2VRXB2C06H1367TUB11IMH8,2F2N0,2F2N0,3N2BF7Y2VRXB2C06H1367TUB11IMH8,3N2BF7Y2VRXB2C06H1367TUB11IMH8,263090,263090,,,,
,,,,,,,,4,4.907,0,4,4,7,1,A2H91DERNK3CAL,33,wolfe_image-033-a_w_outline.jpg,wolfe_image-033-b_w_outline.jpg,32,m,A2H91DERNK3CAL,2020-12-10_11h13.59.291,MetaAwareness,2020.1.2,Win32,60,3UYRNV2KIU2L5ZMJ0WJYJCVOG8VN8M,3N2BF7Y2VRXB2C06H1367TUB11IMH8,2F2N0,2F2N0,3N2BF7Y2VRXB2C06H1367TUB11IMH8,3N2BF7Y2VRXB2C06H1367TUB11IMH8,263090,263090,,,,
,,,,,,,,3,3.612,0,5,5,22,1,A2H91DERNK3CAL,88,wolfe_image-113-a_w_outline.jpg,wolfe_image-113-b_w_outline.jpg,32,m,A2H91DERNK3CAL,2020-12-10_11h13.59.291,MetaAwareness,2020.1.2,Win32,60,3UYRNV2KIU2L5ZMJ0WJYJCVOG8VN8M,3N2BF7Y2VRXB2C06H1367TUB11IMH8,2F2N0,2F2N0,3N2BF7Y2VRXB2C06H1367TUB11IMH8,3N2BF7Y2VRXB2C06H1367TUB11IMH8,263090,263090,,,,
,,,,,,,,2,4.874,0,6,6,26,1,A2H91DERNK3CAL,96,wolfe_image-121-a_w_outline.jpg,wolfe_image-121-b_w_outline.jpg,32,m,A2H91DERNK3CAL,2020-12-10_11h13.59.291,MetaAwareness,2020.1.2,Win32,60,3UYRNV2KIU2L5ZMJ0WJYJCVOG8VN8M,3N2BF7Y2VRXB2C06H1367TUB11IMH8,2F2N0,2F2N0,3N2BF7Y2VRXB2C06H1367TUB11IMH8,3N2BF7Y2VRXB2C06H1367TUB11IMH8,263090,263090,,,,
,,,,,,,,2,3.743,0,7,7,21,1,A2H91DERNK3CAL,78,wolfe_image-103-a_w_outline.jpg,wolfe_image-103-b_w_outline.jpg,32,m,A2H91DERNK3CAL,2020-12-10_11h13.59.291,MetaAwareness,2020.1.2,Win32,60,3UYRNV2KIU2L5ZMJ0WJYJCVOG8VN8M,3N2BF7Y2VRXB2C06H1367TUB11IMH8,2F2N0,2F2N0,3N2BF7Y2VRXB2C06H1367TUB11IMH8,3N2BF7Y2VRXB2C06H1367TUB11IMH8,263090,263090,,,,
,,,,,,,,2,4.262,0,8,8,2,1,A2H91DERNK3CAL,10,wolfe_image-010-a_w_outline.jpg,wolfe_image-010-b_w_outline.jpg,32,m,A2H91DERNK3CAL,2020-12-10_11h13.59.291,MetaAwareness,2020.1.2,Win32,60,3UYRNV2KIU2L5ZMJ0WJYJCVOG8VN8M,3N2BF7Y2VRXB2C06H1367TUB11IMH8,2F2N0,2F2N0,3N2BF7Y2VRXB2C06H1367TUB11IMH8,3N2BF7Y2VRXB2C06H1367TUB11IMH8,263090,263090,,,,
,,,,,,,,3,5.148,0,9,9,17,1,A2H91DERNK3CAL,65,wolfe_image-090-a_w_outline.jpg,wolfe_image-090-b_w_outline.jpg,32,m,A2H91DERNK3CAL,2020-12-10_11h13.59.291,MetaAwareness,2020.1.2,Win32,60,3UYRNV2KIU2L5ZMJ0WJYJCVOG8VN8M,3N2BF7Y2VRXB2C06H1367TUB11IMH8,2F2N0,2F2N0,3N2BF7Y2VRXB2C06H1367TUB11IMH8,3N2BF7Y2VRXB2C06H1367TUB11IMH8,263090,263090,,,,
,,,,,,,,1,3.465,0,10,10,11,1,A2H91DERNK3CAL,47,wolfe_image-047-a_w_outline.jpg,wolfe_image-047-b_w_outline.jpg,32,m,A2H91DERNK3CAL,2020-12-10_11h13.59.291,MetaAwareness,2020.1.2,Win32,60,3UYRNV2KIU2L5ZMJ0WJYJCVOG8VN8M,3N2BF7Y2VRXB2C06H1367TUB11IMH8,2F2N0,2F2N0,3N2BF7Y2VRXB2C06H1367TUB11IMH8,3N2BF7Y2VRXB2C06H1367TUB11IMH8,263090,263090,,,,
,,,,,,,,2,3.363,0,11,11,29,1,A2H91DERNK3CAL,107,wolfe_image-132-a_w_outline.jpg,wolfe_image-132-b_w_outline.jpg,32,m,A2H91DERNK3CAL,2020-12-10_11h13.59.291,MetaAwareness,2020.1.2,Win32,60,3UYRNV2KIU2L5ZMJ0WJYJCVOG8VN8M,3N2BF7Y2VRXB2C06H1367TUB11IMH8,2F2N0,2F2N0,3N2BF7Y2VRXB2C06H1367TUB11IMH8,3N2BF7Y2VRXB2C06H1367TUB11IMH8,263090,263090,,,,
,,,,,,,,1,9.465,0,12,12,25,1,A2H91DERNK3CAL,94,wolfe_image-119-a_w_outline.jpg,wolfe_image-119-b_w_outline.jpg,32,m,A2H91DERNK3CAL,2020-12-10_11h13.59.291,MetaAwareness,2020.1.2,Win32,60,3UYRNV2KIU2L5ZMJ0WJYJCVOG8VN8M,3N2BF7Y2VRXB2C06H1367TUB11IMH8,2F2N0,2F2N0,3N2BF7Y2VRXB2C06H1367TUB11IMH8,3N2BF7Y2VRXB2C06H1367TUB11IMH8,263090,263090,,,,
,,,,,,,,1,3.461,0,13,13,18,1,A2H91DERNK3CAL,68,wolfe_image-093-a_w_outline.jpg,wolfe_image-093-b_w_outline.jpg,32,m,A2H91DERNK3CAL,2020-12-10_11h13.59.291,MetaAwareness,2020.1.2,Win32,60,3UYRNV2KIU2L5ZMJ0WJYJCVOG8VN8M,3N2BF7Y2VRXB2C06H1367TUB11IMH8,2F2N0,2F2N0,3N2BF7Y2VRXB2C06H1367TUB11IMH8,3N2BF7Y2VRXB2C06H1367TUB11IMH8,263090,263090,,,,
,,,,,,,,2,5.094,0,14,14,28,1,A2H91DERNK3CAL,99,wolfe_image-124-a_w_outline.jpg,wolfe_image-124-b_w_outline.jpg,32,m,A2H91DERNK3CAL,2020-12-10_11h13.59.291,MetaAwareness,2020.1.2,Win32,60,3UYRNV2KIU2L5ZMJ0WJYJCVOG8VN8M,3N2BF7Y2VRXB2C06H1367TUB11IMH8,2F2N0,2F2N0,3N2BF7Y2VRXB2C06H1367TUB11IMH8,3N2BF7Y2VRXB2C06H1367TUB11IMH8,263090,263090,,,,
,,,,,,,,4,3.748,0,15,15,14,1,A2H91DERNK3CAL,55,wolfe_image-080-a_w_outline.jpg,wolfe_image-080-b_w_outline.jpg,32,m,A2H91DERNK3CAL,2020-12-10_11h13.59.291,MetaAwareness,2020.1.2,Win32,60,3UYRNV2KIU2L5ZMJ0WJYJCVOG8VN8M,3N2BF7Y2VRXB2C06H1367TUB11IMH8,2F2N0,2F2N0,3N2BF7Y2VRXB2C06H1367TUB11IMH8,3N2BF7Y2VRXB2C06H1367TUB11IMH8,263090,263090,,,,
,,,,,,,,4,2.739,0,16,16,10,1,A2H91DERNK3CAL,41,wolfe_image-041-a_w_outline.jpg,wolfe_image-041-b_w_outline.jpg,32,m,A2H91DERNK3CAL,2020-12-10_11h13.59.291,MetaAwareness,2020.1.2,Win32,60,3UYRNV2KIU2L5ZMJ0WJYJCVOG8VN8M,3N2BF7Y2VRXB2C06H1367TUB11IMH8,2F2N0,2F2N0,3N2BF7Y2VRXB2C06H1367TUB11IMH8,3N2BF7Y2VRXB2C06H1367TUB11IMH8,263090,263090,,,,
,,,,,,,,2,4.083,0,17,17,4,1,A2H91DERNK3CAL,20,wolfe_image-020-a_w_outline.jpg,wolfe_image-020-b_w_outline.jpg,32,m,A2H91DERNK3CAL,2020-12-10_11h13.59.291,MetaAwareness,2020.1.2,Win32,60,3UYRNV2KIU2L5ZMJ0WJYJCVOG8VN8M,3N2BF7Y2VRXB2C06H1367TUB11IMH8,2F2N0,2F2N0,3N2BF7Y2VRXB2C06H1367TUB11IMH8,3N2BF7Y2VRXB2C06H1367TUB11IMH8,263090,263090,,,,
,,,,,,,,3,5.026,0,18,18,24,1,A2H91DERNK3CAL,92,wolfe_image-117-a_w_outline.jpg,wolfe_image-117-b_w_outline.jpg,32,m,A2H91DERNK3CAL,2020-12-10_11h13.59.291,MetaAwareness,2020.1.2,Win32,60,3UYRNV2KIU2L5ZMJ0WJYJCVOG8VN8M,3N2BF7Y2VRXB2C06H1367TUB11IMH8,2F2N0,2F2N0,3N2BF7Y2VRXB2C06H1367TUB11IMH8,3N2BF7Y2VRXB2C06H1367TUB11IMH8,263090,263090,,,,
,,,,,,,,4,6.062,0,19,19,3,1,A2H91DERNK3CAL,11,wolfe_image-011-a_w_outline.jpg,wolfe_image-011-b_w_outline.jpg,32,m,A2H91DERNK3CAL,2020-12-10_11h13.59.291,MetaAwareness,2020.1.2,Win32,60,3UYRNV2KIU2L5ZMJ0WJYJCVOG8VN8M,3N2BF7Y2VRXB2C06H1367TUB11IMH8,2F2N0,2F2N0,3N2BF7Y2VRXB2C06H1367TUB11IMH8,3N2BF7Y2VRXB2C06H1367TUB11IMH8,263090,263090,,,,
,,,,,,,,4,3.516,0,20,20,8,1,A2H91DERNK3CAL,34,wolfe_image-034-a_w_outline.jpg,wolfe_image-034-b_w_outline.jpg,32,m,A2H91DERNK3CAL,2020-12-10_11h13.59.291,MetaAwareness,2020.1.2,Win32,60,3UYRNV2KIU2L5ZMJ0WJYJCVOG8VN8M,3N2BF7Y2VRXB2C06H1367TUB11IMH8,2F2N0,2F2N0,3N2BF7Y2VRXB2C06H1367TUB11IMH8,3N2BF7Y2VRXB2C06H1367TUB11IMH8,263090,263090,,,,
,,,,,,,,3,4.362,0,21,21,1,1,A2H91DERNK3CAL,9,wolfe_image-009-a_w_outline.jpg,wolfe_image-009-b_w_outline.jpg,32,m,A2H91DERNK3CAL,2020-12-10_11h13.59.291,MetaAwareness,2020.1.2,Win32,60,3UYRNV2KIU2L5ZMJ0WJYJCVOG8VN8M,3N2BF7Y2VRXB2C06H1367TUB11IMH8,2F2N0,2F2N0,3N2BF7Y2VRXB2C06H1367TUB11IMH8,3N2BF7Y2VRXB2C06H1367TUB11IMH8,263090,263090,,,,
,,,,,,,,2,5.609,0,22,22,20,1,A2H91DERNK3CAL,76,wolfe_image-101-a_w_outline.jpg,wolfe_image-101-b_w_outline.jpg,32,m,A2H91DERNK3CAL,2020-12-10_11h13.59.291,MetaAwareness,2020.1.2,Win32,60,3UYRNV2KIU2L5ZMJ0WJYJCVOG8VN8M,3N2BF7Y2VRXB2C06H1367TUB11IMH8,2F2N0,2F2N0,3N2BF7Y2VRXB2C06H1367TUB11IMH8,3N2BF7Y2VRXB2C06H1367TUB11IMH8,263090,263090,,,,
,,,,,,,,2,5.129,0,23,23,0,1,A2H91DERNK3CAL,2,wolfe_image-002-a_w_outline.jpg,wolfe_image-002-b_w_outline.jpg,32,m,A2H91DERNK3CAL,2020-12-10_11h13.59.291,MetaAwareness,2020.1.2,Win32,60,3UYRNV2KIU2L5ZMJ0WJYJCVOG8VN8M,3N2BF7Y2VRXB2C06H1367TUB11IMH8,2F2N0,2F2N0,3N2BF7Y2VRXB2C06H1367TUB11IMH8,3N2BF7Y2VRXB2C06H1367TUB11IMH8,263090,263090,,,,
,,,,,,,,1,5.476,0,24,24,27,1,A2H91DERNK3CAL,98,wolfe_image-123-a_w_outline.jpg,wolfe_image-123-b_w_outline.jpg,32,m,A2H91DERNK3CAL,2020-12-10_11h13.59.291,MetaAwareness,2020.1.2,Win32,60,3UYRNV2KIU2L5ZMJ0WJYJCVOG8VN8M,3N2BF7Y2VRXB2C06H1367TUB11IMH8,2F2N0,2F2N0,3N2BF7Y2VRXB2C06H1367TUB11IMH8,3N2BF7Y2VRXB2C06H1367TUB11IMH8,263090,263090,,,,
,,,,,,,,3,4.809,0,25,25,13,1,A2H91DERNK3CAL,53,wolfe_image-078-a_w_outline.jpg,wolfe_image-078-b_w_outline.jpg,32,m,A2H91DERNK3CAL,2020-12-10_11h13.59.291,MetaAwareness,2020.1.2,Win32,60,3UYRNV2KIU2L5ZMJ0WJYJCVOG8VN8M,3N2BF7Y2VRXB2C06H1367TUB11IMH8,2F2N0,2F2N0,3N2BF7Y2VRXB2C06H1367TUB11IMH8,3N2BF7Y2VRXB2C06H1367TUB11IMH8,263090,263090,,,,
,,,,,,,,4,4.843,0,26,26,16,1,A2H91DERNK3CAL,64,wolfe_image-089-a_w_outline.jpg,wolfe_image-089-b_w_outline.jpg,32,m,A2H91DERNK3CAL,2020-12-10_11h13.59.291,MetaAwareness,2020.1.2,Win32,60,3UYRNV2KIU2L5ZMJ0WJYJCVOG8VN8M,3N2BF7Y2VRXB2C06H1367TUB11IMH8,2F2N0,2F2N0,3N2BF7Y2VRXB2C06H1367TUB11IMH8,3N2BF7Y2VRXB2C06H1367TUB11IMH8,263090,263090,,,,
,,,,,,,,5,12.015,0,27,27,15,1,A2H91DERNK3CAL,61,wolfe_image-086-a_w_outline.jpg,wolfe_image-086-b_w_outline.jpg,32,m,A2H91DERNK3CAL,2020-12-10_11h13.59.291,MetaAwareness,2020.1.2,Win32,60,3UYRNV2KIU2L5ZMJ0WJYJCVOG8VN8M,3N2BF7Y2VRXB2C06H1367TUB11IMH8,2F2N0,2F2N0,3N2BF7Y2VRXB2C06H1367TUB11IMH8,3N2BF7Y2VRXB2C06H1367TUB11IMH8,263090,263090,,,,
,,,,,,,,4,5.693,0,28,28,5,1,A2H91DERNK3CAL,24,wolfe_image-024-a_w_outline.jpg,wolfe_image-024-b_w_outline.jpg,32,m,A2H91DERNK3CAL,2020-12-10_11h13.59.291,MetaAwareness,2020.1.2,Win32,60,3UYRNV2KIU2L5ZMJ0WJYJCVOG8VN8M,3N2BF7Y2VRXB2C06H1367TUB11IMH8,2F2N0,2F2N0,3N2BF7Y2VRXB2C06H1367TUB11IMH8,3N2BF7Y2VRXB2C06H1367TUB11IMH8,263090,263090,,,,
,,,,,,,,1,3.347,0,29,29,12,1,A2H91DERNK3CAL,48,wolfe_image-048-a_w_outline.jpg,wolfe_image-048-b_w_outline.jpg,32,m,A2H91DERNK3CAL,2020-12-10_11h13.59.291,MetaAwareness,2020.1.2,Win32,60,3UYRNV2KIU2L5ZMJ0WJYJCVOG8VN8M,3N2BF7Y2VRXB2C06H1367TUB11IMH8,2F2N0,2F2N0,3N2BF7Y2VRXB2C06H1367TUB11IMH8,3N2BF7Y2VRXB2C06H1367TUB11IMH8,263090,263090,,,,
,,,,,,,,,,,,,,,A2H91DERNK3CAL,,,,32,m,A2H91DERNK3CAL,2020-12-10_11h13.59.291,MetaAwareness,2020.1.2,Win32,60,3UYRNV2KIU2L5ZMJ0WJYJCVOG8VN8M,3N2BF7Y2VRXB2C06H1367TUB11IMH8,2F2N0,2F2N0,3N2BF7Y2VRXB2C06H1367TUB11IMH8,3N2BF7Y2VRXB2C06H1367TUB11IMH8,263090,263090,5,2.195,1,7.431
