consent_response.keys,consent_response.rt,key_resp_2.keys,key_resp_2.rt,Airplane_resp.keys,Airplane_resp.rt,Boat_resp.keys,Boat_resp.rt,user_resp.keys,user_resp.rt,trials.thisRepN,trials.thisTrialN,trials.thisN,trials.thisIndex,trials.ran,workerId,trial_num,image_a,image_b,age,gender (m/f),worker_ID,date,expName,psychopyVersion,OS,frameRate,hitId,assignmentId,a,tp_a,b,tp_b,c,tp_c,Cow_resp.keys,Cow_resp.rt,Garden_resp.keys,Garden_resp.rt
space,3.30114,space,32.81596,5,2.87156,5,1.030125,1,3.3215,0,0,0,3,1,A2NUGRVI6IEGN7,17,wolfe_image-017-a_w_outline.jpg,wolfe_image-017-b_w_outline.jpg,21,m,A2NUGRVI6IEGN7,2020-12-10_09h44.34.010,MetaAwareness,2020.1.2,MacIntel,60,3UYRNV2KIU2L5ZMJ0WJYJCVOG8VN8M,36DSNE9QZ61VTLG8IHL4BAZV9T0JOO,QND60,QND60,36DSNE9QZ61VTLG8IHL4BAZV9T0JOO,36DSNE9QZ61VTLG8IHL4BAZV9T0JOO,263090,263090,,,,
,,,,,,,,3,3.29972,0,1,1,18,1,A2NUGRVI6IEGN7,69,wolfe_image-094-a_w_outline.jpg,wolfe_image-094-b_w_outline.jpg,21,m,A2NUGRVI6IEGN7,2020-12-10_09h44.34.010,MetaAwareness,2020.1.2,MacIntel,60,3UYRNV2KIU2L5ZMJ0WJYJCVOG8VN8M,36DSNE9QZ61VTLG8IHL4BAZV9T0JOO,QND60,QND60,36DSNE9QZ61VTLG8IHL4BAZV9T0JOO,36DSNE9QZ61VTLG8IHL4BAZV9T0JOO,263090,263090,,,,
,,,,,,,,3,4.48114,0,2,2,6,1,A2NUGRVI6IEGN7,31,wolfe_image-031-a_w_outline.jpg,wolfe_image-031-b_w_outline.jpg,21,m,A2NUGRVI6IEGN7,2020-12-10_09h44.34.010,MetaAwareness,2020.1.2,MacIntel,60,3UYRNV2KIU2L5ZMJ0WJYJCVOG8VN8M,36DSNE9QZ61VTLG8IHL4BAZV9T0JOO,QND60,QND60,36DSNE9QZ61VTLG8IHL4BAZV9T0JOO,36DSNE9QZ61VTLG8IHL4BAZV9T0JOO,263090,263090,,,,
,,,,,,,,3,3.77653,0,3,3,8,1,A2NUGRVI6IEGN7,39,wolfe_image-039-a_w_outline.jpg,wolfe_image-039-b_w_outline.jpg,21,m,A2NUGRVI6IEGN7,2020-12-10_09h44.34.010,MetaAwareness,2020.1.2,MacIntel,60,3UYRNV2KIU2L5ZMJ0WJYJCVOG8VN8M,36DSNE9QZ61VTLG8IHL4BAZV9T0JOO,QND60,QND60,36DSNE9QZ61VTLG8IHL4BAZV9T0JOO,36DSNE9QZ61VTLG8IHL4BAZV9T0JOO,263090,263090,,,,
,,,,,,,,2,3.782765,0,4,4,11,1,A2NUGRVI6IEGN7,51,wolfe_image-076-a_w_outline.jpg,wolfe_image-076-b_w_outline.jpg,21,m,A2NUGRVI6IEGN7,2020-12-10_09h44.34.010,MetaAwareness,2020.1.2,MacIntel,60,3UYRNV2KIU2L5ZMJ0WJYJCVOG8VN8M,36DSNE9QZ61VTLG8IHL4BAZV9T0JOO,QND60,QND60,36DSNE9QZ61VTLG8IHL4BAZV9T0JOO,36DSNE9QZ61VTLG8IHL4BAZV9T0JOO,263090,263090,,,,
,,,,,,,,3,2.67924,0,5,5,19,1,A2NUGRVI6IEGN7,71,wolfe_image-096-a_w_outline.jpg,wolfe_image-096-b_w_outline.jpg,21,m,A2NUGRVI6IEGN7,2020-12-10_09h44.34.010,MetaAwareness,2020.1.2,MacIntel,60,3UYRNV2KIU2L5ZMJ0WJYJCVOG8VN8M,36DSNE9QZ61VTLG8IHL4BAZV9T0JOO,QND60,QND60,36DSNE9QZ61VTLG8IHL4BAZV9T0JOO,36DSNE9QZ61VTLG8IHL4BAZV9T0JOO,263090,263090,,,,
,,,,,,,,1,2.64572,0,6,6,26,1,A2NUGRVI6IEGN7,93,wolfe_image-118-a_w_outline.jpg,wolfe_image-118-b_w_outline.jpg,21,m,A2NUGRVI6IEGN7,2020-12-10_09h44.34.010,MetaAwareness,2020.1.2,MacIntel,60,3UYRNV2KIU2L5ZMJ0WJYJCVOG8VN8M,36DSNE9QZ61VTLG8IHL4BAZV9T0JOO,QND60,QND60,36DSNE9QZ61VTLG8IHL4BAZV9T0JOO,36DSNE9QZ61VTLG8IHL4BAZV9T0JOO,263090,263090,,,,
,,,,,,,,2,2.26311,0,7,7,0,1,A2NUGRVI6IEGN7,2,wolfe_image-002-a_w_outline.jpg,wolfe_image-002-b_w_outline.jpg,21,m,A2NUGRVI6IEGN7,2020-12-10_09h44.34.010,MetaAwareness,2020.1.2,MacIntel,60,3UYRNV2KIU2L5ZMJ0WJYJCVOG8VN8M,36DSNE9QZ61VTLG8IHL4BAZV9T0JOO,QND60,QND60,36DSNE9QZ61VTLG8IHL4BAZV9T0JOO,36DSNE9QZ61VTLG8IHL4BAZV9T0JOO,263090,263090,,,,
,,,,,,,,3,2.81496,0,8,8,17,1,A2NUGRVI6IEGN7,67,wolfe_image-092-a_w_outline.jpg,wolfe_image-092-b_w_outline.jpg,21,m,A2NUGRVI6IEGN7,2020-12-10_09h44.34.010,MetaAwareness,2020.1.2,MacIntel,60,3UYRNV2KIU2L5ZMJ0WJYJCVOG8VN8M,36DSNE9QZ61VTLG8IHL4BAZV9T0JOO,QND60,QND60,36DSNE9QZ61VTLG8IHL4BAZV9T0JOO,36DSNE9QZ61VTLG8IHL4BAZV9T0JOO,263090,263090,,,,
,,,,,,,,4,2.635925,0,9,9,12,1,A2NUGRVI6IEGN7,52,wolfe_image-077-a_w_outline.jpg,wolfe_image-077-b_w_outline.jpg,21,m,A2NUGRVI6IEGN7,2020-12-10_09h44.34.010,MetaAwareness,2020.1.2,MacIntel,60,3UYRNV2KIU2L5ZMJ0WJYJCVOG8VN8M,36DSNE9QZ61VTLG8IHL4BAZV9T0JOO,QND60,QND60,36DSNE9QZ61VTLG8IHL4BAZV9T0JOO,36DSNE9QZ61VTLG8IHL4BAZV9T0JOO,263090,263090,,,,
,,,,,,,,2,3.279495,0,10,10,21,1,A2NUGRVI6IEGN7,74,wolfe_image-099-a_w_outline.jpg,wolfe_image-099-b_w_outline.jpg,21,m,A2NUGRVI6IEGN7,2020-12-10_09h44.34.010,MetaAwareness,2020.1.2,MacIntel,60,3UYRNV2KIU2L5ZMJ0WJYJCVOG8VN8M,36DSNE9QZ61VTLG8IHL4BAZV9T0JOO,QND60,QND60,36DSNE9QZ61VTLG8IHL4BAZV9T0JOO,36DSNE9QZ61VTLG8IHL4BAZV9T0JOO,263090,263090,,,,
,,,,,,,,3,2.26251,0,11,11,13,1,A2NUGRVI6IEGN7,53,wolfe_image-078-a_w_outline.jpg,wolfe_image-078-b_w_outline.jpg,21,m,A2NUGRVI6IEGN7,2020-12-10_09h44.34.010,MetaAwareness,2020.1.2,MacIntel,60,3UYRNV2KIU2L5ZMJ0WJYJCVOG8VN8M,36DSNE9QZ61VTLG8IHL4BAZV9T0JOO,QND60,QND60,36DSNE9QZ61VTLG8IHL4BAZV9T0JOO,36DSNE9QZ61VTLG8IHL4BAZV9T0JOO,263090,263090,,,,
,,,,,,,,2,1.81422,0,12,12,2,1,A2NUGRVI6IEGN7,15,wolfe_image-015-a_w_outline.jpg,wolfe_image-015-b_w_outline.jpg,21,m,A2NUGRVI6IEGN7,2020-12-10_09h44.34.010,MetaAwareness,2020.1.2,MacIntel,60,3UYRNV2KIU2L5ZMJ0WJYJCVOG8VN8M,36DSNE9QZ61VTLG8IHL4BAZV9T0JOO,QND60,QND60,36DSNE9QZ61VTLG8IHL4BAZV9T0JOO,36DSNE9QZ61VTLG8IHL4BAZV9T0JOO,263090,263090,,,,
,,,,,,,,3,2.357035,0,13,13,1,1,A2NUGRVI6IEGN7,12,wolfe_image-012-a_w_outline.jpg,wolfe_image-012-b_w_outline.jpg,21,m,A2NUGRVI6IEGN7,2020-12-10_09h44.34.010,MetaAwareness,2020.1.2,MacIntel,60,3UYRNV2KIU2L5ZMJ0WJYJCVOG8VN8M,36DSNE9QZ61VTLG8IHL4BAZV9T0JOO,QND60,QND60,36DSNE9QZ61VTLG8IHL4BAZV9T0JOO,36DSNE9QZ61VTLG8IHL4BAZV9T0JOO,263090,263090,,,,
,,,,,,,,2,1.82726,0,14,14,25,1,A2NUGRVI6IEGN7,92,wolfe_image-117-a_w_outline.jpg,wolfe_image-117-b_w_outline.jpg,21,m,A2NUGRVI6IEGN7,2020-12-10_09h44.34.010,MetaAwareness,2020.1.2,MacIntel,60,3UYRNV2KIU2L5ZMJ0WJYJCVOG8VN8M,36DSNE9QZ61VTLG8IHL4BAZV9T0JOO,QND60,QND60,36DSNE9QZ61VTLG8IHL4BAZV9T0JOO,36DSNE9QZ61VTLG8IHL4BAZV9T0JOO,263090,263090,,,,
,,,,,,,,4,1.84751,0,15,15,23,1,A2NUGRVI6IEGN7,83,wolfe_image-108-a_w_outline.jpg,wolfe_image-108-b_w_outline.jpg,21,m,A2NUGRVI6IEGN7,2020-12-10_09h44.34.010,MetaAwareness,2020.1.2,MacIntel,60,3UYRNV2KIU2L5ZMJ0WJYJCVOG8VN8M,36DSNE9QZ61VTLG8IHL4BAZV9T0JOO,QND60,QND60,36DSNE9QZ61VTLG8IHL4BAZV9T0JOO,36DSNE9QZ61VTLG8IHL4BAZV9T0JOO,263090,263090,,,,
,,,,,,,,1,2.350125,0,16,16,14,1,A2NUGRVI6IEGN7,54,wolfe_image-079-a_w_outline.jpg,wolfe_image-079-b_w_outline.jpg,21,m,A2NUGRVI6IEGN7,2020-12-10_09h44.34.010,MetaAwareness,2020.1.2,MacIntel,60,3UYRNV2KIU2L5ZMJ0WJYJCVOG8VN8M,36DSNE9QZ61VTLG8IHL4BAZV9T0JOO,QND60,QND60,36DSNE9QZ61VTLG8IHL4BAZV9T0JOO,36DSNE9QZ61VTLG8IHL4BAZV9T0JOO,263090,263090,,,,
,,,,,,,,3,2.33429,0,17,17,24,1,A2NUGRVI6IEGN7,90,wolfe_image-115-a_w_outline.jpg,wolfe_image-115-b_w_outline.jpg,21,m,A2NUGRVI6IEGN7,2020-12-10_09h44.34.010,MetaAwareness,2020.1.2,MacIntel,60,3UYRNV2KIU2L5ZMJ0WJYJCVOG8VN8M,36DSNE9QZ61VTLG8IHL4BAZV9T0JOO,QND60,QND60,36DSNE9QZ61VTLG8IHL4BAZV9T0JOO,36DSNE9QZ61VTLG8IHL4BAZV9T0JOO,263090,263090,,,,
,,,,,,,,2,2.01356,0,18,18,27,1,A2NUGRVI6IEGN7,97,wolfe_image-122-a_w_outline.jpg,wolfe_image-122-b_w_outline.jpg,21,m,A2NUGRVI6IEGN7,2020-12-10_09h44.34.010,MetaAwareness,2020.1.2,MacIntel,60,3UYRNV2KIU2L5ZMJ0WJYJCVOG8VN8M,36DSNE9QZ61VTLG8IHL4BAZV9T0JOO,QND60,QND60,36DSNE9QZ61VTLG8IHL4BAZV9T0JOO,36DSNE9QZ61VTLG8IHL4BAZV9T0JOO,263090,263090,,,,
,,,,,,,,2,1.852935,0,19,19,16,1,A2NUGRVI6IEGN7,65,wolfe_image-090-a_w_outline.jpg,wolfe_image-090-b_w_outline.jpg,21,m,A2NUGRVI6IEGN7,2020-12-10_09h44.34.010,MetaAwareness,2020.1.2,MacIntel,60,3UYRNV2KIU2L5ZMJ0WJYJCVOG8VN8M,36DSNE9QZ61VTLG8IHL4BAZV9T0JOO,QND60,QND60,36DSNE9QZ61VTLG8IHL4BAZV9T0JOO,36DSNE9QZ61VTLG8IHL4BAZV9T0JOO,263090,263090,,,,
,,,,,,,,3,2.01481,0,20,20,15,1,A2NUGRVI6IEGN7,56,wolfe_image-081-a_w_outline.jpg,wolfe_image-081-b_w_outline.jpg,21,m,A2NUGRVI6IEGN7,2020-12-10_09h44.34.010,MetaAwareness,2020.1.2,MacIntel,60,3UYRNV2KIU2L5ZMJ0WJYJCVOG8VN8M,36DSNE9QZ61VTLG8IHL4BAZV9T0JOO,QND60,QND60,36DSNE9QZ61VTLG8IHL4BAZV9T0JOO,36DSNE9QZ61VTLG8IHL4BAZV9T0JOO,263090,263090,,,,
,,,,,,,,4,2.131515,0,21,21,5,1,A2NUGRVI6IEGN7,25,wolfe_image-025-a_w_outline.jpg,wolfe_image-025-b_w_outline.jpg,21,m,A2NUGRVI6IEGN7,2020-12-10_09h44.34.010,MetaAwareness,2020.1.2,MacIntel,60,3UYRNV2KIU2L5ZMJ0WJYJCVOG8VN8M,36DSNE9QZ61VTLG8IHL4BAZV9T0JOO,QND60,QND60,36DSNE9QZ61VTLG8IHL4BAZV9T0JOO,36DSNE9QZ61VTLG8IHL4BAZV9T0JOO,263090,263090,,,,
,,,,,,,,1,4.909825,0,22,22,10,1,A2NUGRVI6IEGN7,46,wolfe_image-046-a_w_outline.jpg,wolfe_image-046-b_w_outline.jpg,21,m,A2NUGRVI6IEGN7,2020-12-10_09h44.34.010,MetaAwareness,2020.1.2,MacIntel,60,3UYRNV2KIU2L5ZMJ0WJYJCVOG8VN8M,36DSNE9QZ61VTLG8IHL4BAZV9T0JOO,QND60,QND60,36DSNE9QZ61VTLG8IHL4BAZV9T0JOO,36DSNE9QZ61VTLG8IHL4BAZV9T0JOO,263090,263090,,,,
,,,,,,,,3,1.97628,0,23,23,4,1,A2NUGRVI6IEGN7,18,wolfe_image-018-a_w_outline.jpg,wolfe_image-018-b_w_outline.jpg,21,m,A2NUGRVI6IEGN7,2020-12-10_09h44.34.010,MetaAwareness,2020.1.2,MacIntel,60,3UYRNV2KIU2L5ZMJ0WJYJCVOG8VN8M,36DSNE9QZ61VTLG8IHL4BAZV9T0JOO,QND60,QND60,36DSNE9QZ61VTLG8IHL4BAZV9T0JOO,36DSNE9QZ61VTLG8IHL4BAZV9T0JOO,263090,263090,,,,
,,,,,,,,2,1.674705,0,24,24,9,1,A2NUGRVI6IEGN7,41,wolfe_image-041-a_w_outline.jpg,wolfe_image-041-b_w_outline.jpg,21,m,A2NUGRVI6IEGN7,2020-12-10_09h44.34.010,MetaAwareness,2020.1.2,MacIntel,60,3UYRNV2KIU2L5ZMJ0WJYJCVOG8VN8M,36DSNE9QZ61VTLG8IHL4BAZV9T0JOO,QND60,QND60,36DSNE9QZ61VTLG8IHL4BAZV9T0JOO,36DSNE9QZ61VTLG8IHL4BAZV9T0JOO,263090,263090,,,,
,,,,,,,,3,1.614995,0,25,25,22,1,A2NUGRVI6IEGN7,75,wolfe_image-100-a_w_outline.jpg,wolfe_image-100-b_w_outline.jpg,21,m,A2NUGRVI6IEGN7,2020-12-10_09h44.34.010,MetaAwareness,2020.1.2,MacIntel,60,3UYRNV2KIU2L5ZMJ0WJYJCVOG8VN8M,36DSNE9QZ61VTLG8IHL4BAZV9T0JOO,QND60,QND60,36DSNE9QZ61VTLG8IHL4BAZV9T0JOO,36DSNE9QZ61VTLG8IHL4BAZV9T0JOO,263090,263090,,,,
,,,,,,,,2,1.75432,0,26,26,7,1,A2NUGRVI6IEGN7,38,wolfe_image-038-a_w_outline.jpg,wolfe_image-038-b_w_outline.jpg,21,m,A2NUGRVI6IEGN7,2020-12-10_09h44.34.010,MetaAwareness,2020.1.2,MacIntel,60,3UYRNV2KIU2L5ZMJ0WJYJCVOG8VN8M,36DSNE9QZ61VTLG8IHL4BAZV9T0JOO,QND60,QND60,36DSNE9QZ61VTLG8IHL4BAZV9T0JOO,36DSNE9QZ61VTLG8IHL4BAZV9T0JOO,263090,263090,,,,
,,,,,,,,3,1.875805,0,27,27,29,1,A2NUGRVI6IEGN7,104,wolfe_image-129-a_w_outline.jpg,wolfe_image-129-b_w_outline.jpg,21,m,A2NUGRVI6IEGN7,2020-12-10_09h44.34.010,MetaAwareness,2020.1.2,MacIntel,60,3UYRNV2KIU2L5ZMJ0WJYJCVOG8VN8M,36DSNE9QZ61VTLG8IHL4BAZV9T0JOO,QND60,QND60,36DSNE9QZ61VTLG8IHL4BAZV9T0JOO,36DSNE9QZ61VTLG8IHL4BAZV9T0JOO,263090,263090,,,,
,,,,,,,,4,2.24389,0,28,28,20,1,A2NUGRVI6IEGN7,72,wolfe_image-097-a_w_outline.jpg,wolfe_image-097-b_w_outline.jpg,21,m,A2NUGRVI6IEGN7,2020-12-10_09h44.34.010,MetaAwareness,2020.1.2,MacIntel,60,3UYRNV2KIU2L5ZMJ0WJYJCVOG8VN8M,36DSNE9QZ61VTLG8IHL4BAZV9T0JOO,QND60,QND60,36DSNE9QZ61VTLG8IHL4BAZV9T0JOO,36DSNE9QZ61VTLG8IHL4BAZV9T0JOO,263090,263090,,,,
,,,,,,,,2,1.881535,0,29,29,28,1,A2NUGRVI6IEGN7,103,wolfe_image-128-a_w_outline.jpg,wolfe_image-128-b_w_outline.jpg,21,m,A2NUGRVI6IEGN7,2020-12-10_09h44.34.010,MetaAwareness,2020.1.2,MacIntel,60,3UYRNV2KIU2L5ZMJ0WJYJCVOG8VN8M,36DSNE9QZ61VTLG8IHL4BAZV9T0JOO,QND60,QND60,36DSNE9QZ61VTLG8IHL4BAZV9T0JOO,36DSNE9QZ61VTLG8IHL4BAZV9T0JOO,263090,263090,,,,
,,,,,,,,,,,,,,,A2NUGRVI6IEGN7,,,,21,m,A2NUGRVI6IEGN7,2020-12-10_09h44.34.010,MetaAwareness,2020.1.2,MacIntel,60,3UYRNV2KIU2L5ZMJ0WJYJCVOG8VN8M,36DSNE9QZ61VTLG8IHL4BAZV9T0JOO,QND60,QND60,36DSNE9QZ61VTLG8IHL4BAZV9T0JOO,36DSNE9QZ61VTLG8IHL4BAZV9T0JOO,263090,263090,3,0.180255,2,1.443095
