consent_response.keys,consent_response.rt,key_resp_2.keys,key_resp_2.rt,Airplane_resp.keys,Airplane_resp.rt,Boat_resp.keys,Boat_resp.rt,user_resp.keys,user_resp.rt,trials.thisRepN,trials.thisTrialN,trials.thisN,trials.thisIndex,trials.ran,workerId,trial_num,image_a,image_b,age,gender (m/f),worker_ID,date,expName,psychopyVersion,OS,frameRate,hitId,assignmentId,a,tp_a,b,tp_b,c,tp_c,Cow_resp.keys,Cow_resp.rt,Garden_resp.keys,Garden_resp.rt
space,17.10568,space,28.547305,5,4.7263,5,2.978725,2,13.12796,0,0,0,13,1,A3BUAODQX3WEZU,54,wolfe_image-079-a_w_outline.jpg,wolfe_image-079-b_w_outline.jpg,28,male,A3BUAODQX3WEZU,2020-12-08_18h55.32.062,MetaAwareness,2020.1.2,Win32,60,37J05LC5AYM134RP262MCXS8IDDJD6,3E7TUJ2EGDPFJCCA6WGBBM9T95N9DI,EU7E7,EU7E7,3E7TUJ2EGDPFJCCA6WGBBM9T95N9DI,3E7TUJ2EGDPFJCCA6WGBBM9T95N9DI,262737,262737,,,,
,,,,,,,,1,6.13181,0,1,1,18,1,A3BUAODQX3WEZU,69,wolfe_image-094-a_w_outline.jpg,wolfe_image-094-b_w_outline.jpg,28,male,A3BUAODQX3WEZU,2020-12-08_18h55.32.062,MetaAwareness,2020.1.2,Win32,60,37J05LC5AYM134RP262MCXS8IDDJD6,3E7TUJ2EGDPFJCCA6WGBBM9T95N9DI,EU7E7,EU7E7,3E7TUJ2EGDPFJCCA6WGBBM9T95N9DI,3E7TUJ2EGDPFJCCA6WGBBM9T95N9DI,262737,262737,,,,
,,,,,,,,4,6.76699,0,2,2,6,1,A3BUAODQX3WEZU,19,wolfe_image-019-a_w_outline.jpg,wolfe_image-019-b_w_outline.jpg,28,male,A3BUAODQX3WEZU,2020-12-08_18h55.32.062,MetaAwareness,2020.1.2,Win32,60,37J05LC5AYM134RP262MCXS8IDDJD6,3E7TUJ2EGDPFJCCA6WGBBM9T95N9DI,EU7E7,EU7E7,3E7TUJ2EGDPFJCCA6WGBBM9T95N9DI,3E7TUJ2EGDPFJCCA6WGBBM9T95N9DI,262737,262737,,,,
,,,,,,,,4,10.383625,0,3,3,11,1,A3BUAODQX3WEZU,45,wolfe_image-045-a_w_outline.jpg,wolfe_image-045-b_w_outline.jpg,28,male,A3BUAODQX3WEZU,2020-12-08_18h55.32.062,MetaAwareness,2020.1.2,Win32,60,37J05LC5AYM134RP262MCXS8IDDJD6,3E7TUJ2EGDPFJCCA6WGBBM9T95N9DI,EU7E7,EU7E7,3E7TUJ2EGDPFJCCA6WGBBM9T95N9DI,3E7TUJ2EGDPFJCCA6WGBBM9T95N9DI,262737,262737,,,,
,,,,,,,,4,7.48352,0,4,4,15,1,A3BUAODQX3WEZU,63,wolfe_image-088-a_w_outline.jpg,wolfe_image-088-b_w_outline.jpg,28,male,A3BUAODQX3WEZU,2020-12-08_18h55.32.062,MetaAwareness,2020.1.2,Win32,60,37J05LC5AYM134RP262MCXS8IDDJD6,3E7TUJ2EGDPFJCCA6WGBBM9T95N9DI,EU7E7,EU7E7,3E7TUJ2EGDPFJCCA6WGBBM9T95N9DI,3E7TUJ2EGDPFJCCA6WGBBM9T95N9DI,262737,262737,,,,
,,,,,,,,4,11.49167,0,5,5,2,1,A3BUAODQX3WEZU,11,wolfe_image-011-a_w_outline.jpg,wolfe_image-011-b_w_outline.jpg,28,male,A3BUAODQX3WEZU,2020-12-08_18h55.32.062,MetaAwareness,2020.1.2,Win32,60,37J05LC5AYM134RP262MCXS8IDDJD6,3E7TUJ2EGDPFJCCA6WGBBM9T95N9DI,EU7E7,EU7E7,3E7TUJ2EGDPFJCCA6WGBBM9T95N9DI,3E7TUJ2EGDPFJCCA6WGBBM9T95N9DI,262737,262737,,,,
,,,,,,,,1,9.07,0,6,6,0,1,A3BUAODQX3WEZU,5,wolfe_image-005-a_w_outline.jpg,wolfe_image-005-b_w_outline.jpg,28,male,A3BUAODQX3WEZU,2020-12-08_18h55.32.062,MetaAwareness,2020.1.2,Win32,60,37J05LC5AYM134RP262MCXS8IDDJD6,3E7TUJ2EGDPFJCCA6WGBBM9T95N9DI,EU7E7,EU7E7,3E7TUJ2EGDPFJCCA6WGBBM9T95N9DI,3E7TUJ2EGDPFJCCA6WGBBM9T95N9DI,262737,262737,,,,
,,,,,,,,2,7.44772,0,7,7,28,1,A3BUAODQX3WEZU,108,wolfe_image-133-a_w_outline.jpg,wolfe_image-133-b_w_outline.jpg,28,male,A3BUAODQX3WEZU,2020-12-08_18h55.32.062,MetaAwareness,2020.1.2,Win32,60,37J05LC5AYM134RP262MCXS8IDDJD6,3E7TUJ2EGDPFJCCA6WGBBM9T95N9DI,EU7E7,EU7E7,3E7TUJ2EGDPFJCCA6WGBBM9T95N9DI,3E7TUJ2EGDPFJCCA6WGBBM9T95N9DI,262737,262737,,,,
,,,,,,,,4,6.976745,0,8,8,24,1,A3BUAODQX3WEZU,88,wolfe_image-113-a_w_outline.jpg,wolfe_image-113-b_w_outline.jpg,28,male,A3BUAODQX3WEZU,2020-12-08_18h55.32.062,MetaAwareness,2020.1.2,Win32,60,37J05LC5AYM134RP262MCXS8IDDJD6,3E7TUJ2EGDPFJCCA6WGBBM9T95N9DI,EU7E7,EU7E7,3E7TUJ2EGDPFJCCA6WGBBM9T95N9DI,3E7TUJ2EGDPFJCCA6WGBBM9T95N9DI,262737,262737,,,,
,,,,,,,,3,6.685775,0,9,9,21,1,A3BUAODQX3WEZU,81,wolfe_image-106-a_w_outline.jpg,wolfe_image-106-b_w_outline.jpg,28,male,A3BUAODQX3WEZU,2020-12-08_18h55.32.062,MetaAwareness,2020.1.2,Win32,60,37J05LC5AYM134RP262MCXS8IDDJD6,3E7TUJ2EGDPFJCCA6WGBBM9T95N9DI,EU7E7,EU7E7,3E7TUJ2EGDPFJCCA6WGBBM9T95N9DI,3E7TUJ2EGDPFJCCA6WGBBM9T95N9DI,262737,262737,,,,
,,,,,,,,3,12.38216,0,10,10,16,1,A3BUAODQX3WEZU,65,wolfe_image-090-a_w_outline.jpg,wolfe_image-090-b_w_outline.jpg,28,male,A3BUAODQX3WEZU,2020-12-08_18h55.32.062,MetaAwareness,2020.1.2,Win32,60,37J05LC5AYM134RP262MCXS8IDDJD6,3E7TUJ2EGDPFJCCA6WGBBM9T95N9DI,EU7E7,EU7E7,3E7TUJ2EGDPFJCCA6WGBBM9T95N9DI,3E7TUJ2EGDPFJCCA6WGBBM9T95N9DI,262737,262737,,,,
,,,,,,,,3,9.83389,0,11,11,1,1,A3BUAODQX3WEZU,9,wolfe_image-009-a_w_outline.jpg,wolfe_image-009-b_w_outline.jpg,28,male,A3BUAODQX3WEZU,2020-12-08_18h55.32.062,MetaAwareness,2020.1.2,Win32,60,37J05LC5AYM134RP262MCXS8IDDJD6,3E7TUJ2EGDPFJCCA6WGBBM9T95N9DI,EU7E7,EU7E7,3E7TUJ2EGDPFJCCA6WGBBM9T95N9DI,3E7TUJ2EGDPFJCCA6WGBBM9T95N9DI,262737,262737,,,,
,,,,,,,,3,8.03935,0,12,12,3,1,A3BUAODQX3WEZU,13,wolfe_image-013-a_w_outline.jpg,wolfe_image-013-b_w_outline.jpg,28,male,A3BUAODQX3WEZU,2020-12-08_18h55.32.062,MetaAwareness,2020.1.2,Win32,60,37J05LC5AYM134RP262MCXS8IDDJD6,3E7TUJ2EGDPFJCCA6WGBBM9T95N9DI,EU7E7,EU7E7,3E7TUJ2EGDPFJCCA6WGBBM9T95N9DI,3E7TUJ2EGDPFJCCA6WGBBM9T95N9DI,262737,262737,,,,
,,,,,,,,2,5.54458,0,13,13,17,1,A3BUAODQX3WEZU,67,wolfe_image-092-a_w_outline.jpg,wolfe_image-092-b_w_outline.jpg,28,male,A3BUAODQX3WEZU,2020-12-08_18h55.32.062,MetaAwareness,2020.1.2,Win32,60,37J05LC5AYM134RP262MCXS8IDDJD6,3E7TUJ2EGDPFJCCA6WGBBM9T95N9DI,EU7E7,EU7E7,3E7TUJ2EGDPFJCCA6WGBBM9T95N9DI,3E7TUJ2EGDPFJCCA6WGBBM9T95N9DI,262737,262737,,,,
,,,,,,,,4,5.99177,0,14,14,9,1,A3BUAODQX3WEZU,34,wolfe_image-034-a_w_outline.jpg,wolfe_image-034-b_w_outline.jpg,28,male,A3BUAODQX3WEZU,2020-12-08_18h55.32.062,MetaAwareness,2020.1.2,Win32,60,37J05LC5AYM134RP262MCXS8IDDJD6,3E7TUJ2EGDPFJCCA6WGBBM9T95N9DI,EU7E7,EU7E7,3E7TUJ2EGDPFJCCA6WGBBM9T95N9DI,3E7TUJ2EGDPFJCCA6WGBBM9T95N9DI,262737,262737,,,,
,,,,,,,,2,5.18113,0,15,15,5,1,A3BUAODQX3WEZU,17,wolfe_image-017-a_w_outline.jpg,wolfe_image-017-b_w_outline.jpg,28,male,A3BUAODQX3WEZU,2020-12-08_18h55.32.062,MetaAwareness,2020.1.2,Win32,60,37J05LC5AYM134RP262MCXS8IDDJD6,3E7TUJ2EGDPFJCCA6WGBBM9T95N9DI,EU7E7,EU7E7,3E7TUJ2EGDPFJCCA6WGBBM9T95N9DI,3E7TUJ2EGDPFJCCA6WGBBM9T95N9DI,262737,262737,,,,
,,,,,,,,3,5.29489,0,16,16,20,1,A3BUAODQX3WEZU,77,wolfe_image-102-a_w_outline.jpg,wolfe_image-102-b_w_outline.jpg,28,male,A3BUAODQX3WEZU,2020-12-08_18h55.32.062,MetaAwareness,2020.1.2,Win32,60,37J05LC5AYM134RP262MCXS8IDDJD6,3E7TUJ2EGDPFJCCA6WGBBM9T95N9DI,EU7E7,EU7E7,3E7TUJ2EGDPFJCCA6WGBBM9T95N9DI,3E7TUJ2EGDPFJCCA6WGBBM9T95N9DI,262737,262737,,,,
,,,,,,,,2,5.37917,0,17,17,26,1,A3BUAODQX3WEZU,101,wolfe_image-126-a_w_outline.jpg,wolfe_image-126-b_w_outline.jpg,28,male,A3BUAODQX3WEZU,2020-12-08_18h55.32.062,MetaAwareness,2020.1.2,Win32,60,37J05LC5AYM134RP262MCXS8IDDJD6,3E7TUJ2EGDPFJCCA6WGBBM9T95N9DI,EU7E7,EU7E7,3E7TUJ2EGDPFJCCA6WGBBM9T95N9DI,3E7TUJ2EGDPFJCCA6WGBBM9T95N9DI,262737,262737,,,,
,,,,,,,,2,4.49735,0,18,18,7,1,A3BUAODQX3WEZU,31,wolfe_image-031-a_w_outline.jpg,wolfe_image-031-b_w_outline.jpg,28,male,A3BUAODQX3WEZU,2020-12-08_18h55.32.062,MetaAwareness,2020.1.2,Win32,60,37J05LC5AYM134RP262MCXS8IDDJD6,3E7TUJ2EGDPFJCCA6WGBBM9T95N9DI,EU7E7,EU7E7,3E7TUJ2EGDPFJCCA6WGBBM9T95N9DI,3E7TUJ2EGDPFJCCA6WGBBM9T95N9DI,262737,262737,,,,
,,,,,,,,4,6.46544,0,19,19,22,1,A3BUAODQX3WEZU,84,wolfe_image-109-a_w_outline.jpg,wolfe_image-109-b_w_outline.jpg,28,male,A3BUAODQX3WEZU,2020-12-08_18h55.32.062,MetaAwareness,2020.1.2,Win32,60,37J05LC5AYM134RP262MCXS8IDDJD6,3E7TUJ2EGDPFJCCA6WGBBM9T95N9DI,EU7E7,EU7E7,3E7TUJ2EGDPFJCCA6WGBBM9T95N9DI,3E7TUJ2EGDPFJCCA6WGBBM9T95N9DI,262737,262737,,,,
,,,,,,,,4,4.220915,0,20,20,29,1,A3BUAODQX3WEZU,112,wolfe_image-137-a_w_outline.jpg,wolfe_image-137-b_w_outline.jpg,28,male,A3BUAODQX3WEZU,2020-12-08_18h55.32.062,MetaAwareness,2020.1.2,Win32,60,37J05LC5AYM134RP262MCXS8IDDJD6,3E7TUJ2EGDPFJCCA6WGBBM9T95N9DI,EU7E7,EU7E7,3E7TUJ2EGDPFJCCA6WGBBM9T95N9DI,3E7TUJ2EGDPFJCCA6WGBBM9T95N9DI,262737,262737,,,,
,,,,,,,,3,5.56426,0,21,21,14,1,A3BUAODQX3WEZU,55,wolfe_image-080-a_w_outline.jpg,wolfe_image-080-b_w_outline.jpg,28,male,A3BUAODQX3WEZU,2020-12-08_18h55.32.062,MetaAwareness,2020.1.2,Win32,60,37J05LC5AYM134RP262MCXS8IDDJD6,3E7TUJ2EGDPFJCCA6WGBBM9T95N9DI,EU7E7,EU7E7,3E7TUJ2EGDPFJCCA6WGBBM9T95N9DI,3E7TUJ2EGDPFJCCA6WGBBM9T95N9DI,262737,262737,,,,
,,,,,,,,3,8.41802,0,22,22,19,1,A3BUAODQX3WEZU,75,wolfe_image-100-a_w_outline.jpg,wolfe_image-100-b_w_outline.jpg,28,male,A3BUAODQX3WEZU,2020-12-08_18h55.32.062,MetaAwareness,2020.1.2,Win32,60,37J05LC5AYM134RP262MCXS8IDDJD6,3E7TUJ2EGDPFJCCA6WGBBM9T95N9DI,EU7E7,EU7E7,3E7TUJ2EGDPFJCCA6WGBBM9T95N9DI,3E7TUJ2EGDPFJCCA6WGBBM9T95N9DI,262737,262737,,,,
,,,,,,,,3,4.184375,0,23,23,25,1,A3BUAODQX3WEZU,97,wolfe_image-122-a_w_outline.jpg,wolfe_image-122-b_w_outline.jpg,28,male,A3BUAODQX3WEZU,2020-12-08_18h55.32.062,MetaAwareness,2020.1.2,Win32,60,37J05LC5AYM134RP262MCXS8IDDJD6,3E7TUJ2EGDPFJCCA6WGBBM9T95N9DI,EU7E7,EU7E7,3E7TUJ2EGDPFJCCA6WGBBM9T95N9DI,3E7TUJ2EGDPFJCCA6WGBBM9T95N9DI,262737,262737,,,,
,,,,,,,,4,4.54533,0,24,24,12,1,A3BUAODQX3WEZU,53,wolfe_image-078-a_w_outline.jpg,wolfe_image-078-b_w_outline.jpg,28,male,A3BUAODQX3WEZU,2020-12-08_18h55.32.062,MetaAwareness,2020.1.2,Win32,60,37J05LC5AYM134RP262MCXS8IDDJD6,3E7TUJ2EGDPFJCCA6WGBBM9T95N9DI,EU7E7,EU7E7,3E7TUJ2EGDPFJCCA6WGBBM9T95N9DI,3E7TUJ2EGDPFJCCA6WGBBM9T95N9DI,262737,262737,,,,
,,,,,,,,3,5.458225,0,25,25,4,1,A3BUAODQX3WEZU,14,wolfe_image-014-a_w_outline.jpg,wolfe_image-014-b_w_outline.jpg,28,male,A3BUAODQX3WEZU,2020-12-08_18h55.32.062,MetaAwareness,2020.1.2,Win32,60,37J05LC5AYM134RP262MCXS8IDDJD6,3E7TUJ2EGDPFJCCA6WGBBM9T95N9DI,EU7E7,EU7E7,3E7TUJ2EGDPFJCCA6WGBBM9T95N9DI,3E7TUJ2EGDPFJCCA6WGBBM9T95N9DI,262737,262737,,,,
,,,,,,,,2,9.8604,0,26,26,27,1,A3BUAODQX3WEZU,106,wolfe_image-131-a_w_outline.jpg,wolfe_image-131-b_w_outline.jpg,28,male,A3BUAODQX3WEZU,2020-12-08_18h55.32.062,MetaAwareness,2020.1.2,Win32,60,37J05LC5AYM134RP262MCXS8IDDJD6,3E7TUJ2EGDPFJCCA6WGBBM9T95N9DI,EU7E7,EU7E7,3E7TUJ2EGDPFJCCA6WGBBM9T95N9DI,3E7TUJ2EGDPFJCCA6WGBBM9T95N9DI,262737,262737,,,,
,,,,,,,,4,4.404295,0,27,27,23,1,A3BUAODQX3WEZU,87,wolfe_image-112-a_w_outline.jpg,wolfe_image-112-b_w_outline.jpg,28,male,A3BUAODQX3WEZU,2020-12-08_18h55.32.062,MetaAwareness,2020.1.2,Win32,60,37J05LC5AYM134RP262MCXS8IDDJD6,3E7TUJ2EGDPFJCCA6WGBBM9T95N9DI,EU7E7,EU7E7,3E7TUJ2EGDPFJCCA6WGBBM9T95N9DI,3E7TUJ2EGDPFJCCA6WGBBM9T95N9DI,262737,262737,,,,
,,,,,,,,3,3.91557,0,28,28,8,1,A3BUAODQX3WEZU,32,wolfe_image-032-a_w_outline.jpg,wolfe_image-032-b_w_outline.jpg,28,male,A3BUAODQX3WEZU,2020-12-08_18h55.32.062,MetaAwareness,2020.1.2,Win32,60,37J05LC5AYM134RP262MCXS8IDDJD6,3E7TUJ2EGDPFJCCA6WGBBM9T95N9DI,EU7E7,EU7E7,3E7TUJ2EGDPFJCCA6WGBBM9T95N9DI,3E7TUJ2EGDPFJCCA6WGBBM9T95N9DI,262737,262737,,,,
,,,,,,,,3,5.02226,0,29,29,10,1,A3BUAODQX3WEZU,44,wolfe_image-044-a_w_outline.jpg,wolfe_image-044-b_w_outline.jpg,28,male,A3BUAODQX3WEZU,2020-12-08_18h55.32.062,MetaAwareness,2020.1.2,Win32,60,37J05LC5AYM134RP262MCXS8IDDJD6,3E7TUJ2EGDPFJCCA6WGBBM9T95N9DI,EU7E7,EU7E7,3E7TUJ2EGDPFJCCA6WGBBM9T95N9DI,3E7TUJ2EGDPFJCCA6WGBBM9T95N9DI,262737,262737,,,,
,,,,,,,,,,,,,,,A3BUAODQX3WEZU,,,,28,male,A3BUAODQX3WEZU,2020-12-08_18h55.32.062,MetaAwareness,2020.1.2,Win32,60,37J05LC5AYM134RP262MCXS8IDDJD6,3E7TUJ2EGDPFJCCA6WGBBM9T95N9DI,EU7E7,EU7E7,3E7TUJ2EGDPFJCCA6WGBBM9T95N9DI,3E7TUJ2EGDPFJCCA6WGBBM9T95N9DI,262737,262737,5,2.119435,1,8.664795
