consent_response.keys,consent_response.rt,key_resp_2.keys,key_resp_2.rt,Airplane_resp.keys,Airplane_resp.rt,Boat_resp.keys,Boat_resp.rt,user_resp.keys,user_resp.rt,trials.thisRepN,trials.thisTrialN,trials.thisN,trials.thisIndex,trials.ran,workerId,trial_num,image_a,image_b,age,gender (m/f),worker_ID,date,expName,psychopyVersion,OS,frameRate,hitId,assignmentId,a,tp_a,b,tp_b,c,tp_c,Cow_resp.keys,Cow_resp.rt,Garden_resp.keys,Garden_resp.rt
space,3.794605,space,1.105845,5,2.48438,5,1.078475,3,4.17676,0,0,0,1,1,A3FMBSTZ3ZGSV1,2,wolfe_image-002-a_w_outline.jpg,wolfe_image-002-b_w_outline.jpg,34,m,A3FMBSTZ3ZGSV1,2020-12-08_15h12.38.689,MetaAwareness,2020.1.2,Linux x86_64,60,34R3P23QHT44L4WQV14RS81EC1CWHK,379J5II41PJFCKRJROULMDI99APELV,45977,45977,379J5II41PJFCKRJROULMDI99APELV,379J5II41PJFCKRJROULMDI99APELV,262737,262737,,,,
,,,,,,,,1,4.346485,0,1,1,22,1,A3FMBSTZ3ZGSV1,90,wolfe_image-115-a_w_outline.jpg,wolfe_image-115-b_w_outline.jpg,34,m,A3FMBSTZ3ZGSV1,2020-12-08_15h12.38.689,MetaAwareness,2020.1.2,Linux x86_64,60,34R3P23QHT44L4WQV14RS81EC1CWHK,379J5II41PJFCKRJROULMDI99APELV,45977,45977,379J5II41PJFCKRJROULMDI99APELV,379J5II41PJFCKRJROULMDI99APELV,262737,262737,,,,
,,,,,,,,1,2.366,0,2,2,17,1,A3FMBSTZ3ZGSV1,69,wolfe_image-094-a_w_outline.jpg,wolfe_image-094-b_w_outline.jpg,34,m,A3FMBSTZ3ZGSV1,2020-12-08_15h12.38.689,MetaAwareness,2020.1.2,Linux x86_64,60,34R3P23QHT44L4WQV14RS81EC1CWHK,379J5II41PJFCKRJROULMDI99APELV,45977,45977,379J5II41PJFCKRJROULMDI99APELV,379J5II41PJFCKRJROULMDI99APELV,262737,262737,,,,
,,,,,,,,1,2.189165,0,3,3,12,1,A3FMBSTZ3ZGSV1,60,wolfe_image-085-a_w_outline.jpg,wolfe_image-085-b_w_outline.jpg,34,m,A3FMBSTZ3ZGSV1,2020-12-08_15h12.38.689,MetaAwareness,2020.1.2,Linux x86_64,60,34R3P23QHT44L4WQV14RS81EC1CWHK,379J5II41PJFCKRJROULMDI99APELV,45977,45977,379J5II41PJFCKRJROULMDI99APELV,379J5II41PJFCKRJROULMDI99APELV,262737,262737,,,,
,,,,,,,,1,2.79644,0,4,4,23,1,A3FMBSTZ3ZGSV1,91,wolfe_image-116-a_w_outline.jpg,wolfe_image-116-b_w_outline.jpg,34,m,A3FMBSTZ3ZGSV1,2020-12-08_15h12.38.689,MetaAwareness,2020.1.2,Linux x86_64,60,34R3P23QHT44L4WQV14RS81EC1CWHK,379J5II41PJFCKRJROULMDI99APELV,45977,45977,379J5II41PJFCKRJROULMDI99APELV,379J5II41PJFCKRJROULMDI99APELV,262737,262737,,,,
,,,,,,,,1,2.089585,0,5,5,2,1,A3FMBSTZ3ZGSV1,6,wolfe_image-006-a_w_outline.jpg,wolfe_image-006-b_w_outline.jpg,34,m,A3FMBSTZ3ZGSV1,2020-12-08_15h12.38.689,MetaAwareness,2020.1.2,Linux x86_64,60,34R3P23QHT44L4WQV14RS81EC1CWHK,379J5II41PJFCKRJROULMDI99APELV,45977,45977,379J5II41PJFCKRJROULMDI99APELV,379J5II41PJFCKRJROULMDI99APELV,262737,262737,,,,
,,,,,,,,3,5.412595,0,6,6,8,1,A3FMBSTZ3ZGSV1,32,wolfe_image-032-a_w_outline.jpg,wolfe_image-032-b_w_outline.jpg,34,m,A3FMBSTZ3ZGSV1,2020-12-08_15h12.38.689,MetaAwareness,2020.1.2,Linux x86_64,60,34R3P23QHT44L4WQV14RS81EC1CWHK,379J5II41PJFCKRJROULMDI99APELV,45977,45977,379J5II41PJFCKRJROULMDI99APELV,379J5II41PJFCKRJROULMDI99APELV,262737,262737,,,,
,,,,,,,,3,2.71027,0,7,7,14,1,A3FMBSTZ3ZGSV1,64,wolfe_image-089-a_w_outline.jpg,wolfe_image-089-b_w_outline.jpg,34,m,A3FMBSTZ3ZGSV1,2020-12-08_15h12.38.689,MetaAwareness,2020.1.2,Linux x86_64,60,34R3P23QHT44L4WQV14RS81EC1CWHK,379J5II41PJFCKRJROULMDI99APELV,45977,45977,379J5II41PJFCKRJROULMDI99APELV,379J5II41PJFCKRJROULMDI99APELV,262737,262737,,,,
,,,,,,,,2,2.57609,0,8,8,15,1,A3FMBSTZ3ZGSV1,66,wolfe_image-091-a_w_outline.jpg,wolfe_image-091-b_w_outline.jpg,34,m,A3FMBSTZ3ZGSV1,2020-12-08_15h12.38.689,MetaAwareness,2020.1.2,Linux x86_64,60,34R3P23QHT44L4WQV14RS81EC1CWHK,379J5II41PJFCKRJROULMDI99APELV,45977,45977,379J5II41PJFCKRJROULMDI99APELV,379J5II41PJFCKRJROULMDI99APELV,262737,262737,,,,
,,,,,,,,1,3.61293,0,9,9,27,1,A3FMBSTZ3ZGSV1,97,wolfe_image-122-a_w_outline.jpg,wolfe_image-122-b_w_outline.jpg,34,m,A3FMBSTZ3ZGSV1,2020-12-08_15h12.38.689,MetaAwareness,2020.1.2,Linux x86_64,60,34R3P23QHT44L4WQV14RS81EC1CWHK,379J5II41PJFCKRJROULMDI99APELV,45977,45977,379J5II41PJFCKRJROULMDI99APELV,379J5II41PJFCKRJROULMDI99APELV,262737,262737,,,,
,,,,,,,,1,3.23929,0,10,10,16,1,A3FMBSTZ3ZGSV1,67,wolfe_image-092-a_w_outline.jpg,wolfe_image-092-b_w_outline.jpg,34,m,A3FMBSTZ3ZGSV1,2020-12-08_15h12.38.689,MetaAwareness,2020.1.2,Linux x86_64,60,34R3P23QHT44L4WQV14RS81EC1CWHK,379J5II41PJFCKRJROULMDI99APELV,45977,45977,379J5II41PJFCKRJROULMDI99APELV,379J5II41PJFCKRJROULMDI99APELV,262737,262737,,,,
,,,,,,,,2,2.43989,0,11,11,21,1,A3FMBSTZ3ZGSV1,80,wolfe_image-105-a_w_outline.jpg,wolfe_image-105-b_w_outline.jpg,34,m,A3FMBSTZ3ZGSV1,2020-12-08_15h12.38.689,MetaAwareness,2020.1.2,Linux x86_64,60,34R3P23QHT44L4WQV14RS81EC1CWHK,379J5II41PJFCKRJROULMDI99APELV,45977,45977,379J5II41PJFCKRJROULMDI99APELV,379J5II41PJFCKRJROULMDI99APELV,262737,262737,,,,
,,,,,,,,5,3.53726,0,12,12,0,1,A3FMBSTZ3ZGSV1,1,wolfe_image-001-a_w_outline.jpg,wolfe_image-001-b_w_outline.jpg,34,m,A3FMBSTZ3ZGSV1,2020-12-08_15h12.38.689,MetaAwareness,2020.1.2,Linux x86_64,60,34R3P23QHT44L4WQV14RS81EC1CWHK,379J5II41PJFCKRJROULMDI99APELV,45977,45977,379J5II41PJFCKRJROULMDI99APELV,379J5II41PJFCKRJROULMDI99APELV,262737,262737,,,,
,,,,,,,,2,2.155825,0,13,13,5,1,A3FMBSTZ3ZGSV1,18,wolfe_image-018-a_w_outline.jpg,wolfe_image-018-b_w_outline.jpg,34,m,A3FMBSTZ3ZGSV1,2020-12-08_15h12.38.689,MetaAwareness,2020.1.2,Linux x86_64,60,34R3P23QHT44L4WQV14RS81EC1CWHK,379J5II41PJFCKRJROULMDI99APELV,45977,45977,379J5II41PJFCKRJROULMDI99APELV,379J5II41PJFCKRJROULMDI99APELV,262737,262737,,,,
,,,,,,,,2,2.78546,0,14,14,20,1,A3FMBSTZ3ZGSV1,77,wolfe_image-102-a_w_outline.jpg,wolfe_image-102-b_w_outline.jpg,34,m,A3FMBSTZ3ZGSV1,2020-12-08_15h12.38.689,MetaAwareness,2020.1.2,Linux x86_64,60,34R3P23QHT44L4WQV14RS81EC1CWHK,379J5II41PJFCKRJROULMDI99APELV,45977,45977,379J5II41PJFCKRJROULMDI99APELV,379J5II41PJFCKRJROULMDI99APELV,262737,262737,,,,
,,,,,,,,2,2.69497,0,15,15,9,1,A3FMBSTZ3ZGSV1,34,wolfe_image-034-a_w_outline.jpg,wolfe_image-034-b_w_outline.jpg,34,m,A3FMBSTZ3ZGSV1,2020-12-08_15h12.38.689,MetaAwareness,2020.1.2,Linux x86_64,60,34R3P23QHT44L4WQV14RS81EC1CWHK,379J5II41PJFCKRJROULMDI99APELV,45977,45977,379J5II41PJFCKRJROULMDI99APELV,379J5II41PJFCKRJROULMDI99APELV,262737,262737,,,,
,,,,,,,,2,2.498085,0,16,16,18,1,A3FMBSTZ3ZGSV1,73,wolfe_image-098-a_w_outline.jpg,wolfe_image-098-b_w_outline.jpg,34,m,A3FMBSTZ3ZGSV1,2020-12-08_15h12.38.689,MetaAwareness,2020.1.2,Linux x86_64,60,34R3P23QHT44L4WQV14RS81EC1CWHK,379J5II41PJFCKRJROULMDI99APELV,45977,45977,379J5II41PJFCKRJROULMDI99APELV,379J5II41PJFCKRJROULMDI99APELV,262737,262737,,,,
,,,,,,,,1,2.887375,0,17,17,4,1,A3FMBSTZ3ZGSV1,10,wolfe_image-010-a_w_outline.jpg,wolfe_image-010-b_w_outline.jpg,34,m,A3FMBSTZ3ZGSV1,2020-12-08_15h12.38.689,MetaAwareness,2020.1.2,Linux x86_64,60,34R3P23QHT44L4WQV14RS81EC1CWHK,379J5II41PJFCKRJROULMDI99APELV,45977,45977,379J5II41PJFCKRJROULMDI99APELV,379J5II41PJFCKRJROULMDI99APELV,262737,262737,,,,
,,,,,,,,2,2.325885,0,18,18,3,1,A3FMBSTZ3ZGSV1,7,wolfe_image-007-a_w_outline.jpg,wolfe_image-007-b_w_outline.jpg,34,m,A3FMBSTZ3ZGSV1,2020-12-08_15h12.38.689,MetaAwareness,2020.1.2,Linux x86_64,60,34R3P23QHT44L4WQV14RS81EC1CWHK,379J5II41PJFCKRJROULMDI99APELV,45977,45977,379J5II41PJFCKRJROULMDI99APELV,379J5II41PJFCKRJROULMDI99APELV,262737,262737,,,,
,,,,,,,,1,3.431195,0,19,19,19,1,A3FMBSTZ3ZGSV1,74,wolfe_image-099-a_w_outline.jpg,wolfe_image-099-b_w_outline.jpg,34,m,A3FMBSTZ3ZGSV1,2020-12-08_15h12.38.689,MetaAwareness,2020.1.2,Linux x86_64,60,34R3P23QHT44L4WQV14RS81EC1CWHK,379J5II41PJFCKRJROULMDI99APELV,45977,45977,379J5II41PJFCKRJROULMDI99APELV,379J5II41PJFCKRJROULMDI99APELV,262737,262737,,,,
,,,,,,,,2,2.18759,0,20,20,26,1,A3FMBSTZ3ZGSV1,95,wolfe_image-120-a_w_outline.jpg,wolfe_image-120-b_w_outline.jpg,34,m,A3FMBSTZ3ZGSV1,2020-12-08_15h12.38.689,MetaAwareness,2020.1.2,Linux x86_64,60,34R3P23QHT44L4WQV14RS81EC1CWHK,379J5II41PJFCKRJROULMDI99APELV,45977,45977,379J5II41PJFCKRJROULMDI99APELV,379J5II41PJFCKRJROULMDI99APELV,262737,262737,,,,
,,,,,,,,1,2.2843,0,21,21,25,1,A3FMBSTZ3ZGSV1,94,wolfe_image-119-a_w_outline.jpg,wolfe_image-119-b_w_outline.jpg,34,m,A3FMBSTZ3ZGSV1,2020-12-08_15h12.38.689,MetaAwareness,2020.1.2,Linux x86_64,60,34R3P23QHT44L4WQV14RS81EC1CWHK,379J5II41PJFCKRJROULMDI99APELV,45977,45977,379J5II41PJFCKRJROULMDI99APELV,379J5II41PJFCKRJROULMDI99APELV,262737,262737,,,,
,,,,,,,,3,2.9542,0,22,22,13,1,A3FMBSTZ3ZGSV1,62,wolfe_image-087-a_w_outline.jpg,wolfe_image-087-b_w_outline.jpg,34,m,A3FMBSTZ3ZGSV1,2020-12-08_15h12.38.689,MetaAwareness,2020.1.2,Linux x86_64,60,34R3P23QHT44L4WQV14RS81EC1CWHK,379J5II41PJFCKRJROULMDI99APELV,45977,45977,379J5II41PJFCKRJROULMDI99APELV,379J5II41PJFCKRJROULMDI99APELV,262737,262737,,,,
,,,,,,,,5,2.647415,0,23,23,29,1,A3FMBSTZ3ZGSV1,104,wolfe_image-129-a_w_outline.jpg,wolfe_image-129-b_w_outline.jpg,34,m,A3FMBSTZ3ZGSV1,2020-12-08_15h12.38.689,MetaAwareness,2020.1.2,Linux x86_64,60,34R3P23QHT44L4WQV14RS81EC1CWHK,379J5II41PJFCKRJROULMDI99APELV,45977,45977,379J5II41PJFCKRJROULMDI99APELV,379J5II41PJFCKRJROULMDI99APELV,262737,262737,,,,
,,,,,,,,3,2.96912,0,24,24,10,1,A3FMBSTZ3ZGSV1,38,wolfe_image-038-a_w_outline.jpg,wolfe_image-038-b_w_outline.jpg,34,m,A3FMBSTZ3ZGSV1,2020-12-08_15h12.38.689,MetaAwareness,2020.1.2,Linux x86_64,60,34R3P23QHT44L4WQV14RS81EC1CWHK,379J5II41PJFCKRJROULMDI99APELV,45977,45977,379J5II41PJFCKRJROULMDI99APELV,379J5II41PJFCKRJROULMDI99APELV,262737,262737,,,,
,,,,,,,,1,2.929845,0,25,25,28,1,A3FMBSTZ3ZGSV1,100,wolfe_image-125-a_w_outline.jpg,wolfe_image-125-b_w_outline.jpg,34,m,A3FMBSTZ3ZGSV1,2020-12-08_15h12.38.689,MetaAwareness,2020.1.2,Linux x86_64,60,34R3P23QHT44L4WQV14RS81EC1CWHK,379J5II41PJFCKRJROULMDI99APELV,45977,45977,379J5II41PJFCKRJROULMDI99APELV,379J5II41PJFCKRJROULMDI99APELV,262737,262737,,,,
,,,,,,,,2,2.48694,0,26,26,24,1,A3FMBSTZ3ZGSV1,93,wolfe_image-118-a_w_outline.jpg,wolfe_image-118-b_w_outline.jpg,34,m,A3FMBSTZ3ZGSV1,2020-12-08_15h12.38.689,MetaAwareness,2020.1.2,Linux x86_64,60,34R3P23QHT44L4WQV14RS81EC1CWHK,379J5II41PJFCKRJROULMDI99APELV,45977,45977,379J5II41PJFCKRJROULMDI99APELV,379J5II41PJFCKRJROULMDI99APELV,262737,262737,,,,
,,,,,,,,1,3.25616,0,27,27,6,1,A3FMBSTZ3ZGSV1,26,wolfe_image-026-a_w_outline.jpg,wolfe_image-026-b_w_outline.jpg,34,m,A3FMBSTZ3ZGSV1,2020-12-08_15h12.38.689,MetaAwareness,2020.1.2,Linux x86_64,60,34R3P23QHT44L4WQV14RS81EC1CWHK,379J5II41PJFCKRJROULMDI99APELV,45977,45977,379J5II41PJFCKRJROULMDI99APELV,379J5II41PJFCKRJROULMDI99APELV,262737,262737,,,,
,,,,,,,,2,3.6286,0,28,28,11,1,A3FMBSTZ3ZGSV1,41,wolfe_image-041-a_w_outline.jpg,wolfe_image-041-b_w_outline.jpg,34,m,A3FMBSTZ3ZGSV1,2020-12-08_15h12.38.689,MetaAwareness,2020.1.2,Linux x86_64,60,34R3P23QHT44L4WQV14RS81EC1CWHK,379J5II41PJFCKRJROULMDI99APELV,45977,45977,379J5II41PJFCKRJROULMDI99APELV,379J5II41PJFCKRJROULMDI99APELV,262737,262737,,,,
,,,,,,,,1,2.84451,0,29,29,7,1,A3FMBSTZ3ZGSV1,27,wolfe_image-027-a_w_outline.jpg,wolfe_image-027-b_w_outline.jpg,34,m,A3FMBSTZ3ZGSV1,2020-12-08_15h12.38.689,MetaAwareness,2020.1.2,Linux x86_64,60,34R3P23QHT44L4WQV14RS81EC1CWHK,379J5II41PJFCKRJROULMDI99APELV,45977,45977,379J5II41PJFCKRJROULMDI99APELV,379J5II41PJFCKRJROULMDI99APELV,262737,262737,,,,
,,,,,,,,,,,,,,,A3FMBSTZ3ZGSV1,,,,34,m,A3FMBSTZ3ZGSV1,2020-12-08_15h12.38.689,MetaAwareness,2020.1.2,Linux x86_64,60,34R3P23QHT44L4WQV14RS81EC1CWHK,379J5II41PJFCKRJROULMDI99APELV,45977,45977,379J5II41PJFCKRJROULMDI99APELV,379J5II41PJFCKRJROULMDI99APELV,262737,262737,5,1.042155,2,1.451995
