consent_response.keys,consent_response.rt,key_resp_2.keys,key_resp_2.rt,Airplane_resp.keys,Airplane_resp.rt,Boat_resp.keys,Boat_resp.rt,user_resp.keys,user_resp.rt,trials.thisRepN,trials.thisTrialN,trials.thisN,trials.thisIndex,trials.ran,workerId,trial_num,image_a,image_b,age,gender (m/f),worker_ID,date,expName,psychopyVersion,OS,frameRate,hitId,assignmentId,a,tp_a,b,tp_b,c,tp_c,Cow_resp.keys,Cow_resp.rt,Garden_resp.keys,Garden_resp.rt
space,48.488,space,41.275,5,10.678,5,3.068,1,18.865,0,0,0,21,1,A3JAM040VWXHDO,79,wolfe_image-104-a_w_outline.jpg,wolfe_image-104-b_w_outline.jpg,51,f,A3JAM040VWXHDO,2020-12-08_17h36.48.557,MetaAwareness,2020.1.2,Win32,60,3D06DR5226MT65UYLTOC2OCJ148AMW,3B3WTRP3DC5SG2EU97WUF3IPCDG92P,3T3B7,3T3B7,3B3WTRP3DC5SG2EU97WUF3IPCDG92P,3B3WTRP3DC5SG2EU97WUF3IPCDG92P,262737,262737,,,,
,,,,,,,,2,4.502,0,1,1,19,1,A3JAM040VWXHDO,70,wolfe_image-095-a_w_outline.jpg,wolfe_image-095-b_w_outline.jpg,51,f,A3JAM040VWXHDO,2020-12-08_17h36.48.557,MetaAwareness,2020.1.2,Win32,60,3D06DR5226MT65UYLTOC2OCJ148AMW,3B3WTRP3DC5SG2EU97WUF3IPCDG92P,3T3B7,3T3B7,3B3WTRP3DC5SG2EU97WUF3IPCDG92P,3B3WTRP3DC5SG2EU97WUF3IPCDG92P,262737,262737,,,,
,,,,,,,,3,11.95,0,2,2,28,1,A3JAM040VWXHDO,104,wolfe_image-129-a_w_outline.jpg,wolfe_image-129-b_w_outline.jpg,51,f,A3JAM040VWXHDO,2020-12-08_17h36.48.557,MetaAwareness,2020.1.2,Win32,60,3D06DR5226MT65UYLTOC2OCJ148AMW,3B3WTRP3DC5SG2EU97WUF3IPCDG92P,3T3B7,3T3B7,3B3WTRP3DC5SG2EU97WUF3IPCDG92P,3B3WTRP3DC5SG2EU97WUF3IPCDG92P,262737,262737,,,,
,,,,,,,,3,7.285,0,3,3,15,1,A3JAM040VWXHDO,52,wolfe_image-077-a_w_outline.jpg,wolfe_image-077-b_w_outline.jpg,51,f,A3JAM040VWXHDO,2020-12-08_17h36.48.557,MetaAwareness,2020.1.2,Win32,60,3D06DR5226MT65UYLTOC2OCJ148AMW,3B3WTRP3DC5SG2EU97WUF3IPCDG92P,3T3B7,3T3B7,3B3WTRP3DC5SG2EU97WUF3IPCDG92P,3B3WTRP3DC5SG2EU97WUF3IPCDG92P,262737,262737,,,,
,,,,,,,,1,20.249,0,4,4,16,1,A3JAM040VWXHDO,54,wolfe_image-079-a_w_outline.jpg,wolfe_image-079-b_w_outline.jpg,51,f,A3JAM040VWXHDO,2020-12-08_17h36.48.557,MetaAwareness,2020.1.2,Win32,60,3D06DR5226MT65UYLTOC2OCJ148AMW,3B3WTRP3DC5SG2EU97WUF3IPCDG92P,3T3B7,3T3B7,3B3WTRP3DC5SG2EU97WUF3IPCDG92P,3B3WTRP3DC5SG2EU97WUF3IPCDG92P,262737,262737,,,,
,,,,,,,,2,7.684,0,5,5,27,1,A3JAM040VWXHDO,100,wolfe_image-125-a_w_outline.jpg,wolfe_image-125-b_w_outline.jpg,51,f,A3JAM040VWXHDO,2020-12-08_17h36.48.557,MetaAwareness,2020.1.2,Win32,60,3D06DR5226MT65UYLTOC2OCJ148AMW,3B3WTRP3DC5SG2EU97WUF3IPCDG92P,3T3B7,3T3B7,3B3WTRP3DC5SG2EU97WUF3IPCDG92P,3B3WTRP3DC5SG2EU97WUF3IPCDG92P,262737,262737,,,,
,,,,,,,,1,11.217,0,6,6,22,1,A3JAM040VWXHDO,81,wolfe_image-106-a_w_outline.jpg,wolfe_image-106-b_w_outline.jpg,51,f,A3JAM040VWXHDO,2020-12-08_17h36.48.557,MetaAwareness,2020.1.2,Win32,60,3D06DR5226MT65UYLTOC2OCJ148AMW,3B3WTRP3DC5SG2EU97WUF3IPCDG92P,3T3B7,3T3B7,3B3WTRP3DC5SG2EU97WUF3IPCDG92P,3B3WTRP3DC5SG2EU97WUF3IPCDG92P,262737,262737,,,,
,,,,,,,,1,6.535,0,7,7,24,1,A3JAM040VWXHDO,93,wolfe_image-118-a_w_outline.jpg,wolfe_image-118-b_w_outline.jpg,51,f,A3JAM040VWXHDO,2020-12-08_17h36.48.557,MetaAwareness,2020.1.2,Win32,60,3D06DR5226MT65UYLTOC2OCJ148AMW,3B3WTRP3DC5SG2EU97WUF3IPCDG92P,3T3B7,3T3B7,3B3WTRP3DC5SG2EU97WUF3IPCDG92P,3B3WTRP3DC5SG2EU97WUF3IPCDG92P,262737,262737,,,,
,,,,,,,,3,8.837,0,8,8,13,1,A3JAM040VWXHDO,50,wolfe_image-050-a_w_outline.jpg,wolfe_image-050-b_w_outline.jpg,51,f,A3JAM040VWXHDO,2020-12-08_17h36.48.557,MetaAwareness,2020.1.2,Win32,60,3D06DR5226MT65UYLTOC2OCJ148AMW,3B3WTRP3DC5SG2EU97WUF3IPCDG92P,3T3B7,3T3B7,3B3WTRP3DC5SG2EU97WUF3IPCDG92P,3B3WTRP3DC5SG2EU97WUF3IPCDG92P,262737,262737,,,,
,,,,,,,,2,6.428,0,9,9,29,1,A3JAM040VWXHDO,108,wolfe_image-133-a_w_outline.jpg,wolfe_image-133-b_w_outline.jpg,51,f,A3JAM040VWXHDO,2020-12-08_17h36.48.557,MetaAwareness,2020.1.2,Win32,60,3D06DR5226MT65UYLTOC2OCJ148AMW,3B3WTRP3DC5SG2EU97WUF3IPCDG92P,3T3B7,3T3B7,3B3WTRP3DC5SG2EU97WUF3IPCDG92P,3B3WTRP3DC5SG2EU97WUF3IPCDG92P,262737,262737,,,,
,,,,,,,,3,6.288,0,10,10,9,1,A3JAM040VWXHDO,32,wolfe_image-032-a_w_outline.jpg,wolfe_image-032-b_w_outline.jpg,51,f,A3JAM040VWXHDO,2020-12-08_17h36.48.557,MetaAwareness,2020.1.2,Win32,60,3D06DR5226MT65UYLTOC2OCJ148AMW,3B3WTRP3DC5SG2EU97WUF3IPCDG92P,3T3B7,3T3B7,3B3WTRP3DC5SG2EU97WUF3IPCDG92P,3B3WTRP3DC5SG2EU97WUF3IPCDG92P,262737,262737,,,,
,,,,,,,,3,5.989,0,11,11,2,1,A3JAM040VWXHDO,6,wolfe_image-006-a_w_outline.jpg,wolfe_image-006-b_w_outline.jpg,51,f,A3JAM040VWXHDO,2020-12-08_17h36.48.557,MetaAwareness,2020.1.2,Win32,60,3D06DR5226MT65UYLTOC2OCJ148AMW,3B3WTRP3DC5SG2EU97WUF3IPCDG92P,3T3B7,3T3B7,3B3WTRP3DC5SG2EU97WUF3IPCDG92P,3B3WTRP3DC5SG2EU97WUF3IPCDG92P,262737,262737,,,,
,,,,,,,,1,6.167,0,12,12,7,1,A3JAM040VWXHDO,27,wolfe_image-027-a_w_outline.jpg,wolfe_image-027-b_w_outline.jpg,51,f,A3JAM040VWXHDO,2020-12-08_17h36.48.557,MetaAwareness,2020.1.2,Win32,60,3D06DR5226MT65UYLTOC2OCJ148AMW,3B3WTRP3DC5SG2EU97WUF3IPCDG92P,3T3B7,3T3B7,3B3WTRP3DC5SG2EU97WUF3IPCDG92P,3B3WTRP3DC5SG2EU97WUF3IPCDG92P,262737,262737,,,,
,,,,,,,,4,3.807,0,13,13,1,1,A3JAM040VWXHDO,4,wolfe_image-004-a_w_outline.jpg,wolfe_image-004-b_w_outline.jpg,51,f,A3JAM040VWXHDO,2020-12-08_17h36.48.557,MetaAwareness,2020.1.2,Win32,60,3D06DR5226MT65UYLTOC2OCJ148AMW,3B3WTRP3DC5SG2EU97WUF3IPCDG92P,3T3B7,3T3B7,3B3WTRP3DC5SG2EU97WUF3IPCDG92P,3B3WTRP3DC5SG2EU97WUF3IPCDG92P,262737,262737,,,,
,,,,,,,,1,5.271,0,14,14,5,1,A3JAM040VWXHDO,22,wolfe_image-022-a_w_outline.jpg,wolfe_image-022-b_w_outline.jpg,51,f,A3JAM040VWXHDO,2020-12-08_17h36.48.557,MetaAwareness,2020.1.2,Win32,60,3D06DR5226MT65UYLTOC2OCJ148AMW,3B3WTRP3DC5SG2EU97WUF3IPCDG92P,3T3B7,3T3B7,3B3WTRP3DC5SG2EU97WUF3IPCDG92P,3B3WTRP3DC5SG2EU97WUF3IPCDG92P,262737,262737,,,,
,,,,,,,,1,9.934,0,15,15,14,1,A3JAM040VWXHDO,51,wolfe_image-076-a_w_outline.jpg,wolfe_image-076-b_w_outline.jpg,51,f,A3JAM040VWXHDO,2020-12-08_17h36.48.557,MetaAwareness,2020.1.2,Win32,60,3D06DR5226MT65UYLTOC2OCJ148AMW,3B3WTRP3DC5SG2EU97WUF3IPCDG92P,3T3B7,3T3B7,3B3WTRP3DC5SG2EU97WUF3IPCDG92P,3B3WTRP3DC5SG2EU97WUF3IPCDG92P,262737,262737,,,,
,,,,,,,,2,7.239,0,16,16,12,1,A3JAM040VWXHDO,40,wolfe_image-040-a_w_outline.jpg,wolfe_image-040-b_w_outline.jpg,51,f,A3JAM040VWXHDO,2020-12-08_17h36.48.557,MetaAwareness,2020.1.2,Win32,60,3D06DR5226MT65UYLTOC2OCJ148AMW,3B3WTRP3DC5SG2EU97WUF3IPCDG92P,3T3B7,3T3B7,3B3WTRP3DC5SG2EU97WUF3IPCDG92P,3B3WTRP3DC5SG2EU97WUF3IPCDG92P,262737,262737,,,,
,,,,,,,,2,8.289,0,17,17,0,1,A3JAM040VWXHDO,1,wolfe_image-001-a_w_outline.jpg,wolfe_image-001-b_w_outline.jpg,51,f,A3JAM040VWXHDO,2020-12-08_17h36.48.557,MetaAwareness,2020.1.2,Win32,60,3D06DR5226MT65UYLTOC2OCJ148AMW,3B3WTRP3DC5SG2EU97WUF3IPCDG92P,3T3B7,3T3B7,3B3WTRP3DC5SG2EU97WUF3IPCDG92P,3B3WTRP3DC5SG2EU97WUF3IPCDG92P,262737,262737,,,,
,,,,,,,,1,6.731,0,18,18,18,1,A3JAM040VWXHDO,69,wolfe_image-094-a_w_outline.jpg,wolfe_image-094-b_w_outline.jpg,51,f,A3JAM040VWXHDO,2020-12-08_17h36.48.557,MetaAwareness,2020.1.2,Win32,60,3D06DR5226MT65UYLTOC2OCJ148AMW,3B3WTRP3DC5SG2EU97WUF3IPCDG92P,3T3B7,3T3B7,3B3WTRP3DC5SG2EU97WUF3IPCDG92P,3B3WTRP3DC5SG2EU97WUF3IPCDG92P,262737,262737,,,,
,,,,,,,,1,7.869,0,19,19,20,1,A3JAM040VWXHDO,77,wolfe_image-102-a_w_outline.jpg,wolfe_image-102-b_w_outline.jpg,51,f,A3JAM040VWXHDO,2020-12-08_17h36.48.557,MetaAwareness,2020.1.2,Win32,60,3D06DR5226MT65UYLTOC2OCJ148AMW,3B3WTRP3DC5SG2EU97WUF3IPCDG92P,3T3B7,3T3B7,3B3WTRP3DC5SG2EU97WUF3IPCDG92P,3B3WTRP3DC5SG2EU97WUF3IPCDG92P,262737,262737,,,,
,,,,,,,,4,7.977,0,20,20,17,1,A3JAM040VWXHDO,64,wolfe_image-089-a_w_outline.jpg,wolfe_image-089-b_w_outline.jpg,51,f,A3JAM040VWXHDO,2020-12-08_17h36.48.557,MetaAwareness,2020.1.2,Win32,60,3D06DR5226MT65UYLTOC2OCJ148AMW,3B3WTRP3DC5SG2EU97WUF3IPCDG92P,3T3B7,3T3B7,3B3WTRP3DC5SG2EU97WUF3IPCDG92P,3B3WTRP3DC5SG2EU97WUF3IPCDG92P,262737,262737,,,,
,,,,,,,,1,10.985,0,21,21,25,1,A3JAM040VWXHDO,97,wolfe_image-122-a_w_outline.jpg,wolfe_image-122-b_w_outline.jpg,51,f,A3JAM040VWXHDO,2020-12-08_17h36.48.557,MetaAwareness,2020.1.2,Win32,60,3D06DR5226MT65UYLTOC2OCJ148AMW,3B3WTRP3DC5SG2EU97WUF3IPCDG92P,3T3B7,3T3B7,3B3WTRP3DC5SG2EU97WUF3IPCDG92P,3B3WTRP3DC5SG2EU97WUF3IPCDG92P,262737,262737,,,,
,,,,,,,,4,4.052,0,22,22,3,1,A3JAM040VWXHDO,15,wolfe_image-015-a_w_outline.jpg,wolfe_image-015-b_w_outline.jpg,51,f,A3JAM040VWXHDO,2020-12-08_17h36.48.557,MetaAwareness,2020.1.2,Win32,60,3D06DR5226MT65UYLTOC2OCJ148AMW,3B3WTRP3DC5SG2EU97WUF3IPCDG92P,3T3B7,3T3B7,3B3WTRP3DC5SG2EU97WUF3IPCDG92P,3B3WTRP3DC5SG2EU97WUF3IPCDG92P,262737,262737,,,,
,,,,,,,,3,4.341,0,23,23,6,1,A3JAM040VWXHDO,24,wolfe_image-024-a_w_outline.jpg,wolfe_image-024-b_w_outline.jpg,51,f,A3JAM040VWXHDO,2020-12-08_17h36.48.557,MetaAwareness,2020.1.2,Win32,60,3D06DR5226MT65UYLTOC2OCJ148AMW,3B3WTRP3DC5SG2EU97WUF3IPCDG92P,3T3B7,3T3B7,3B3WTRP3DC5SG2EU97WUF3IPCDG92P,3B3WTRP3DC5SG2EU97WUF3IPCDG92P,262737,262737,,,,
,,,,,,,,1,10.219,0,24,24,26,1,A3JAM040VWXHDO,98,wolfe_image-123-a_w_outline.jpg,wolfe_image-123-b_w_outline.jpg,51,f,A3JAM040VWXHDO,2020-12-08_17h36.48.557,MetaAwareness,2020.1.2,Win32,60,3D06DR5226MT65UYLTOC2OCJ148AMW,3B3WTRP3DC5SG2EU97WUF3IPCDG92P,3T3B7,3T3B7,3B3WTRP3DC5SG2EU97WUF3IPCDG92P,3B3WTRP3DC5SG2EU97WUF3IPCDG92P,262737,262737,,,,
,,,,,,,,5,4.75,0,25,25,10,1,A3JAM040VWXHDO,33,wolfe_image-033-a_w_outline.jpg,wolfe_image-033-b_w_outline.jpg,51,f,A3JAM040VWXHDO,2020-12-08_17h36.48.557,MetaAwareness,2020.1.2,Win32,60,3D06DR5226MT65UYLTOC2OCJ148AMW,3B3WTRP3DC5SG2EU97WUF3IPCDG92P,3T3B7,3T3B7,3B3WTRP3DC5SG2EU97WUF3IPCDG92P,3B3WTRP3DC5SG2EU97WUF3IPCDG92P,262737,262737,,,,
,,,,,,,,4,5.721,0,26,26,11,1,A3JAM040VWXHDO,37,wolfe_image-037-a_w_outline.jpg,wolfe_image-037-b_w_outline.jpg,51,f,A3JAM040VWXHDO,2020-12-08_17h36.48.557,MetaAwareness,2020.1.2,Win32,60,3D06DR5226MT65UYLTOC2OCJ148AMW,3B3WTRP3DC5SG2EU97WUF3IPCDG92P,3T3B7,3T3B7,3B3WTRP3DC5SG2EU97WUF3IPCDG92P,3B3WTRP3DC5SG2EU97WUF3IPCDG92P,262737,262737,,,,
,,,,,,,,3,6.02,0,27,27,8,1,A3JAM040VWXHDO,30,wolfe_image-030-a_w_outline.jpg,wolfe_image-030-b_w_outline.jpg,51,f,A3JAM040VWXHDO,2020-12-08_17h36.48.557,MetaAwareness,2020.1.2,Win32,60,3D06DR5226MT65UYLTOC2OCJ148AMW,3B3WTRP3DC5SG2EU97WUF3IPCDG92P,3T3B7,3T3B7,3B3WTRP3DC5SG2EU97WUF3IPCDG92P,3B3WTRP3DC5SG2EU97WUF3IPCDG92P,262737,262737,,,,
,,,,,,,,3,10.378,0,28,28,4,1,A3JAM040VWXHDO,21,wolfe_image-021-a_w_outline.jpg,wolfe_image-021-b_w_outline.jpg,51,f,A3JAM040VWXHDO,2020-12-08_17h36.48.557,MetaAwareness,2020.1.2,Win32,60,3D06DR5226MT65UYLTOC2OCJ148AMW,3B3WTRP3DC5SG2EU97WUF3IPCDG92P,3T3B7,3T3B7,3B3WTRP3DC5SG2EU97WUF3IPCDG92P,3B3WTRP3DC5SG2EU97WUF3IPCDG92P,262737,262737,,,,
,,,,,,,,3,8.355,0,29,29,23,1,A3JAM040VWXHDO,88,wolfe_image-113-a_w_outline.jpg,wolfe_image-113-b_w_outline.jpg,51,f,A3JAM040VWXHDO,2020-12-08_17h36.48.557,MetaAwareness,2020.1.2,Win32,60,3D06DR5226MT65UYLTOC2OCJ148AMW,3B3WTRP3DC5SG2EU97WUF3IPCDG92P,3T3B7,3T3B7,3B3WTRP3DC5SG2EU97WUF3IPCDG92P,3B3WTRP3DC5SG2EU97WUF3IPCDG92P,262737,262737,,,,
,,,,,,,,,,,,,,,A3JAM040VWXHDO,,,,51,f,A3JAM040VWXHDO,2020-12-08_17h36.48.557,MetaAwareness,2020.1.2,Win32,60,3D06DR5226MT65UYLTOC2OCJ148AMW,3B3WTRP3DC5SG2EU97WUF3IPCDG92P,3T3B7,3T3B7,3B3WTRP3DC5SG2EU97WUF3IPCDG92P,3B3WTRP3DC5SG2EU97WUF3IPCDG92P,262737,262737,5,1.709,1,17.34
