consent_response.keys,consent_response.rt,key_resp_2.keys,key_resp_2.rt,Airplane_resp.keys,Airplane_resp.rt,Boat_resp.keys,Boat_resp.rt,user_resp.keys,user_resp.rt,trials.thisRepN,trials.thisTrialN,trials.thisN,trials.thisIndex,trials.ran,workerId,trial_num,image_a,image_b,age,gender (m/f),worker_ID,date,expName,psychopyVersion,OS,frameRate,hitId,assignmentId,a,tp_a,b,tp_b,c,tp_c,Cow_resp.keys,Cow_resp.rt,Garden_resp.keys,Garden_resp.rt
space,4.82398,space,101.547265,5,1.5821,5,0.818445,3,2.707385,0,0,0,9,1,AT0COJ1G23ZB0,34,wolfe_image-034-a_w_outline.jpg,wolfe_image-034-b_w_outline.jpg,31,f,AT0COJ1G23ZB0,2020-12-08_17h22.55.964,MetaAwareness,2020.1.2,MacIntel,60,34R3P23QHT44L4WQV14RS81EC1CWHK,3C2NJ6JBKBKD54IOAHFZX4D9H2Z2NJ,BJ2C7,BJ2C7,3C2NJ6JBKBKD54IOAHFZX4D9H2Z2NJ,3C2NJ6JBKBKD54IOAHFZX4D9H2Z2NJ,262737,262737,,,,
,,,,,,,,2,3.05365,0,1,1,20,1,AT0COJ1G23ZB0,66,wolfe_image-091-a_w_outline.jpg,wolfe_image-091-b_w_outline.jpg,31,f,AT0COJ1G23ZB0,2020-12-08_17h22.55.964,MetaAwareness,2020.1.2,MacIntel,60,34R3P23QHT44L4WQV14RS81EC1CWHK,3C2NJ6JBKBKD54IOAHFZX4D9H2Z2NJ,BJ2C7,BJ2C7,3C2NJ6JBKBKD54IOAHFZX4D9H2Z2NJ,3C2NJ6JBKBKD54IOAHFZX4D9H2Z2NJ,262737,262737,,,,
,,,,,,,,3,2.536825,0,2,2,1,1,AT0COJ1G23ZB0,4,wolfe_image-004-a_w_outline.jpg,wolfe_image-004-b_w_outline.jpg,31,f,AT0COJ1G23ZB0,2020-12-08_17h22.55.964,MetaAwareness,2020.1.2,MacIntel,60,34R3P23QHT44L4WQV14RS81EC1CWHK,3C2NJ6JBKBKD54IOAHFZX4D9H2Z2NJ,BJ2C7,BJ2C7,3C2NJ6JBKBKD54IOAHFZX4D9H2Z2NJ,3C2NJ6JBKBKD54IOAHFZX4D9H2Z2NJ,262737,262737,,,,
,,,,,,,,2,2.620255,0,3,3,22,1,AT0COJ1G23ZB0,77,wolfe_image-102-a_w_outline.jpg,wolfe_image-102-b_w_outline.jpg,31,f,AT0COJ1G23ZB0,2020-12-08_17h22.55.964,MetaAwareness,2020.1.2,MacIntel,60,34R3P23QHT44L4WQV14RS81EC1CWHK,3C2NJ6JBKBKD54IOAHFZX4D9H2Z2NJ,BJ2C7,BJ2C7,3C2NJ6JBKBKD54IOAHFZX4D9H2Z2NJ,3C2NJ6JBKBKD54IOAHFZX4D9H2Z2NJ,262737,262737,,,,
,,,,,,,,1,2.439205,0,4,4,28,1,AT0COJ1G23ZB0,108,wolfe_image-133-a_w_outline.jpg,wolfe_image-133-b_w_outline.jpg,31,f,AT0COJ1G23ZB0,2020-12-08_17h22.55.964,MetaAwareness,2020.1.2,MacIntel,60,34R3P23QHT44L4WQV14RS81EC1CWHK,3C2NJ6JBKBKD54IOAHFZX4D9H2Z2NJ,BJ2C7,BJ2C7,3C2NJ6JBKBKD54IOAHFZX4D9H2Z2NJ,3C2NJ6JBKBKD54IOAHFZX4D9H2Z2NJ,262737,262737,,,,
,,,,,,,,2,4.00296,0,5,5,15,1,AT0COJ1G23ZB0,51,wolfe_image-076-a_w_outline.jpg,wolfe_image-076-b_w_outline.jpg,31,f,AT0COJ1G23ZB0,2020-12-08_17h22.55.964,MetaAwareness,2020.1.2,MacIntel,60,34R3P23QHT44L4WQV14RS81EC1CWHK,3C2NJ6JBKBKD54IOAHFZX4D9H2Z2NJ,BJ2C7,BJ2C7,3C2NJ6JBKBKD54IOAHFZX4D9H2Z2NJ,3C2NJ6JBKBKD54IOAHFZX4D9H2Z2NJ,262737,262737,,,,
,,,,,,,,1,2.618725,0,6,6,6,1,AT0COJ1G23ZB0,27,wolfe_image-027-a_w_outline.jpg,wolfe_image-027-b_w_outline.jpg,31,f,AT0COJ1G23ZB0,2020-12-08_17h22.55.964,MetaAwareness,2020.1.2,MacIntel,60,34R3P23QHT44L4WQV14RS81EC1CWHK,3C2NJ6JBKBKD54IOAHFZX4D9H2Z2NJ,BJ2C7,BJ2C7,3C2NJ6JBKBKD54IOAHFZX4D9H2Z2NJ,3C2NJ6JBKBKD54IOAHFZX4D9H2Z2NJ,262737,262737,,,,
,,,,,,,,3,2.887,0,7,7,10,1,AT0COJ1G23ZB0,44,wolfe_image-044-a_w_outline.jpg,wolfe_image-044-b_w_outline.jpg,31,f,AT0COJ1G23ZB0,2020-12-08_17h22.55.964,MetaAwareness,2020.1.2,MacIntel,60,34R3P23QHT44L4WQV14RS81EC1CWHK,3C2NJ6JBKBKD54IOAHFZX4D9H2Z2NJ,BJ2C7,BJ2C7,3C2NJ6JBKBKD54IOAHFZX4D9H2Z2NJ,3C2NJ6JBKBKD54IOAHFZX4D9H2Z2NJ,262737,262737,,,,
,,,,,,,,4,2.836275,0,8,8,23,1,AT0COJ1G23ZB0,92,wolfe_image-117-a_w_outline.jpg,wolfe_image-117-b_w_outline.jpg,31,f,AT0COJ1G23ZB0,2020-12-08_17h22.55.964,MetaAwareness,2020.1.2,MacIntel,60,34R3P23QHT44L4WQV14RS81EC1CWHK,3C2NJ6JBKBKD54IOAHFZX4D9H2Z2NJ,BJ2C7,BJ2C7,3C2NJ6JBKBKD54IOAHFZX4D9H2Z2NJ,3C2NJ6JBKBKD54IOAHFZX4D9H2Z2NJ,262737,262737,,,,
,,,,,,,,2,2.13633,0,9,9,13,1,AT0COJ1G23ZB0,48,wolfe_image-048-a_w_outline.jpg,wolfe_image-048-b_w_outline.jpg,31,f,AT0COJ1G23ZB0,2020-12-08_17h22.55.964,MetaAwareness,2020.1.2,MacIntel,60,34R3P23QHT44L4WQV14RS81EC1CWHK,3C2NJ6JBKBKD54IOAHFZX4D9H2Z2NJ,BJ2C7,BJ2C7,3C2NJ6JBKBKD54IOAHFZX4D9H2Z2NJ,3C2NJ6JBKBKD54IOAHFZX4D9H2Z2NJ,262737,262737,,,,
,,,,,,,,5,2.43655,0,10,10,5,1,AT0COJ1G23ZB0,25,wolfe_image-025-a_w_outline.jpg,wolfe_image-025-b_w_outline.jpg,31,f,AT0COJ1G23ZB0,2020-12-08_17h22.55.964,MetaAwareness,2020.1.2,MacIntel,60,34R3P23QHT44L4WQV14RS81EC1CWHK,3C2NJ6JBKBKD54IOAHFZX4D9H2Z2NJ,BJ2C7,BJ2C7,3C2NJ6JBKBKD54IOAHFZX4D9H2Z2NJ,3C2NJ6JBKBKD54IOAHFZX4D9H2Z2NJ,262737,262737,,,,
,,,,,,,,4,4.002725,0,11,11,19,1,AT0COJ1G23ZB0,58,wolfe_image-083-a_w_outline.jpg,wolfe_image-083-b_w_outline.jpg,31,f,AT0COJ1G23ZB0,2020-12-08_17h22.55.964,MetaAwareness,2020.1.2,MacIntel,60,34R3P23QHT44L4WQV14RS81EC1CWHK,3C2NJ6JBKBKD54IOAHFZX4D9H2Z2NJ,BJ2C7,BJ2C7,3C2NJ6JBKBKD54IOAHFZX4D9H2Z2NJ,3C2NJ6JBKBKD54IOAHFZX4D9H2Z2NJ,262737,262737,,,,
,,,,,,,,2,2.56954,0,12,12,12,1,AT0COJ1G23ZB0,47,wolfe_image-047-a_w_outline.jpg,wolfe_image-047-b_w_outline.jpg,31,f,AT0COJ1G23ZB0,2020-12-08_17h22.55.964,MetaAwareness,2020.1.2,MacIntel,60,34R3P23QHT44L4WQV14RS81EC1CWHK,3C2NJ6JBKBKD54IOAHFZX4D9H2Z2NJ,BJ2C7,BJ2C7,3C2NJ6JBKBKD54IOAHFZX4D9H2Z2NJ,3C2NJ6JBKBKD54IOAHFZX4D9H2Z2NJ,262737,262737,,,,
,,,,,,,,1,3.536935,0,13,13,21,1,AT0COJ1G23ZB0,71,wolfe_image-096-a_w_outline.jpg,wolfe_image-096-b_w_outline.jpg,31,f,AT0COJ1G23ZB0,2020-12-08_17h22.55.964,MetaAwareness,2020.1.2,MacIntel,60,34R3P23QHT44L4WQV14RS81EC1CWHK,3C2NJ6JBKBKD54IOAHFZX4D9H2Z2NJ,BJ2C7,BJ2C7,3C2NJ6JBKBKD54IOAHFZX4D9H2Z2NJ,3C2NJ6JBKBKD54IOAHFZX4D9H2Z2NJ,262737,262737,,,,
,,,,,,,,2,3.16791,0,14,14,24,1,AT0COJ1G23ZB0,94,wolfe_image-119-a_w_outline.jpg,wolfe_image-119-b_w_outline.jpg,31,f,AT0COJ1G23ZB0,2020-12-08_17h22.55.964,MetaAwareness,2020.1.2,MacIntel,60,34R3P23QHT44L4WQV14RS81EC1CWHK,3C2NJ6JBKBKD54IOAHFZX4D9H2Z2NJ,BJ2C7,BJ2C7,3C2NJ6JBKBKD54IOAHFZX4D9H2Z2NJ,3C2NJ6JBKBKD54IOAHFZX4D9H2Z2NJ,262737,262737,,,,
,,,,,,,,3,3.219065,0,15,15,8,1,AT0COJ1G23ZB0,30,wolfe_image-030-a_w_outline.jpg,wolfe_image-030-b_w_outline.jpg,31,f,AT0COJ1G23ZB0,2020-12-08_17h22.55.964,MetaAwareness,2020.1.2,MacIntel,60,34R3P23QHT44L4WQV14RS81EC1CWHK,3C2NJ6JBKBKD54IOAHFZX4D9H2Z2NJ,BJ2C7,BJ2C7,3C2NJ6JBKBKD54IOAHFZX4D9H2Z2NJ,3C2NJ6JBKBKD54IOAHFZX4D9H2Z2NJ,262737,262737,,,,
,,,,,,,,2,3.28817,0,16,16,11,1,AT0COJ1G23ZB0,46,wolfe_image-046-a_w_outline.jpg,wolfe_image-046-b_w_outline.jpg,31,f,AT0COJ1G23ZB0,2020-12-08_17h22.55.964,MetaAwareness,2020.1.2,MacIntel,60,34R3P23QHT44L4WQV14RS81EC1CWHK,3C2NJ6JBKBKD54IOAHFZX4D9H2Z2NJ,BJ2C7,BJ2C7,3C2NJ6JBKBKD54IOAHFZX4D9H2Z2NJ,3C2NJ6JBKBKD54IOAHFZX4D9H2Z2NJ,262737,262737,,,,
,,,,,,,,4,2.720895,0,17,17,14,1,AT0COJ1G23ZB0,50,wolfe_image-050-a_w_outline.jpg,wolfe_image-050-b_w_outline.jpg,31,f,AT0COJ1G23ZB0,2020-12-08_17h22.55.964,MetaAwareness,2020.1.2,MacIntel,60,34R3P23QHT44L4WQV14RS81EC1CWHK,3C2NJ6JBKBKD54IOAHFZX4D9H2Z2NJ,BJ2C7,BJ2C7,3C2NJ6JBKBKD54IOAHFZX4D9H2Z2NJ,3C2NJ6JBKBKD54IOAHFZX4D9H2Z2NJ,262737,262737,,,,
,,,,,,,,2,4.520945,0,18,18,27,1,AT0COJ1G23ZB0,103,wolfe_image-128-a_w_outline.jpg,wolfe_image-128-b_w_outline.jpg,31,f,AT0COJ1G23ZB0,2020-12-08_17h22.55.964,MetaAwareness,2020.1.2,MacIntel,60,34R3P23QHT44L4WQV14RS81EC1CWHK,3C2NJ6JBKBKD54IOAHFZX4D9H2Z2NJ,BJ2C7,BJ2C7,3C2NJ6JBKBKD54IOAHFZX4D9H2Z2NJ,3C2NJ6JBKBKD54IOAHFZX4D9H2Z2NJ,262737,262737,,,,
,,,,,,,,4,2.970025,0,19,19,17,1,AT0COJ1G23ZB0,56,wolfe_image-081-a_w_outline.jpg,wolfe_image-081-b_w_outline.jpg,31,f,AT0COJ1G23ZB0,2020-12-08_17h22.55.964,MetaAwareness,2020.1.2,MacIntel,60,34R3P23QHT44L4WQV14RS81EC1CWHK,3C2NJ6JBKBKD54IOAHFZX4D9H2Z2NJ,BJ2C7,BJ2C7,3C2NJ6JBKBKD54IOAHFZX4D9H2Z2NJ,3C2NJ6JBKBKD54IOAHFZX4D9H2Z2NJ,262737,262737,,,,
,,,,,,,,4,3.237215,0,20,20,0,1,AT0COJ1G23ZB0,2,wolfe_image-002-a_w_outline.jpg,wolfe_image-002-b_w_outline.jpg,31,f,AT0COJ1G23ZB0,2020-12-08_17h22.55.964,MetaAwareness,2020.1.2,MacIntel,60,34R3P23QHT44L4WQV14RS81EC1CWHK,3C2NJ6JBKBKD54IOAHFZX4D9H2Z2NJ,BJ2C7,BJ2C7,3C2NJ6JBKBKD54IOAHFZX4D9H2Z2NJ,3C2NJ6JBKBKD54IOAHFZX4D9H2Z2NJ,262737,262737,,,,
,,,,,,,,4,4.77081,0,21,21,26,1,AT0COJ1G23ZB0,99,wolfe_image-124-a_w_outline.jpg,wolfe_image-124-b_w_outline.jpg,31,f,AT0COJ1G23ZB0,2020-12-08_17h22.55.964,MetaAwareness,2020.1.2,MacIntel,60,34R3P23QHT44L4WQV14RS81EC1CWHK,3C2NJ6JBKBKD54IOAHFZX4D9H2Z2NJ,BJ2C7,BJ2C7,3C2NJ6JBKBKD54IOAHFZX4D9H2Z2NJ,3C2NJ6JBKBKD54IOAHFZX4D9H2Z2NJ,262737,262737,,,,
,,,,,,,,5,2.186815,0,22,22,3,1,AT0COJ1G23ZB0,19,wolfe_image-019-a_w_outline.jpg,wolfe_image-019-b_w_outline.jpg,31,f,AT0COJ1G23ZB0,2020-12-08_17h22.55.964,MetaAwareness,2020.1.2,MacIntel,60,34R3P23QHT44L4WQV14RS81EC1CWHK,3C2NJ6JBKBKD54IOAHFZX4D9H2Z2NJ,BJ2C7,BJ2C7,3C2NJ6JBKBKD54IOAHFZX4D9H2Z2NJ,3C2NJ6JBKBKD54IOAHFZX4D9H2Z2NJ,262737,262737,,,,
,,,,,,,,3,3.18694,0,23,23,4,1,AT0COJ1G23ZB0,24,wolfe_image-024-a_w_outline.jpg,wolfe_image-024-b_w_outline.jpg,31,f,AT0COJ1G23ZB0,2020-12-08_17h22.55.964,MetaAwareness,2020.1.2,MacIntel,60,34R3P23QHT44L4WQV14RS81EC1CWHK,3C2NJ6JBKBKD54IOAHFZX4D9H2Z2NJ,BJ2C7,BJ2C7,3C2NJ6JBKBKD54IOAHFZX4D9H2Z2NJ,3C2NJ6JBKBKD54IOAHFZX4D9H2Z2NJ,262737,262737,,,,
,,,,,,,,3,2.98813,0,24,24,25,1,AT0COJ1G23ZB0,96,wolfe_image-121-a_w_outline.jpg,wolfe_image-121-b_w_outline.jpg,31,f,AT0COJ1G23ZB0,2020-12-08_17h22.55.964,MetaAwareness,2020.1.2,MacIntel,60,34R3P23QHT44L4WQV14RS81EC1CWHK,3C2NJ6JBKBKD54IOAHFZX4D9H2Z2NJ,BJ2C7,BJ2C7,3C2NJ6JBKBKD54IOAHFZX4D9H2Z2NJ,3C2NJ6JBKBKD54IOAHFZX4D9H2Z2NJ,262737,262737,,,,
,,,,,,,,4,3.869825,0,25,25,18,1,AT0COJ1G23ZB0,57,wolfe_image-082-a_w_outline.jpg,wolfe_image-082-b_w_outline.jpg,31,f,AT0COJ1G23ZB0,2020-12-08_17h22.55.964,MetaAwareness,2020.1.2,MacIntel,60,34R3P23QHT44L4WQV14RS81EC1CWHK,3C2NJ6JBKBKD54IOAHFZX4D9H2Z2NJ,BJ2C7,BJ2C7,3C2NJ6JBKBKD54IOAHFZX4D9H2Z2NJ,3C2NJ6JBKBKD54IOAHFZX4D9H2Z2NJ,262737,262737,,,,
,,,,,,,,5,2.53645,0,26,26,29,1,AT0COJ1G23ZB0,112,wolfe_image-137-a_w_outline.jpg,wolfe_image-137-b_w_outline.jpg,31,f,AT0COJ1G23ZB0,2020-12-08_17h22.55.964,MetaAwareness,2020.1.2,MacIntel,60,34R3P23QHT44L4WQV14RS81EC1CWHK,3C2NJ6JBKBKD54IOAHFZX4D9H2Z2NJ,BJ2C7,BJ2C7,3C2NJ6JBKBKD54IOAHFZX4D9H2Z2NJ,3C2NJ6JBKBKD54IOAHFZX4D9H2Z2NJ,262737,262737,,,,
,,,,,,,,5,3.13577,0,27,27,16,1,AT0COJ1G23ZB0,52,wolfe_image-077-a_w_outline.jpg,wolfe_image-077-b_w_outline.jpg,31,f,AT0COJ1G23ZB0,2020-12-08_17h22.55.964,MetaAwareness,2020.1.2,MacIntel,60,34R3P23QHT44L4WQV14RS81EC1CWHK,3C2NJ6JBKBKD54IOAHFZX4D9H2Z2NJ,BJ2C7,BJ2C7,3C2NJ6JBKBKD54IOAHFZX4D9H2Z2NJ,3C2NJ6JBKBKD54IOAHFZX4D9H2Z2NJ,262737,262737,,,,
,,,,,,,,5,5.619615,0,28,28,7,1,AT0COJ1G23ZB0,29,wolfe_image-029-a_w_outline.jpg,wolfe_image-029-b_w_outline.jpg,31,f,AT0COJ1G23ZB0,2020-12-08_17h22.55.964,MetaAwareness,2020.1.2,MacIntel,60,34R3P23QHT44L4WQV14RS81EC1CWHK,3C2NJ6JBKBKD54IOAHFZX4D9H2Z2NJ,BJ2C7,BJ2C7,3C2NJ6JBKBKD54IOAHFZX4D9H2Z2NJ,3C2NJ6JBKBKD54IOAHFZX4D9H2Z2NJ,262737,262737,,,,
,,,,,,,,5,2.7041,0,29,29,2,1,AT0COJ1G23ZB0,12,wolfe_image-012-a_w_outline.jpg,wolfe_image-012-b_w_outline.jpg,31,f,AT0COJ1G23ZB0,2020-12-08_17h22.55.964,MetaAwareness,2020.1.2,MacIntel,60,34R3P23QHT44L4WQV14RS81EC1CWHK,3C2NJ6JBKBKD54IOAHFZX4D9H2Z2NJ,BJ2C7,BJ2C7,3C2NJ6JBKBKD54IOAHFZX4D9H2Z2NJ,3C2NJ6JBKBKD54IOAHFZX4D9H2Z2NJ,262737,262737,,,,
,,,,,,,,,,,,,,,AT0COJ1G23ZB0,,,,31,f,AT0COJ1G23ZB0,2020-12-08_17h22.55.964,MetaAwareness,2020.1.2,MacIntel,60,34R3P23QHT44L4WQV14RS81EC1CWHK,3C2NJ6JBKBKD54IOAHFZX4D9H2Z2NJ,BJ2C7,BJ2C7,3C2NJ6JBKBKD54IOAHFZX4D9H2Z2NJ,3C2NJ6JBKBKD54IOAHFZX4D9H2Z2NJ,262737,262737,5,0.66586,1,7.964785
