consent_response.keys,consent_response.rt,key_resp_2.keys,key_resp_2.rt,Airplane_resp.keys,Airplane_resp.rt,Boat_resp.keys,Boat_resp.rt,user_resp.keys,user_resp.rt,trials.thisRepN,trials.thisTrialN,trials.thisN,trials.thisIndex,trials.ran,workerId,trial_num,image_a,image_b,age,gender (m/f),worker_ID,date,expName,psychopyVersion,OS,frameRate,hitId,assignmentId,a,tp_a,b,tp_b,c,tp_c,Cow_resp.keys,Cow_resp.rt,Garden_resp.keys,Garden_resp.rt
space,14.4547,space,17.62218,5,4.93955,5,1.836975,4,4.76097,0,0,0,23,1,AZ2P6DGG5M6SH,89,wolfe_image-114-a_w_outline.jpg,wolfe_image-114-b_w_outline.jpg,34,m,AZ2P6DGG5M6SH,2020-12-08_17h02.41.075,MetaAwareness,2020.1.2,Win32,60,337F8MIIM0GH127ANNRNROJ66RD042,3WMOAN2SRC0M2VGQYRZAZ9AKE1ZNVL,SAMW7,SAMW7,3WMOAN2SRC0M2VGQYRZAZ9AKE1ZNVL,3WMOAN2SRC0M2VGQYRZAZ9AKE1ZNVL,262737,262737,,,,
,,,,,,,,1,7.315765,0,1,1,13,1,AZ2P6DGG5M6SH,54,wolfe_image-079-a_w_outline.jpg,wolfe_image-079-b_w_outline.jpg,34,m,AZ2P6DGG5M6SH,2020-12-08_17h02.41.075,MetaAwareness,2020.1.2,Win32,60,337F8MIIM0GH127ANNRNROJ66RD042,3WMOAN2SRC0M2VGQYRZAZ9AKE1ZNVL,SAMW7,SAMW7,3WMOAN2SRC0M2VGQYRZAZ9AKE1ZNVL,3WMOAN2SRC0M2VGQYRZAZ9AKE1ZNVL,262737,262737,,,,
,,,,,,,,1,4.561015,0,2,2,11,1,AZ2P6DGG5M6SH,46,wolfe_image-046-a_w_outline.jpg,wolfe_image-046-b_w_outline.jpg,34,m,AZ2P6DGG5M6SH,2020-12-08_17h02.41.075,MetaAwareness,2020.1.2,Win32,60,337F8MIIM0GH127ANNRNROJ66RD042,3WMOAN2SRC0M2VGQYRZAZ9AKE1ZNVL,SAMW7,SAMW7,3WMOAN2SRC0M2VGQYRZAZ9AKE1ZNVL,3WMOAN2SRC0M2VGQYRZAZ9AKE1ZNVL,262737,262737,,,,
,,,,,,,,2,3.64208,0,3,3,12,1,AZ2P6DGG5M6SH,51,wolfe_image-076-a_w_outline.jpg,wolfe_image-076-b_w_outline.jpg,34,m,AZ2P6DGG5M6SH,2020-12-08_17h02.41.075,MetaAwareness,2020.1.2,Win32,60,337F8MIIM0GH127ANNRNROJ66RD042,3WMOAN2SRC0M2VGQYRZAZ9AKE1ZNVL,SAMW7,SAMW7,3WMOAN2SRC0M2VGQYRZAZ9AKE1ZNVL,3WMOAN2SRC0M2VGQYRZAZ9AKE1ZNVL,262737,262737,,,,
,,,,,,,,2,4.911425,0,4,4,7,1,AZ2P6DGG5M6SH,32,wolfe_image-032-a_w_outline.jpg,wolfe_image-032-b_w_outline.jpg,34,m,AZ2P6DGG5M6SH,2020-12-08_17h02.41.075,MetaAwareness,2020.1.2,Win32,60,337F8MIIM0GH127ANNRNROJ66RD042,3WMOAN2SRC0M2VGQYRZAZ9AKE1ZNVL,SAMW7,SAMW7,3WMOAN2SRC0M2VGQYRZAZ9AKE1ZNVL,3WMOAN2SRC0M2VGQYRZAZ9AKE1ZNVL,262737,262737,,,,
,,,,,,,,3,3.959585,0,5,5,15,1,AZ2P6DGG5M6SH,64,wolfe_image-089-a_w_outline.jpg,wolfe_image-089-b_w_outline.jpg,34,m,AZ2P6DGG5M6SH,2020-12-08_17h02.41.075,MetaAwareness,2020.1.2,Win32,60,337F8MIIM0GH127ANNRNROJ66RD042,3WMOAN2SRC0M2VGQYRZAZ9AKE1ZNVL,SAMW7,SAMW7,3WMOAN2SRC0M2VGQYRZAZ9AKE1ZNVL,3WMOAN2SRC0M2VGQYRZAZ9AKE1ZNVL,262737,262737,,,,
,,,,,,,,3,4.477105,0,6,6,2,1,AZ2P6DGG5M6SH,15,wolfe_image-015-a_w_outline.jpg,wolfe_image-015-b_w_outline.jpg,34,m,AZ2P6DGG5M6SH,2020-12-08_17h02.41.075,MetaAwareness,2020.1.2,Win32,60,337F8MIIM0GH127ANNRNROJ66RD042,3WMOAN2SRC0M2VGQYRZAZ9AKE1ZNVL,SAMW7,SAMW7,3WMOAN2SRC0M2VGQYRZAZ9AKE1ZNVL,3WMOAN2SRC0M2VGQYRZAZ9AKE1ZNVL,262737,262737,,,,
,,,,,,,,1,3.742525,0,7,7,24,1,AZ2P6DGG5M6SH,94,wolfe_image-119-a_w_outline.jpg,wolfe_image-119-b_w_outline.jpg,34,m,AZ2P6DGG5M6SH,2020-12-08_17h02.41.075,MetaAwareness,2020.1.2,Win32,60,337F8MIIM0GH127ANNRNROJ66RD042,3WMOAN2SRC0M2VGQYRZAZ9AKE1ZNVL,SAMW7,SAMW7,3WMOAN2SRC0M2VGQYRZAZ9AKE1ZNVL,3WMOAN2SRC0M2VGQYRZAZ9AKE1ZNVL,262737,262737,,,,
,,,,,,,,2,3.77586,0,8,8,28,1,AZ2P6DGG5M6SH,103,wolfe_image-128-a_w_outline.jpg,wolfe_image-128-b_w_outline.jpg,34,m,AZ2P6DGG5M6SH,2020-12-08_17h02.41.075,MetaAwareness,2020.1.2,Win32,60,337F8MIIM0GH127ANNRNROJ66RD042,3WMOAN2SRC0M2VGQYRZAZ9AKE1ZNVL,SAMW7,SAMW7,3WMOAN2SRC0M2VGQYRZAZ9AKE1ZNVL,3WMOAN2SRC0M2VGQYRZAZ9AKE1ZNVL,262737,262737,,,,
,,,,,,,,2,3.17472,0,9,9,17,1,AZ2P6DGG5M6SH,66,wolfe_image-091-a_w_outline.jpg,wolfe_image-091-b_w_outline.jpg,34,m,AZ2P6DGG5M6SH,2020-12-08_17h02.41.075,MetaAwareness,2020.1.2,Win32,60,337F8MIIM0GH127ANNRNROJ66RD042,3WMOAN2SRC0M2VGQYRZAZ9AKE1ZNVL,SAMW7,SAMW7,3WMOAN2SRC0M2VGQYRZAZ9AKE1ZNVL,3WMOAN2SRC0M2VGQYRZAZ9AKE1ZNVL,262737,262737,,,,
,,,,,,,,4,3.525225,0,10,10,4,1,AZ2P6DGG5M6SH,19,wolfe_image-019-a_w_outline.jpg,wolfe_image-019-b_w_outline.jpg,34,m,AZ2P6DGG5M6SH,2020-12-08_17h02.41.075,MetaAwareness,2020.1.2,Win32,60,337F8MIIM0GH127ANNRNROJ66RD042,3WMOAN2SRC0M2VGQYRZAZ9AKE1ZNVL,SAMW7,SAMW7,3WMOAN2SRC0M2VGQYRZAZ9AKE1ZNVL,3WMOAN2SRC0M2VGQYRZAZ9AKE1ZNVL,262737,262737,,,,
,,,,,,,,4,3.97619,0,11,11,18,1,AZ2P6DGG5M6SH,70,wolfe_image-095-a_w_outline.jpg,wolfe_image-095-b_w_outline.jpg,34,m,AZ2P6DGG5M6SH,2020-12-08_17h02.41.075,MetaAwareness,2020.1.2,Win32,60,337F8MIIM0GH127ANNRNROJ66RD042,3WMOAN2SRC0M2VGQYRZAZ9AKE1ZNVL,SAMW7,SAMW7,3WMOAN2SRC0M2VGQYRZAZ9AKE1ZNVL,3WMOAN2SRC0M2VGQYRZAZ9AKE1ZNVL,262737,262737,,,,
,,,,,,,,2,4.71128,0,12,12,9,1,AZ2P6DGG5M6SH,42,wolfe_image-042-a_w_outline.jpg,wolfe_image-042-b_w_outline.jpg,34,m,AZ2P6DGG5M6SH,2020-12-08_17h02.41.075,MetaAwareness,2020.1.2,Win32,60,337F8MIIM0GH127ANNRNROJ66RD042,3WMOAN2SRC0M2VGQYRZAZ9AKE1ZNVL,SAMW7,SAMW7,3WMOAN2SRC0M2VGQYRZAZ9AKE1ZNVL,3WMOAN2SRC0M2VGQYRZAZ9AKE1ZNVL,262737,262737,,,,
,,,,,,,,3,3.792345,0,13,13,20,1,AZ2P6DGG5M6SH,76,wolfe_image-101-a_w_outline.jpg,wolfe_image-101-b_w_outline.jpg,34,m,AZ2P6DGG5M6SH,2020-12-08_17h02.41.075,MetaAwareness,2020.1.2,Win32,60,337F8MIIM0GH127ANNRNROJ66RD042,3WMOAN2SRC0M2VGQYRZAZ9AKE1ZNVL,SAMW7,SAMW7,3WMOAN2SRC0M2VGQYRZAZ9AKE1ZNVL,3WMOAN2SRC0M2VGQYRZAZ9AKE1ZNVL,262737,262737,,,,
,,,,,,,,4,4.393815,0,14,14,14,1,AZ2P6DGG5M6SH,55,wolfe_image-080-a_w_outline.jpg,wolfe_image-080-b_w_outline.jpg,34,m,AZ2P6DGG5M6SH,2020-12-08_17h02.41.075,MetaAwareness,2020.1.2,Win32,60,337F8MIIM0GH127ANNRNROJ66RD042,3WMOAN2SRC0M2VGQYRZAZ9AKE1ZNVL,SAMW7,SAMW7,3WMOAN2SRC0M2VGQYRZAZ9AKE1ZNVL,3WMOAN2SRC0M2VGQYRZAZ9AKE1ZNVL,262737,262737,,,,
,,,,,,,,2,3.258055,0,15,15,27,1,AZ2P6DGG5M6SH,99,wolfe_image-124-a_w_outline.jpg,wolfe_image-124-b_w_outline.jpg,34,m,AZ2P6DGG5M6SH,2020-12-08_17h02.41.075,MetaAwareness,2020.1.2,Win32,60,337F8MIIM0GH127ANNRNROJ66RD042,3WMOAN2SRC0M2VGQYRZAZ9AKE1ZNVL,SAMW7,SAMW7,3WMOAN2SRC0M2VGQYRZAZ9AKE1ZNVL,3WMOAN2SRC0M2VGQYRZAZ9AKE1ZNVL,262737,262737,,,,
,,,,,,,,2,3.17474,0,16,16,6,1,AZ2P6DGG5M6SH,28,wolfe_image-028-a_w_outline.jpg,wolfe_image-028-b_w_outline.jpg,34,m,AZ2P6DGG5M6SH,2020-12-08_17h02.41.075,MetaAwareness,2020.1.2,Win32,60,337F8MIIM0GH127ANNRNROJ66RD042,3WMOAN2SRC0M2VGQYRZAZ9AKE1ZNVL,SAMW7,SAMW7,3WMOAN2SRC0M2VGQYRZAZ9AKE1ZNVL,3WMOAN2SRC0M2VGQYRZAZ9AKE1ZNVL,262737,262737,,,,
,,,,,,,,4,4.744295,0,17,17,19,1,AZ2P6DGG5M6SH,75,wolfe_image-100-a_w_outline.jpg,wolfe_image-100-b_w_outline.jpg,34,m,AZ2P6DGG5M6SH,2020-12-08_17h02.41.075,MetaAwareness,2020.1.2,Win32,60,337F8MIIM0GH127ANNRNROJ66RD042,3WMOAN2SRC0M2VGQYRZAZ9AKE1ZNVL,SAMW7,SAMW7,3WMOAN2SRC0M2VGQYRZAZ9AKE1ZNVL,3WMOAN2SRC0M2VGQYRZAZ9AKE1ZNVL,262737,262737,,,,
,,,,,,,,3,4.46051,0,18,18,29,1,AZ2P6DGG5M6SH,111,wolfe_image-136-a_w_outline.jpg,wolfe_image-136-b_w_outline.jpg,34,m,AZ2P6DGG5M6SH,2020-12-08_17h02.41.075,MetaAwareness,2020.1.2,Win32,60,337F8MIIM0GH127ANNRNROJ66RD042,3WMOAN2SRC0M2VGQYRZAZ9AKE1ZNVL,SAMW7,SAMW7,3WMOAN2SRC0M2VGQYRZAZ9AKE1ZNVL,3WMOAN2SRC0M2VGQYRZAZ9AKE1ZNVL,262737,262737,,,,
,,,,,,,,4,4.176765,0,19,19,21,1,AZ2P6DGG5M6SH,84,wolfe_image-109-a_w_outline.jpg,wolfe_image-109-b_w_outline.jpg,34,m,AZ2P6DGG5M6SH,2020-12-08_17h02.41.075,MetaAwareness,2020.1.2,Win32,60,337F8MIIM0GH127ANNRNROJ66RD042,3WMOAN2SRC0M2VGQYRZAZ9AKE1ZNVL,SAMW7,SAMW7,3WMOAN2SRC0M2VGQYRZAZ9AKE1ZNVL,3WMOAN2SRC0M2VGQYRZAZ9AKE1ZNVL,262737,262737,,,,
,,,,,,,,3,4.49413,0,20,20,8,1,AZ2P6DGG5M6SH,40,wolfe_image-040-a_w_outline.jpg,wolfe_image-040-b_w_outline.jpg,34,m,AZ2P6DGG5M6SH,2020-12-08_17h02.41.075,MetaAwareness,2020.1.2,Win32,60,337F8MIIM0GH127ANNRNROJ66RD042,3WMOAN2SRC0M2VGQYRZAZ9AKE1ZNVL,SAMW7,SAMW7,3WMOAN2SRC0M2VGQYRZAZ9AKE1ZNVL,3WMOAN2SRC0M2VGQYRZAZ9AKE1ZNVL,262737,262737,,,,
,,,,,,,,3,5.245245,0,21,21,25,1,AZ2P6DGG5M6SH,96,wolfe_image-121-a_w_outline.jpg,wolfe_image-121-b_w_outline.jpg,34,m,AZ2P6DGG5M6SH,2020-12-08_17h02.41.075,MetaAwareness,2020.1.2,Win32,60,337F8MIIM0GH127ANNRNROJ66RD042,3WMOAN2SRC0M2VGQYRZAZ9AKE1ZNVL,SAMW7,SAMW7,3WMOAN2SRC0M2VGQYRZAZ9AKE1ZNVL,3WMOAN2SRC0M2VGQYRZAZ9AKE1ZNVL,262737,262737,,,,
,,,,,,,,2,4.44375,0,22,22,5,1,AZ2P6DGG5M6SH,24,wolfe_image-024-a_w_outline.jpg,wolfe_image-024-b_w_outline.jpg,34,m,AZ2P6DGG5M6SH,2020-12-08_17h02.41.075,MetaAwareness,2020.1.2,Win32,60,337F8MIIM0GH127ANNRNROJ66RD042,3WMOAN2SRC0M2VGQYRZAZ9AKE1ZNVL,SAMW7,SAMW7,3WMOAN2SRC0M2VGQYRZAZ9AKE1ZNVL,3WMOAN2SRC0M2VGQYRZAZ9AKE1ZNVL,262737,262737,,,,
,,,,,,,,2,4.343655,0,23,23,1,1,AZ2P6DGG5M6SH,10,wolfe_image-010-a_w_outline.jpg,wolfe_image-010-b_w_outline.jpg,34,m,AZ2P6DGG5M6SH,2020-12-08_17h02.41.075,MetaAwareness,2020.1.2,Win32,60,337F8MIIM0GH127ANNRNROJ66RD042,3WMOAN2SRC0M2VGQYRZAZ9AKE1ZNVL,SAMW7,SAMW7,3WMOAN2SRC0M2VGQYRZAZ9AKE1ZNVL,3WMOAN2SRC0M2VGQYRZAZ9AKE1ZNVL,262737,262737,,,,
,,,,,,,,1,3.04123,0,24,24,3,1,AZ2P6DGG5M6SH,17,wolfe_image-017-a_w_outline.jpg,wolfe_image-017-b_w_outline.jpg,34,m,AZ2P6DGG5M6SH,2020-12-08_17h02.41.075,MetaAwareness,2020.1.2,Win32,60,337F8MIIM0GH127ANNRNROJ66RD042,3WMOAN2SRC0M2VGQYRZAZ9AKE1ZNVL,SAMW7,SAMW7,3WMOAN2SRC0M2VGQYRZAZ9AKE1ZNVL,3WMOAN2SRC0M2VGQYRZAZ9AKE1ZNVL,262737,262737,,,,
,,,,,,,,4,4.961125,0,25,25,10,1,AZ2P6DGG5M6SH,44,wolfe_image-044-a_w_outline.jpg,wolfe_image-044-b_w_outline.jpg,34,m,AZ2P6DGG5M6SH,2020-12-08_17h02.41.075,MetaAwareness,2020.1.2,Win32,60,337F8MIIM0GH127ANNRNROJ66RD042,3WMOAN2SRC0M2VGQYRZAZ9AKE1ZNVL,SAMW7,SAMW7,3WMOAN2SRC0M2VGQYRZAZ9AKE1ZNVL,3WMOAN2SRC0M2VGQYRZAZ9AKE1ZNVL,262737,262737,,,,
,,,,,,,,2,5.61262,0,26,26,22,1,AZ2P6DGG5M6SH,87,wolfe_image-112-a_w_outline.jpg,wolfe_image-112-b_w_outline.jpg,34,m,AZ2P6DGG5M6SH,2020-12-08_17h02.41.075,MetaAwareness,2020.1.2,Win32,60,337F8MIIM0GH127ANNRNROJ66RD042,3WMOAN2SRC0M2VGQYRZAZ9AKE1ZNVL,SAMW7,SAMW7,3WMOAN2SRC0M2VGQYRZAZ9AKE1ZNVL,3WMOAN2SRC0M2VGQYRZAZ9AKE1ZNVL,262737,262737,,,,
,,,,,,,,2,3.642275,0,27,27,16,1,AZ2P6DGG5M6SH,65,wolfe_image-090-a_w_outline.jpg,wolfe_image-090-b_w_outline.jpg,34,m,AZ2P6DGG5M6SH,2020-12-08_17h02.41.075,MetaAwareness,2020.1.2,Win32,60,337F8MIIM0GH127ANNRNROJ66RD042,3WMOAN2SRC0M2VGQYRZAZ9AKE1ZNVL,SAMW7,SAMW7,3WMOAN2SRC0M2VGQYRZAZ9AKE1ZNVL,3WMOAN2SRC0M2VGQYRZAZ9AKE1ZNVL,262737,262737,,,,
,,,,,,,,4,3.242145,0,28,28,0,1,AZ2P6DGG5M6SH,4,wolfe_image-004-a_w_outline.jpg,wolfe_image-004-b_w_outline.jpg,34,m,AZ2P6DGG5M6SH,2020-12-08_17h02.41.075,MetaAwareness,2020.1.2,Win32,60,337F8MIIM0GH127ANNRNROJ66RD042,3WMOAN2SRC0M2VGQYRZAZ9AKE1ZNVL,SAMW7,SAMW7,3WMOAN2SRC0M2VGQYRZAZ9AKE1ZNVL,3WMOAN2SRC0M2VGQYRZAZ9AKE1ZNVL,262737,262737,,,,
,,,,,,,,1,7.52814,0,29,29,26,1,AZ2P6DGG5M6SH,98,wolfe_image-123-a_w_outline.jpg,wolfe_image-123-b_w_outline.jpg,34,m,AZ2P6DGG5M6SH,2020-12-08_17h02.41.075,MetaAwareness,2020.1.2,Win32,60,337F8MIIM0GH127ANNRNROJ66RD042,3WMOAN2SRC0M2VGQYRZAZ9AKE1ZNVL,SAMW7,SAMW7,3WMOAN2SRC0M2VGQYRZAZ9AKE1ZNVL,3WMOAN2SRC0M2VGQYRZAZ9AKE1ZNVL,262737,262737,,,,
,,,,,,,,,,,,,,,AZ2P6DGG5M6SH,,,,34,m,AZ2P6DGG5M6SH,2020-12-08_17h02.41.075,MetaAwareness,2020.1.2,Win32,60,337F8MIIM0GH127ANNRNROJ66RD042,3WMOAN2SRC0M2VGQYRZAZ9AKE1ZNVL,SAMW7,SAMW7,3WMOAN2SRC0M2VGQYRZAZ9AKE1ZNVL,3WMOAN2SRC0M2VGQYRZAZ9AKE1ZNVL,262737,262737,5,1.98413,1,3.817535
