consent_response.keys,consent_response.rt,key_resp_2.keys,key_resp_2.rt,user_resp.keys,user_resp.rt,trials.thisRepN,trials.thisTrialN,trials.thisN,trials.thisIndex,trials.ran,image_1_text,image_2_text,database,image,number,age,worker_ID,date,expName,psychopyVersion,OS,frameRate,hitId,workerId,assignmentId,a,tp_a,b,tp_b,c,tp_c,catch_same_resp.keys,catch_same_resp.rt,image_1_text_catch_same,image_2_text_catch_same,image_catch_same,catch_different_resp.keys,catch_different_resp.rt,image_1_text_catch_different,image_2_text_catch_different,image_catch_different
space,10.41203,space,11.40593,4,8.473645,0,0,0,484,1,a very modern living room with a desk with nothing on it,a very modern living room with a desk with a notebook on it,wolfe2,063_R_laptop,4,35,A11P1OS26E6AMO,2021-01-25_09h44.24.132,MetaAwareness,2020.1.2,Win32,60,34R3P23QHT44L4WQV14RS81EEH3HWU,A11P1OS26E6AMO,31Z0PCVWULIIMIKEDPI62U09MYW7TV,WPZ10,WPZ10,31Z0PCVWULIIMIKEDPI62U09MYW7TV,31Z0PCVWULIIMIKEDPI62U09MYW7TV,271100,271100,,,,,,,,,,
,,,,3,21.24963,0,1,1,258,1,there is a brass candleholder on the black shelf.  the living room has a cream colored leather couch.,there is a glass vase next to the brass candleholder on the black shelf that houses books and knick knacks,wolfe2,033_R_vase,3,35,A11P1OS26E6AMO,2021-01-25_09h44.24.132,MetaAwareness,2020.1.2,Win32,60,34R3P23QHT44L4WQV14RS81EEH3HWU,A11P1OS26E6AMO,31Z0PCVWULIIMIKEDPI62U09MYW7TV,WPZ10,WPZ10,31Z0PCVWULIIMIKEDPI62U09MYW7TV,31Z0PCVWULIIMIKEDPI62U09MYW7TV,271100,271100,,,,,,,,,,
,,,,5,7.75939,0,2,2,572,1,this is a sitting room. the coffee table has plants on it.,this is a sitting room. the coffee table hs plants and a magazine on it.,wolfe2,074_R_book,8,35,A11P1OS26E6AMO,2021-01-25_09h44.24.132,MetaAwareness,2020.1.2,Win32,60,34R3P23QHT44L4WQV14RS81EEH3HWU,A11P1OS26E6AMO,31Z0PCVWULIIMIKEDPI62U09MYW7TV,WPZ10,WPZ10,31Z0PCVWULIIMIKEDPI62U09MYW7TV,31Z0PCVWULIIMIKEDPI62U09MYW7TV,271100,271100,,,,,,,,,,
,,,,3,15.933425,0,3,3,621,1,a play area without a toy next to shelves,a play area with a toy next to the shelves,wolfe2,081_L_football,2,35,A11P1OS26E6AMO,2021-01-25_09h44.24.132,MetaAwareness,2020.1.2,Win32,60,34R3P23QHT44L4WQV14RS81EEH3HWU,A11P1OS26E6AMO,31Z0PCVWULIIMIKEDPI62U09MYW7TV,WPZ10,WPZ10,31Z0PCVWULIIMIKEDPI62U09MYW7TV,31Z0PCVWULIIMIKEDPI62U09MYW7TV,271100,271100,,,,,,,,,,
,,,,4,10.704495,0,4,4,959,1,a black and white modern living room with a brown basket on the ground,a black and white modern living room with no baskets on the ground,wolfe2,125_L_sofa,1,35,A11P1OS26E6AMO,2021-01-25_09h44.24.132,MetaAwareness,2020.1.2,Win32,60,34R3P23QHT44L4WQV14RS81EEH3HWU,A11P1OS26E6AMO,31Z0PCVWULIIMIKEDPI62U09MYW7TV,WPZ10,WPZ10,31Z0PCVWULIIMIKEDPI62U09MYW7TV,31Z0PCVWULIIMIKEDPI62U09MYW7TV,271100,271100,,,,,,,,,,
,,,,4,8.491945,0,5,5,470,1,"a cozy, warm looking sitting space with a fireplace","a cozy, warm looking sitting space with flowers in front of the fireplace",wolfe2,062_L_flowers,2,35,A11P1OS26E6AMO,2021-01-25_09h44.24.132,MetaAwareness,2020.1.2,Win32,60,34R3P23QHT44L4WQV14RS81EEH3HWU,A11P1OS26E6AMO,31Z0PCVWULIIMIKEDPI62U09MYW7TV,WPZ10,WPZ10,31Z0PCVWULIIMIKEDPI62U09MYW7TV,31Z0PCVWULIIMIKEDPI62U09MYW7TV,271100,271100,,,,,,,,,,
,,,,5,13.098005,0,6,6,404,1,a fresh and modern architectural living room with a bookshelf covering the wall and an empty fireplace,a fresh and modern architectural living room with a bookshelf covering the wall  and fireplace with logs in them,wolfe2,054_L_firewood,4,35,A11P1OS26E6AMO,2021-01-25_09h44.24.132,MetaAwareness,2020.1.2,Win32,60,34R3P23QHT44L4WQV14RS81EEH3HWU,A11P1OS26E6AMO,31Z0PCVWULIIMIKEDPI62U09MYW7TV,WPZ10,WPZ10,31Z0PCVWULIIMIKEDPI62U09MYW7TV,31Z0PCVWULIIMIKEDPI62U09MYW7TV,271100,271100,,,,,,,,,,
,,,,5,4.4055,0,7,7,684,1,a beauty salon with two posters on the left wall,a beauty salon with one poster on the left wall,wolfe2,089_L_poster,6,35,A11P1OS26E6AMO,2021-01-25_09h44.24.132,MetaAwareness,2020.1.2,Win32,60,34R3P23QHT44L4WQV14RS81EEH3HWU,A11P1OS26E6AMO,31Z0PCVWULIIMIKEDPI62U09MYW7TV,WPZ10,WPZ10,31Z0PCVWULIIMIKEDPI62U09MYW7TV,31Z0PCVWULIIMIKEDPI62U09MYW7TV,271100,271100,,,,,,,,,,
,,,,4,6.82129,0,8,8,311,1,a wall with two wall frames,a wall with three wall frames,wolfe2,040_R_painting,3,35,A11P1OS26E6AMO,2021-01-25_09h44.24.132,MetaAwareness,2020.1.2,Win32,60,34R3P23QHT44L4WQV14RS81EEH3HWU,A11P1OS26E6AMO,31Z0PCVWULIIMIKEDPI62U09MYW7TV,WPZ10,WPZ10,31Z0PCVWULIIMIKEDPI62U09MYW7TV,31Z0PCVWULIIMIKEDPI62U09MYW7TV,271100,271100,,,,,,,,,,
,,,,2,15.182775,0,9,9,914,1,a nice tiled sitting room with a piano and a lovely seating area with what appears to be leather furniture.,"this lovely tiled sitting room has a piano underneath a painting, and nice leather seats in the middle of the room. at  the back, by the sliding glass doors, is another piece of art, for collectibles.",wolfe2,119_L_painting,4,35,A11P1OS26E6AMO,2021-01-25_09h44.24.132,MetaAwareness,2020.1.2,Win32,60,34R3P23QHT44L4WQV14RS81EEH3HWU,A11P1OS26E6AMO,31Z0PCVWULIIMIKEDPI62U09MYW7TV,WPZ10,WPZ10,31Z0PCVWULIIMIKEDPI62U09MYW7TV,31Z0PCVWULIIMIKEDPI62U09MYW7TV,271100,271100,,,,,,,,,,
,,,,4,8.191995,0,10,10,613,1,it contains one plant,it contains two plants,wolfe2,080_L_plant,1,35,A11P1OS26E6AMO,2021-01-25_09h44.24.132,MetaAwareness,2020.1.2,Win32,60,34R3P23QHT44L4WQV14RS81EEH3HWU,A11P1OS26E6AMO,31Z0PCVWULIIMIKEDPI62U09MYW7TV,WPZ10,WPZ10,31Z0PCVWULIIMIKEDPI62U09MYW7TV,31Z0PCVWULIIMIKEDPI62U09MYW7TV,271100,271100,,,,,,,,,,
,,,,3,22.223625,0,11,11,832,1,i see a well organized closet.  i would get lost in a closet this organized.  the photo on the dresser does give this a little poof and makes it not appear so startched.,"missing the photo on the dresser, it makes it evident that someone lives here with something a part of them.  without it, just plain and bland.",wolfe2,108_R_boa,1,35,A11P1OS26E6AMO,2021-01-25_09h44.24.132,MetaAwareness,2020.1.2,Win32,60,34R3P23QHT44L4WQV14RS81EEH3HWU,A11P1OS26E6AMO,31Z0PCVWULIIMIKEDPI62U09MYW7TV,WPZ10,WPZ10,31Z0PCVWULIIMIKEDPI62U09MYW7TV,31Z0PCVWULIIMIKEDPI62U09MYW7TV,271100,271100,,,,,,,,,,
,,,,2,12.04767,0,12,12,912,1,there is a frame,there is an empty wall,wolfe2,119_L_painting,2,35,A11P1OS26E6AMO,2021-01-25_09h44.24.132,MetaAwareness,2020.1.2,Win32,60,34R3P23QHT44L4WQV14RS81EEH3HWU,A11P1OS26E6AMO,31Z0PCVWULIIMIKEDPI62U09MYW7TV,WPZ10,WPZ10,31Z0PCVWULIIMIKEDPI62U09MYW7TV,31Z0PCVWULIIMIKEDPI62U09MYW7TV,271100,271100,,,,,,,,,,
,,,,4,29.831045,0,13,13,802,1,a bedroom with a mirrored closet and on the bed are some clothes and a red striped purse,a bedroom with a mirrored closet and on the bed are some clothes,wolfe2,105_L_hat,3,35,A11P1OS26E6AMO,2021-01-25_09h44.24.132,MetaAwareness,2020.1.2,Win32,60,34R3P23QHT44L4WQV14RS81EEH3HWU,A11P1OS26E6AMO,31Z0PCVWULIIMIKEDPI62U09MYW7TV,WPZ10,WPZ10,31Z0PCVWULIIMIKEDPI62U09MYW7TV,31Z0PCVWULIIMIKEDPI62U09MYW7TV,271100,271100,,,,,,,,,,
,,,,5,9.11061,0,14,14,664,1,a room with a table set the joins a sitting area with a white item in the distance,a room with a table set that joins a sitting area with a dark colored item in the distance,wolfe2,086_L_book,2,35,A11P1OS26E6AMO,2021-01-25_09h44.24.132,MetaAwareness,2020.1.2,Win32,60,34R3P23QHT44L4WQV14RS81EEH3HWU,A11P1OS26E6AMO,31Z0PCVWULIIMIKEDPI62U09MYW7TV,WPZ10,WPZ10,31Z0PCVWULIIMIKEDPI62U09MYW7TV,31Z0PCVWULIIMIKEDPI62U09MYW7TV,271100,271100,,,,,,,,,,
,,,,1,8.597945,0,15,15,909,1,clean and tidyday room,potted plants wooden furniture room,wolfe2,118_R_shoes,5,35,A11P1OS26E6AMO,2021-01-25_09h44.24.132,MetaAwareness,2020.1.2,Win32,60,34R3P23QHT44L4WQV14RS81EEH3HWU,A11P1OS26E6AMO,31Z0PCVWULIIMIKEDPI62U09MYW7TV,WPZ10,WPZ10,31Z0PCVWULIIMIKEDPI62U09MYW7TV,31Z0PCVWULIIMIKEDPI62U09MYW7TV,271100,271100,,,,,,,,,,
,,,,5,11.94524,0,16,16,851,1,an outdoor screened in living area with houseplants and an urn sitting beside one of the houseplants,an outdoor screened in living area with houseplants,wolfe2,111_L_pot,2,35,A11P1OS26E6AMO,2021-01-25_09h44.24.132,MetaAwareness,2020.1.2,Win32,60,34R3P23QHT44L4WQV14RS81EEH3HWU,A11P1OS26E6AMO,31Z0PCVWULIIMIKEDPI62U09MYW7TV,WPZ10,WPZ10,31Z0PCVWULIIMIKEDPI62U09MYW7TV,31Z0PCVWULIIMIKEDPI62U09MYW7TV,271100,271100,,,,,,,,,,
,,,,5,13.98228,0,17,17,508,1,"a living space with a black wall, a white wall, a black chair and a white chair, and 6 wall-mounted lights","a living space with a black wall and a white wall, black furnature and white furnature, 6 wall-mounted lights, and a white decorative object",wolfe2,066_R_vase,1,35,A11P1OS26E6AMO,2021-01-25_09h44.24.132,MetaAwareness,2020.1.2,Win32,60,34R3P23QHT44L4WQV14RS81EEH3HWU,A11P1OS26E6AMO,31Z0PCVWULIIMIKEDPI62U09MYW7TV,WPZ10,WPZ10,31Z0PCVWULIIMIKEDPI62U09MYW7TV,31Z0PCVWULIIMIKEDPI62U09MYW7TV,271100,271100,,,,,,,,,,
,,,,4,10.79541,0,18,18,247,1,retro bathroom,retro bathroom with circular shelves. the shelves have tolietries,wolfe2,032_L_bottle,4,35,A11P1OS26E6AMO,2021-01-25_09h44.24.132,MetaAwareness,2020.1.2,Win32,60,34R3P23QHT44L4WQV14RS81EEH3HWU,A11P1OS26E6AMO,31Z0PCVWULIIMIKEDPI62U09MYW7TV,WPZ10,WPZ10,31Z0PCVWULIIMIKEDPI62U09MYW7TV,31Z0PCVWULIIMIKEDPI62U09MYW7TV,271100,271100,,,,,,,,,,
,,,,2,9.727845,0,19,19,677,1,wal l light has been installe on the top  of the picture,the wall light has been missing top of the picturenum,wolfe2,088_R_clock,2,35,A11P1OS26E6AMO,2021-01-25_09h44.24.132,MetaAwareness,2020.1.2,Win32,60,34R3P23QHT44L4WQV14RS81EEH3HWU,A11P1OS26E6AMO,31Z0PCVWULIIMIKEDPI62U09MYW7TV,WPZ10,WPZ10,31Z0PCVWULIIMIKEDPI62U09MYW7TV,31Z0PCVWULIIMIKEDPI62U09MYW7TV,271100,271100,,,,,,,,,,
,,,,3,6.824895,0,20,20,234,1,a kitchen with a only three drawers for items,a kitchen with four different drawers,wolfe2,030_R_drawer,5,35,A11P1OS26E6AMO,2021-01-25_09h44.24.132,MetaAwareness,2020.1.2,Win32,60,34R3P23QHT44L4WQV14RS81EEH3HWU,A11P1OS26E6AMO,31Z0PCVWULIIMIKEDPI62U09MYW7TV,WPZ10,WPZ10,31Z0PCVWULIIMIKEDPI62U09MYW7TV,31Z0PCVWULIIMIKEDPI62U09MYW7TV,271100,271100,,,,,,,,,,
,,,,5,8.793255,0,21,21,714,1,a hotel room with two beds and a plug next to each bed.,a hotel room with two beds and a plug next to one of the beds,wolfe2,093_L_switch,2,35,A11P1OS26E6AMO,2021-01-25_09h44.24.132,MetaAwareness,2020.1.2,Win32,60,34R3P23QHT44L4WQV14RS81EEH3HWU,A11P1OS26E6AMO,31Z0PCVWULIIMIKEDPI62U09MYW7TV,WPZ10,WPZ10,31Z0PCVWULIIMIKEDPI62U09MYW7TV,31Z0PCVWULIIMIKEDPI62U09MYW7TV,271100,271100,,,,,,,,,,
,,,,4,11.026365,0,22,22,284,1,a modern and red kitchen without any bowls on the display shelf,a modern and red kitchen that has bowls on a display shelf for easy use,wolfe2,036_R_bowl,5,35,A11P1OS26E6AMO,2021-01-25_09h44.24.132,MetaAwareness,2020.1.2,Win32,60,34R3P23QHT44L4WQV14RS81EEH3HWU,A11P1OS26E6AMO,31Z0PCVWULIIMIKEDPI62U09MYW7TV,WPZ10,WPZ10,31Z0PCVWULIIMIKEDPI62U09MYW7TV,31Z0PCVWULIIMIKEDPI62U09MYW7TV,271100,271100,,,,,,,,,,
,,,,4,15.08326,0,23,23,552,1,"a bedroom that is furnished in white with black oak furniture, including an armoire that is missing a drawer handle in its lower left corner","a bedroom that is furnished in white with black oak furniture, including an armoire with ornate metal handles on its drawers",wolfe2,072_L_handle,5,35,A11P1OS26E6AMO,2021-01-25_09h44.24.132,MetaAwareness,2020.1.2,Win32,60,34R3P23QHT44L4WQV14RS81EEH3HWU,A11P1OS26E6AMO,31Z0PCVWULIIMIKEDPI62U09MYW7TV,WPZ10,WPZ10,31Z0PCVWULIIMIKEDPI62U09MYW7TV,31Z0PCVWULIIMIKEDPI62U09MYW7TV,271100,271100,,,,,,,,,,
,,,,4,8.42574,0,24,24,418,1,a living room with dark brown drapes and rug and a white l-shaped couch,a living room with dark brown drapes and rug and a white l-shaped couch with a folded blanket on one corner,wolfe2,056_L_comforter,1,35,A11P1OS26E6AMO,2021-01-25_09h44.24.132,MetaAwareness,2020.1.2,Win32,60,34R3P23QHT44L4WQV14RS81EEH3HWU,A11P1OS26E6AMO,31Z0PCVWULIIMIKEDPI62U09MYW7TV,WPZ10,WPZ10,31Z0PCVWULIIMIKEDPI62U09MYW7TV,31Z0PCVWULIIMIKEDPI62U09MYW7TV,271100,271100,,,,,,,,,,
,,,,3,5.13928,0,25,25,365,1,a grand bedroom with stripped wallpaper,a grand bedroom with a vase to the right of the sofa,wolfe2,048_R_art,4,35,A11P1OS26E6AMO,2021-01-25_09h44.24.132,MetaAwareness,2020.1.2,Win32,60,34R3P23QHT44L4WQV14RS81EEH3HWU,A11P1OS26E6AMO,31Z0PCVWULIIMIKEDPI62U09MYW7TV,WPZ10,WPZ10,31Z0PCVWULIIMIKEDPI62U09MYW7TV,31Z0PCVWULIIMIKEDPI62U09MYW7TV,271100,271100,,,,,,,,,,
,,,,4,10.62946,0,26,26,82,1,a double vanity sink with a soap on top of the counter and towels hanging next to it.,"a double vanity sink with two different hand soaps on it, and towels hanging next to it",wolfe2,011_L_parfum,4,35,A11P1OS26E6AMO,2021-01-25_09h44.24.132,MetaAwareness,2020.1.2,Win32,60,34R3P23QHT44L4WQV14RS81EEH3HWU,A11P1OS26E6AMO,31Z0PCVWULIIMIKEDPI62U09MYW7TV,WPZ10,WPZ10,31Z0PCVWULIIMIKEDPI62U09MYW7TV,31Z0PCVWULIIMIKEDPI62U09MYW7TV,271100,271100,,,,,,,,,,
,,,,4,7.65839,0,27,27,667,1,a living room with a box on the table,a living room without a box on the table,wolfe2,086_R_book,1,35,A11P1OS26E6AMO,2021-01-25_09h44.24.132,MetaAwareness,2020.1.2,Win32,60,34R3P23QHT44L4WQV14RS81EEH3HWU,A11P1OS26E6AMO,31Z0PCVWULIIMIKEDPI62U09MYW7TV,WPZ10,WPZ10,31Z0PCVWULIIMIKEDPI62U09MYW7TV,31Z0PCVWULIIMIKEDPI62U09MYW7TV,271100,271100,,,,,,,,,,
,,,,4,6.407565,0,28,28,358,1,the drawer does not have a handle,there is a handle on the drawer,wolfe2,047_R_handle,4,35,A11P1OS26E6AMO,2021-01-25_09h44.24.132,MetaAwareness,2020.1.2,Win32,60,34R3P23QHT44L4WQV14RS81EEH3HWU,A11P1OS26E6AMO,31Z0PCVWULIIMIKEDPI62U09MYW7TV,WPZ10,WPZ10,31Z0PCVWULIIMIKEDPI62U09MYW7TV,31Z0PCVWULIIMIKEDPI62U09MYW7TV,271100,271100,,,,,,,,,,
,,,,4,11.463345,0,29,29,295,1,a room with table adjoining to a living room with bamboo and no art on the walls,a room with table adjoining to a living room with bamboo and wood art on the wall,wolfe2,038_L_art,4,35,A11P1OS26E6AMO,2021-01-25_09h44.24.132,MetaAwareness,2020.1.2,Win32,60,34R3P23QHT44L4WQV14RS81EEH3HWU,A11P1OS26E6AMO,31Z0PCVWULIIMIKEDPI62U09MYW7TV,WPZ10,WPZ10,31Z0PCVWULIIMIKEDPI62U09MYW7TV,31Z0PCVWULIIMIKEDPI62U09MYW7TV,271100,271100,,,,,,,,,,
,,,,,,,,,,,,,,,,35,A11P1OS26E6AMO,2021-01-25_09h44.24.132,MetaAwareness,2020.1.2,Win32,60,34R3P23QHT44L4WQV14RS81EEH3HWU,A11P1OS26E6AMO,31Z0PCVWULIIMIKEDPI62U09MYW7TV,WPZ10,WPZ10,31Z0PCVWULIIMIKEDPI62U09MYW7TV,31Z0PCVWULIIMIKEDPI62U09MYW7TV,271100,271100,6,13.981885,someone laying underneath a blue beach umbrella on a crowded beach,someone laying underneath a blue beach umbrella on a crowded beach,same,1,8.22667,members of a marching band crossing a track that all have feather plumes at the front of their hats,a cluttered and rustic looking cafe with 10 hanging lights,different
