consent_response.keys,consent_response.rt,key_resp_2.keys,key_resp_2.rt,user_resp.keys,user_resp.rt,trials.thisRepN,trials.thisTrialN,trials.thisN,trials.thisIndex,trials.ran,image_1_text,image_2_text,database,image,number,age,worker_ID,date,expName,psychopyVersion,OS,frameRate,hitId,workerId,assignmentId,a,tp_a,b,tp_b,c,tp_c,catch_same_resp.keys,catch_same_resp.rt,image_1_text_catch_same,image_2_text_catch_same,image_catch_same,catch_different_resp.keys,catch_different_resp.rt,image_1_text_catch_different,image_2_text_catch_different,image_catch_different
space,6.74732,space,10.719575,6,7.43215,0,0,0,892,1,a large dining room and kitchen with a large window letting light in and a plant on the floor with a pail next to it,a large dining room and kitchen with a large window letting light in and a plant on the floor with no pail next to it,wolfe2,116_R_basket,2,35,A15M4JCV04B5RZ,2021-01-25_06h16.26.329,MetaAwareness,2020.1.2,Win32,60,3HA5ODM5KBVGWOA1GLBUAKP2GJFSVD,A15M4JCV04B5RZ,3ZWFC4W1UVAILWMSRJBNQ7C8W1CRF0,1CWZ0,1CWZ0,3ZWFC4W1UVAILWMSRJBNQ7C8W1CRF0,3ZWFC4W1UVAILWMSRJBNQ7C8W1CRF0,271100,271100,,,,,,,,,,
,,,,6,6.158825,0,1,1,724,1,a white living room with a red candle on the fireplace,a whiteliving room without a red candle on the fireplace,wolfe2,095_L_candle,4,35,A15M4JCV04B5RZ,2021-01-25_06h16.26.329,MetaAwareness,2020.1.2,Win32,60,3HA5ODM5KBVGWOA1GLBUAKP2GJFSVD,A15M4JCV04B5RZ,3ZWFC4W1UVAILWMSRJBNQ7C8W1CRF0,1CWZ0,1CWZ0,3ZWFC4W1UVAILWMSRJBNQ7C8W1CRF0,3ZWFC4W1UVAILWMSRJBNQ7C8W1CRF0,271100,271100,,,,,,,,,,
,,,,5,2.669375,0,2,2,726,1,a bedroom with three scented candles,a bedroom with two scented candles,wolfe2,095_R_candle,3,35,A15M4JCV04B5RZ,2021-01-25_06h16.26.329,MetaAwareness,2020.1.2,Win32,60,3HA5ODM5KBVGWOA1GLBUAKP2GJFSVD,A15M4JCV04B5RZ,3ZWFC4W1UVAILWMSRJBNQ7C8W1CRF0,1CWZ0,1CWZ0,3ZWFC4W1UVAILWMSRJBNQ7C8W1CRF0,3ZWFC4W1UVAILWMSRJBNQ7C8W1CRF0,271100,271100,,,,,,,,,,
,,,,6,2.686985,0,3,3,332,1,a living room with a bookcase and a tv,a living room with a bookcase and clock and a tv,wolfe2,043_R_clock,5,35,A15M4JCV04B5RZ,2021-01-25_06h16.26.329,MetaAwareness,2020.1.2,Win32,60,3HA5ODM5KBVGWOA1GLBUAKP2GJFSVD,A15M4JCV04B5RZ,3ZWFC4W1UVAILWMSRJBNQ7C8W1CRF0,1CWZ0,1CWZ0,3ZWFC4W1UVAILWMSRJBNQ7C8W1CRF0,3ZWFC4W1UVAILWMSRJBNQ7C8W1CRF0,271100,271100,,,,,,,,,,
,,,,5,3.34717,0,4,4,496,1,theres a book shelf in an office with nothing in the middle,theres a bookshelf in an office with books in the middle,wolfe2,065_L_cd,5,35,A15M4JCV04B5RZ,2021-01-25_06h16.26.329,MetaAwareness,2020.1.2,Win32,60,3HA5ODM5KBVGWOA1GLBUAKP2GJFSVD,A15M4JCV04B5RZ,3ZWFC4W1UVAILWMSRJBNQ7C8W1CRF0,1CWZ0,1CWZ0,3ZWFC4W1UVAILWMSRJBNQ7C8W1CRF0,3ZWFC4W1UVAILWMSRJBNQ7C8W1CRF0,271100,271100,,,,,,,,,,
,,,,5,2.846295,0,5,5,494,1,an empty slot at the bookshelf,books arranged on a bookshelf,wolfe2,065_L_cd,2,35,A15M4JCV04B5RZ,2021-01-25_06h16.26.329,MetaAwareness,2020.1.2,Win32,60,3HA5ODM5KBVGWOA1GLBUAKP2GJFSVD,A15M4JCV04B5RZ,3ZWFC4W1UVAILWMSRJBNQ7C8W1CRF0,1CWZ0,1CWZ0,3ZWFC4W1UVAILWMSRJBNQ7C8W1CRF0,3ZWFC4W1UVAILWMSRJBNQ7C8W1CRF0,271100,271100,,,,,,,,,,
,,,,4,1.59086,0,6,6,416,1,"a modern, minimalist bedroom decorated with a red theme, with two circular rugs in shades of red and black","a modern, minimalist bedroom decorated with a red theme, with three circular rugs in shades of blue, red and black",wolfe2,055_R_carpet,6,35,A15M4JCV04B5RZ,2021-01-25_06h16.26.329,MetaAwareness,2020.1.2,Win32,60,3HA5ODM5KBVGWOA1GLBUAKP2GJFSVD,A15M4JCV04B5RZ,3ZWFC4W1UVAILWMSRJBNQ7C8W1CRF0,1CWZ0,1CWZ0,3ZWFC4W1UVAILWMSRJBNQ7C8W1CRF0,3ZWFC4W1UVAILWMSRJBNQ7C8W1CRF0,271100,271100,,,,,,,,,,
,,,,5,1.29665,0,7,7,785,1,a bathroom with dual sinks with mohagany drawers and cabinets  and also a coat hook at the left hand side,a bathroom with dual sinks with mohagany drawers and cabinets,wolfe2,103_L_hook,2,35,A15M4JCV04B5RZ,2021-01-25_06h16.26.329,MetaAwareness,2020.1.2,Win32,60,3HA5ODM5KBVGWOA1GLBUAKP2GJFSVD,A15M4JCV04B5RZ,3ZWFC4W1UVAILWMSRJBNQ7C8W1CRF0,1CWZ0,1CWZ0,3ZWFC4W1UVAILWMSRJBNQ7C8W1CRF0,3ZWFC4W1UVAILWMSRJBNQ7C8W1CRF0,271100,271100,,,,,,,,,,
,,,,6,1.10625,0,8,8,742,1,a spacious looking hotel room with a big bed and mirror behind the bed. there is a light on the wall near the mirror.,"a spacious looking hotel room, with a big bed, and mirror behind the bed. no light on the wall.",wolfe2,097_L_light,4,35,A15M4JCV04B5RZ,2021-01-25_06h16.26.329,MetaAwareness,2020.1.2,Win32,60,3HA5ODM5KBVGWOA1GLBUAKP2GJFSVD,A15M4JCV04B5RZ,3ZWFC4W1UVAILWMSRJBNQ7C8W1CRF0,1CWZ0,1CWZ0,3ZWFC4W1UVAILWMSRJBNQ7C8W1CRF0,3ZWFC4W1UVAILWMSRJBNQ7C8W1CRF0,271100,271100,,,,,,,,,,
,,,,5,0.94167,0,9,9,711,1,"a small, cool-toned living room with a large window, a white couch, and a pair of candles in the fireplace","a small, cool-toned living room with a large window, a white couch, and a tile fireplace",wolfe2,092_R_candles,2,35,A15M4JCV04B5RZ,2021-01-25_06h16.26.329,MetaAwareness,2020.1.2,Win32,60,3HA5ODM5KBVGWOA1GLBUAKP2GJFSVD,A15M4JCV04B5RZ,3ZWFC4W1UVAILWMSRJBNQ7C8W1CRF0,1CWZ0,1CWZ0,3ZWFC4W1UVAILWMSRJBNQ7C8W1CRF0,3ZWFC4W1UVAILWMSRJBNQ7C8W1CRF0,271100,271100,,,,,,,,,,
,,,,4,0.865,0,10,10,292,1,a clean and modern looking bathroom with 5 rolled up towels on the shelf,a clean and modern looking bathroom with 6 rolled up towels on the shelf,wolfe2,037_R_towel,5,35,A15M4JCV04B5RZ,2021-01-25_06h16.26.329,MetaAwareness,2020.1.2,Win32,60,3HA5ODM5KBVGWOA1GLBUAKP2GJFSVD,A15M4JCV04B5RZ,3ZWFC4W1UVAILWMSRJBNQ7C8W1CRF0,1CWZ0,1CWZ0,3ZWFC4W1UVAILWMSRJBNQ7C8W1CRF0,3ZWFC4W1UVAILWMSRJBNQ7C8W1CRF0,271100,271100,,,,,,,,,,
,,,,5,0.863825,0,11,11,204,1,"a room with flower washes,  two wash basin and sanidizer present","a room with flower washes, two wash basin and sanidizer present",wolfe2,027_L_soapdish,1,35,A15M4JCV04B5RZ,2021-01-25_06h16.26.329,MetaAwareness,2020.1.2,Win32,60,3HA5ODM5KBVGWOA1GLBUAKP2GJFSVD,A15M4JCV04B5RZ,3ZWFC4W1UVAILWMSRJBNQ7C8W1CRF0,1CWZ0,1CWZ0,3ZWFC4W1UVAILWMSRJBNQ7C8W1CRF0,3ZWFC4W1UVAILWMSRJBNQ7C8W1CRF0,271100,271100,,,,,,,,,,
,,,,6,0.829145,0,12,12,262,1,a bedroom with a dresser with 2 handles,a bedroom with a dresser with 3 handles,wolfe2,034_L_handle,4,35,A15M4JCV04B5RZ,2021-01-25_06h16.26.329,MetaAwareness,2020.1.2,Win32,60,3HA5ODM5KBVGWOA1GLBUAKP2GJFSVD,A15M4JCV04B5RZ,3ZWFC4W1UVAILWMSRJBNQ7C8W1CRF0,1CWZ0,1CWZ0,3ZWFC4W1UVAILWMSRJBNQ7C8W1CRF0,3ZWFC4W1UVAILWMSRJBNQ7C8W1CRF0,271100,271100,,,,,,,,,,
,,,,5,0.80954,0,13,13,49,1,iin a bathroom there is a sink with no soap dish next to a yellow bucker,in a bathroom there is a  sink with a soapdish with soap next to a yellow bucket,wolfe2,007_L_soap,1,35,A15M4JCV04B5RZ,2021-01-25_06h16.26.329,MetaAwareness,2020.1.2,Win32,60,3HA5ODM5KBVGWOA1GLBUAKP2GJFSVD,A15M4JCV04B5RZ,3ZWFC4W1UVAILWMSRJBNQ7C8W1CRF0,1CWZ0,1CWZ0,3ZWFC4W1UVAILWMSRJBNQ7C8W1CRF0,3ZWFC4W1UVAILWMSRJBNQ7C8W1CRF0,271100,271100,,,,,,,,,,
,,,,6,0.793965,0,14,14,839,1,a room with white couches and an orange pillow,a room with white couches and three small pillows,wolfe2,109_R_pillow,2,35,A15M4JCV04B5RZ,2021-01-25_06h16.26.329,MetaAwareness,2020.1.2,Win32,60,3HA5ODM5KBVGWOA1GLBUAKP2GJFSVD,A15M4JCV04B5RZ,3ZWFC4W1UVAILWMSRJBNQ7C8W1CRF0,1CWZ0,1CWZ0,3ZWFC4W1UVAILWMSRJBNQ7C8W1CRF0,3ZWFC4W1UVAILWMSRJBNQ7C8W1CRF0,271100,271100,,,,,,,,,,
,,,,5,0.82249,0,15,15,880,1,a fancy looking kitchen area. there is an island in the center and a section off to the side that looks like a dinning room. there is a plant in a pot near a window on the counter.,a fancy looking kitchen area. there is an island in the center and a section off to the side that looks like a dinning area. there is nothing on the counter near the window.,wolfe2,115_L_pot,2,35,A15M4JCV04B5RZ,2021-01-25_06h16.26.329,MetaAwareness,2020.1.2,Win32,60,3HA5ODM5KBVGWOA1GLBUAKP2GJFSVD,A15M4JCV04B5RZ,3ZWFC4W1UVAILWMSRJBNQ7C8W1CRF0,1CWZ0,1CWZ0,3ZWFC4W1UVAILWMSRJBNQ7C8W1CRF0,3ZWFC4W1UVAILWMSRJBNQ7C8W1CRF0,271100,271100,,,,,,,,,,
,,,,6,0.804405,0,16,16,573,1,an antique kitchen with three hanging lights,an antique kitchen with three hanging lights and a ceiling light is missing.,wolfe2,075_L_light,4,35,A15M4JCV04B5RZ,2021-01-25_06h16.26.329,MetaAwareness,2020.1.2,Win32,60,3HA5ODM5KBVGWOA1GLBUAKP2GJFSVD,A15M4JCV04B5RZ,3ZWFC4W1UVAILWMSRJBNQ7C8W1CRF0,1CWZ0,1CWZ0,3ZWFC4W1UVAILWMSRJBNQ7C8W1CRF0,3ZWFC4W1UVAILWMSRJBNQ7C8W1CRF0,271100,271100,,,,,,,,,,
,,,,4,0.823355,0,17,17,220,1,the glass was very nice to see and i like that colour there are 2 glass,the glass are very nice to see and ther are num_3 glass,wolfe2,029_L_glass,2,35,A15M4JCV04B5RZ,2021-01-25_06h16.26.329,MetaAwareness,2020.1.2,Win32,60,3HA5ODM5KBVGWOA1GLBUAKP2GJFSVD,A15M4JCV04B5RZ,3ZWFC4W1UVAILWMSRJBNQ7C8W1CRF0,1CWZ0,1CWZ0,3ZWFC4W1UVAILWMSRJBNQ7C8W1CRF0,3ZWFC4W1UVAILWMSRJBNQ7C8W1CRF0,271100,271100,,,,,,,,,,
,,,,5,0.854855,0,18,18,548,1,black and cream bedroom with bottom left handle missing off 6-drawer dresser,black and cream bedroom with all handles on the 6-drawer dresser,wolfe2,072_L_handle,1,35,A15M4JCV04B5RZ,2021-01-25_06h16.26.329,MetaAwareness,2020.1.2,Win32,60,3HA5ODM5KBVGWOA1GLBUAKP2GJFSVD,A15M4JCV04B5RZ,3ZWFC4W1UVAILWMSRJBNQ7C8W1CRF0,1CWZ0,1CWZ0,3ZWFC4W1UVAILWMSRJBNQ7C8W1CRF0,3ZWFC4W1UVAILWMSRJBNQ7C8W1CRF0,271100,271100,,,,,,,,,,
,,,,6,0.870195,0,19,19,774,1,a hotel room bathroom with wineglass decore,a hotel bathroom well light with somne of the orginal decor missing,wolfe2,101_R_cup,2,35,A15M4JCV04B5RZ,2021-01-25_06h16.26.329,MetaAwareness,2020.1.2,Win32,60,3HA5ODM5KBVGWOA1GLBUAKP2GJFSVD,A15M4JCV04B5RZ,3ZWFC4W1UVAILWMSRJBNQ7C8W1CRF0,1CWZ0,1CWZ0,3ZWFC4W1UVAILWMSRJBNQ7C8W1CRF0,3ZWFC4W1UVAILWMSRJBNQ7C8W1CRF0,271100,271100,,,,,,,,,,
,,,,5,0.811755,0,20,20,755,1,a bright modern dining room that has 3 candles on the wall,a bright modern dining room that has 2 candles on the wall,wolfe2,099_L_sconce,2,35,A15M4JCV04B5RZ,2021-01-25_06h16.26.329,MetaAwareness,2020.1.2,Win32,60,3HA5ODM5KBVGWOA1GLBUAKP2GJFSVD,A15M4JCV04B5RZ,3ZWFC4W1UVAILWMSRJBNQ7C8W1CRF0,1CWZ0,1CWZ0,3ZWFC4W1UVAILWMSRJBNQ7C8W1CRF0,3ZWFC4W1UVAILWMSRJBNQ7C8W1CRF0,271100,271100,,,,,,,,,,
,,,,6,0.837355,0,21,21,717,1,a small hotel room with two wall outlets near the beds,a small hotel room with one wall outlet near the beds,wolfe2,093_L_switch,6,35,A15M4JCV04B5RZ,2021-01-25_06h16.26.329,MetaAwareness,2020.1.2,Win32,60,3HA5ODM5KBVGWOA1GLBUAKP2GJFSVD,A15M4JCV04B5RZ,3ZWFC4W1UVAILWMSRJBNQ7C8W1CRF0,1CWZ0,1CWZ0,3ZWFC4W1UVAILWMSRJBNQ7C8W1CRF0,3ZWFC4W1UVAILWMSRJBNQ7C8W1CRF0,271100,271100,,,,,,,,,,
,,,,5,0.773045,0,22,22,961,1,"room with 11 windows, leather couches and an end table and piano","room with 11 windows, leather couches and piano",wolfe2,125_L_sofa,3,35,A15M4JCV04B5RZ,2021-01-25_06h16.26.329,MetaAwareness,2020.1.2,Win32,60,3HA5ODM5KBVGWOA1GLBUAKP2GJFSVD,A15M4JCV04B5RZ,3ZWFC4W1UVAILWMSRJBNQ7C8W1CRF0,1CWZ0,1CWZ0,3ZWFC4W1UVAILWMSRJBNQ7C8W1CRF0,3ZWFC4W1UVAILWMSRJBNQ7C8W1CRF0,271100,271100,,,,,,,,,,
,,,,6,0.76689,0,23,23,281,1,the red makes this room look inviting and virile.  it is a great use of space.  there seems to be a bowl or other dish missing.,"in this photo, the dish makes the room appear more put together and more complete.",wolfe2,036_R_bowl,1,35,A15M4JCV04B5RZ,2021-01-25_06h16.26.329,MetaAwareness,2020.1.2,Win32,60,3HA5ODM5KBVGWOA1GLBUAKP2GJFSVD,A15M4JCV04B5RZ,3ZWFC4W1UVAILWMSRJBNQ7C8W1CRF0,1CWZ0,1CWZ0,3ZWFC4W1UVAILWMSRJBNQ7C8W1CRF0,3ZWFC4W1UVAILWMSRJBNQ7C8W1CRF0,271100,271100,,,,,,,,,,
,,,,5,0.820055,0,24,24,346,1,it is a picture of a hotel room with nothing on the bed side table.,it is a picture of a hotel room with a number of electronics on the bed side table.,wolfe2,045_R_musicdock,4,35,A15M4JCV04B5RZ,2021-01-25_06h16.26.329,MetaAwareness,2020.1.2,Win32,60,3HA5ODM5KBVGWOA1GLBUAKP2GJFSVD,A15M4JCV04B5RZ,3ZWFC4W1UVAILWMSRJBNQ7C8W1CRF0,1CWZ0,1CWZ0,3ZWFC4W1UVAILWMSRJBNQ7C8W1CRF0,3ZWFC4W1UVAILWMSRJBNQ7C8W1CRF0,271100,271100,,,,,,,,,,
,,,,6,0.75979,0,25,25,461,1,a luxurious and decorated dining room with glasses,a luxurious and decorated dining room with various drinking glasses,wolfe2,061_L_glass,8,35,A15M4JCV04B5RZ,2021-01-25_06h16.26.329,MetaAwareness,2020.1.2,Win32,60,3HA5ODM5KBVGWOA1GLBUAKP2GJFSVD,A15M4JCV04B5RZ,3ZWFC4W1UVAILWMSRJBNQ7C8W1CRF0,1CWZ0,1CWZ0,3ZWFC4W1UVAILWMSRJBNQ7C8W1CRF0,3ZWFC4W1UVAILWMSRJBNQ7C8W1CRF0,271100,271100,,,,,,,,,,
,,,,5,0.609755,0,26,26,914,1,a nice tiled sitting room with a piano and a lovely seating area with what appears to be leather furniture.,"this lovely tiled sitting room has a piano underneath a painting, and nice leather seats in the middle of the room. at  the back, by the sliding glass doors, is another piece of art, for collectibles.",wolfe2,119_L_painting,4,35,A15M4JCV04B5RZ,2021-01-25_06h16.26.329,MetaAwareness,2020.1.2,Win32,60,3HA5ODM5KBVGWOA1GLBUAKP2GJFSVD,A15M4JCV04B5RZ,3ZWFC4W1UVAILWMSRJBNQ7C8W1CRF0,1CWZ0,1CWZ0,3ZWFC4W1UVAILWMSRJBNQ7C8W1CRF0,3ZWFC4W1UVAILWMSRJBNQ7C8W1CRF0,271100,271100,,,,,,,,,,
,,,,6,0.549445,0,27,27,64,1,this is a bathroom with blue walls. there is a can of air freshner by the window.,this is a bathroom with blue walls. there is a can of air freshner and soap by the window.,wolfe2,008_R_bottle,8,35,A15M4JCV04B5RZ,2021-01-25_06h16.26.329,MetaAwareness,2020.1.2,Win32,60,3HA5ODM5KBVGWOA1GLBUAKP2GJFSVD,A15M4JCV04B5RZ,3ZWFC4W1UVAILWMSRJBNQ7C8W1CRF0,1CWZ0,1CWZ0,3ZWFC4W1UVAILWMSRJBNQ7C8W1CRF0,3ZWFC4W1UVAILWMSRJBNQ7C8W1CRF0,271100,271100,,,,,,,,,,
,,,,4,0.544815,0,28,28,473,1,"a living room area with a couch, some chairs and an ottomannum","a living room area with a couch, some chairs and a pet of some sort near the ottoman",wolfe2,062_R_flowers,3,35,A15M4JCV04B5RZ,2021-01-25_06h16.26.329,MetaAwareness,2020.1.2,Win32,60,3HA5ODM5KBVGWOA1GLBUAKP2GJFSVD,A15M4JCV04B5RZ,3ZWFC4W1UVAILWMSRJBNQ7C8W1CRF0,1CWZ0,1CWZ0,3ZWFC4W1UVAILWMSRJBNQ7C8W1CRF0,3ZWFC4W1UVAILWMSRJBNQ7C8W1CRF0,271100,271100,,,,,,,,,,
,,,,5,0.981465,0,29,29,455,1,a bright two toneliving room with a white pillow on the sofa,a bright two tone living room with a black pillow on the sofa,wolfe2,060_R_pillow,4,35,A15M4JCV04B5RZ,2021-01-25_06h16.26.329,MetaAwareness,2020.1.2,Win32,60,3HA5ODM5KBVGWOA1GLBUAKP2GJFSVD,A15M4JCV04B5RZ,3ZWFC4W1UVAILWMSRJBNQ7C8W1CRF0,1CWZ0,1CWZ0,3ZWFC4W1UVAILWMSRJBNQ7C8W1CRF0,3ZWFC4W1UVAILWMSRJBNQ7C8W1CRF0,271100,271100,,,,,,,,,,
,,,,,,,,,,,,,,,,35,A15M4JCV04B5RZ,2021-01-25_06h16.26.329,MetaAwareness,2020.1.2,Win32,60,3HA5ODM5KBVGWOA1GLBUAKP2GJFSVD,A15M4JCV04B5RZ,3ZWFC4W1UVAILWMSRJBNQ7C8W1CRF0,1CWZ0,1CWZ0,3ZWFC4W1UVAILWMSRJBNQ7C8W1CRF0,3ZWFC4W1UVAILWMSRJBNQ7C8W1CRF0,271100,271100,6,0.81955,someone laying underneath a blue beach umbrella on a crowded beach,someone laying underneath a blue beach umbrella on a crowded beach,same,4,0.6861,members of a marching band crossing a track that all have feather plumes at the front of their hats,a cluttered and rustic looking cafe with 10 hanging lights,different
