consent_response.keys,consent_response.rt,key_resp_2.keys,key_resp_2.rt,user_resp.keys,user_resp.rt,trials.thisRepN,trials.thisTrialN,trials.thisN,trials.thisIndex,trials.ran,image_1_text,image_2_text,database,image,number,age,worker_ID,date,expName,psychopyVersion,OS,frameRate,hitId,workerId,assignmentId,a,tp_a,b,tp_b,c,tp_c,catch_same_resp.keys,catch_same_resp.rt,image_1_text_catch_same,image_2_text_catch_same,image_catch_same,catch_different_resp.keys,catch_different_resp.rt,image_1_text_catch_different,image_2_text_catch_different,image_catch_different
space,3.44908,space,11.260625,1,11.739425,0,0,0,11,1,a restaurant with a table missing a napkin,a restaurant with a table that has napkins and place settings all around,wolfe2,002_L_napkin,3,42,A18WSAKX5YN2FB,2021-01-25_09h31.26.026,MetaAwareness,2020.1.2,Linux x86_64,60,3HA5ODM5KBVGWOA1GLBUAKP2GJFSVD,A18WSAKX5YN2FB,30BXRYBRP5077OUKL39TGRW24V4WH6,RRB00,RRB00,30BXRYBRP5077OUKL39TGRW24V4WH6,30BXRYBRP5077OUKL39TGRW24V4WH6,271100,271100,,,,,,,,,,
,,,,3,13.241075,0,1,1,770,1,a bathroom with a lighted cabinet next to the sink with soap and three cups in it,a bathroom with a lighted cabinet next to the sink with soap and two cups in it,wolfe2,101_L_cup,2,42,A18WSAKX5YN2FB,2021-01-25_09h31.26.026,MetaAwareness,2020.1.2,Linux x86_64,60,3HA5ODM5KBVGWOA1GLBUAKP2GJFSVD,A18WSAKX5YN2FB,30BXRYBRP5077OUKL39TGRW24V4WH6,RRB00,RRB00,30BXRYBRP5077OUKL39TGRW24V4WH6,30BXRYBRP5077OUKL39TGRW24V4WH6,271100,271100,,,,,,,,,,
,,,,3,24.641475,0,2,2,188,1,"a bathroom with a large mirror and two sinks, with a basket and four stacked towels under the sinks",a bathroom with a large mirror and two sinks with a basket and nine stacked towels under the sinks,wolfe2,024_R_towels,4,42,A18WSAKX5YN2FB,2021-01-25_09h31.26.026,MetaAwareness,2020.1.2,Linux x86_64,60,3HA5ODM5KBVGWOA1GLBUAKP2GJFSVD,A18WSAKX5YN2FB,30BXRYBRP5077OUKL39TGRW24V4WH6,RRB00,RRB00,30BXRYBRP5077OUKL39TGRW24V4WH6,30BXRYBRP5077OUKL39TGRW24V4WH6,271100,271100,,,,,,,,,,
,,,,3,9.48898,0,3,3,394,1,a large bathroom lined in stone with a cabinet containing one drawer on the bottom.,a large bathroom lined in stone with a cabinet containing two drawers on the bottom.,wolfe2,053_L_handle,1,42,A18WSAKX5YN2FB,2021-01-25_09h31.26.026,MetaAwareness,2020.1.2,Linux x86_64,60,3HA5ODM5KBVGWOA1GLBUAKP2GJFSVD,A18WSAKX5YN2FB,30BXRYBRP5077OUKL39TGRW24V4WH6,RRB00,RRB00,30BXRYBRP5077OUKL39TGRW24V4WH6,30BXRYBRP5077OUKL39TGRW24V4WH6,271100,271100,,,,,,,,,,
,,,,3,10.26945,0,4,4,48,1,this is a nicely furnished bedroom. there is a night stand with a lamp on it.,this is a nicely furnished bedroom. there is a night stand with a lamp and an ornate jug on it,wolfe2,006_R_vase,7,42,A18WSAKX5YN2FB,2021-01-25_09h31.26.026,MetaAwareness,2020.1.2,Linux x86_64,60,3HA5ODM5KBVGWOA1GLBUAKP2GJFSVD,A18WSAKX5YN2FB,30BXRYBRP5077OUKL39TGRW24V4WH6,RRB00,RRB00,30BXRYBRP5077OUKL39TGRW24V4WH6,30BXRYBRP5077OUKL39TGRW24V4WH6,271100,271100,,,,,,,,,,
,,,,3,14.06703,0,5,5,455,1,a bright two toneliving room with a white pillow on the sofa,a bright two tone living room with a black pillow on the sofa,wolfe2,060_R_pillow,4,42,A18WSAKX5YN2FB,2021-01-25_09h31.26.026,MetaAwareness,2020.1.2,Linux x86_64,60,3HA5ODM5KBVGWOA1GLBUAKP2GJFSVD,A18WSAKX5YN2FB,30BXRYBRP5077OUKL39TGRW24V4WH6,RRB00,RRB00,30BXRYBRP5077OUKL39TGRW24V4WH6,30BXRYBRP5077OUKL39TGRW24V4WH6,271100,271100,,,,,,,,,,
,,,,1,9.39551,0,6,6,592,1,four stool chairs with a missing label on the bottom.,four stool chairs with all labels.,wolfe2,077_L_footrest,6,42,A18WSAKX5YN2FB,2021-01-25_09h31.26.026,MetaAwareness,2020.1.2,Linux x86_64,60,3HA5ODM5KBVGWOA1GLBUAKP2GJFSVD,A18WSAKX5YN2FB,30BXRYBRP5077OUKL39TGRW24V4WH6,RRB00,RRB00,30BXRYBRP5077OUKL39TGRW24V4WH6,30BXRYBRP5077OUKL39TGRW24V4WH6,271100,271100,,,,,,,,,,
,,,,1,2.97351,0,7,7,659,1,there is a light switch,the light switch is missing,wolfe2,085_R_switchboard,4,42,A18WSAKX5YN2FB,2021-01-25_09h31.26.026,MetaAwareness,2020.1.2,Linux x86_64,60,3HA5ODM5KBVGWOA1GLBUAKP2GJFSVD,A18WSAKX5YN2FB,30BXRYBRP5077OUKL39TGRW24V4WH6,RRB00,RRB00,30BXRYBRP5077OUKL39TGRW24V4WH6,30BXRYBRP5077OUKL39TGRW24V4WH6,271100,271100,,,,,,,,,,
,,,,3,16.768185,0,8,8,275,1,a warm colored bedroom with two lights on the desk near the bed.,a warm colored bedroom with two lights and a red decoration on the desk near the bed.,wolfe2,035_R_fruit,1,42,A18WSAKX5YN2FB,2021-01-25_09h31.26.026,MetaAwareness,2020.1.2,Linux x86_64,60,3HA5ODM5KBVGWOA1GLBUAKP2GJFSVD,A18WSAKX5YN2FB,30BXRYBRP5077OUKL39TGRW24V4WH6,RRB00,RRB00,30BXRYBRP5077OUKL39TGRW24V4WH6,30BXRYBRP5077OUKL39TGRW24V4WH6,271100,271100,,,,,,,,,,
,,,,1,5.300885,0,9,9,962,1,a living room with a small coffee table next to the couch,a living room without a small coffee table next to the couch,wolfe2,125_L_sofa,4,42,A18WSAKX5YN2FB,2021-01-25_09h31.26.026,MetaAwareness,2020.1.2,Linux x86_64,60,3HA5ODM5KBVGWOA1GLBUAKP2GJFSVD,A18WSAKX5YN2FB,30BXRYBRP5077OUKL39TGRW24V4WH6,RRB00,RRB00,30BXRYBRP5077OUKL39TGRW24V4WH6,30BXRYBRP5077OUKL39TGRW24V4WH6,271100,271100,,,,,,,,,,
,,,,1,6.376395,0,10,10,129,1,a red and white living room with large windows and an unlit fireplace,a red and white livving room with large windows and a lit fireplace,wolfe2,017_L_wood,2,42,A18WSAKX5YN2FB,2021-01-25_09h31.26.026,MetaAwareness,2020.1.2,Linux x86_64,60,3HA5ODM5KBVGWOA1GLBUAKP2GJFSVD,A18WSAKX5YN2FB,30BXRYBRP5077OUKL39TGRW24V4WH6,RRB00,RRB00,30BXRYBRP5077OUKL39TGRW24V4WH6,30BXRYBRP5077OUKL39TGRW24V4WH6,271100,271100,,,,,,,,,,
,,,,1,9.39928,0,11,11,39,1,a bedroom with a bedside table with only a lamp,a bedroom with a bedside table and alamp and a vase,wolfe2,006_L_vase,3,42,A18WSAKX5YN2FB,2021-01-25_09h31.26.026,MetaAwareness,2020.1.2,Linux x86_64,60,3HA5ODM5KBVGWOA1GLBUAKP2GJFSVD,A18WSAKX5YN2FB,30BXRYBRP5077OUKL39TGRW24V4WH6,RRB00,RRB00,30BXRYBRP5077OUKL39TGRW24V4WH6,30BXRYBRP5077OUKL39TGRW24V4WH6,271100,271100,,,,,,,,,,
,,,,5,10.982435,0,12,12,209,1,"a fancy bathroom with two sinks, a bathtub and a shower","a fancy bathroom with two sinks, a bathtub, and a shower with a soap holder",wolfe2,027_R_soapdish,2,42,A18WSAKX5YN2FB,2021-01-25_09h31.26.026,MetaAwareness,2020.1.2,Linux x86_64,60,3HA5ODM5KBVGWOA1GLBUAKP2GJFSVD,A18WSAKX5YN2FB,30BXRYBRP5077OUKL39TGRW24V4WH6,RRB00,RRB00,30BXRYBRP5077OUKL39TGRW24V4WH6,30BXRYBRP5077OUKL39TGRW24V4WH6,271100,271100,,,,,,,,,,
,,,,1,9.554235,0,13,13,260,1,the bedroom is very clean and good thedryes are missed the lock,the bedroom dryes are not missed,wolfe2,034_L_handle,1,42,A18WSAKX5YN2FB,2021-01-25_09h31.26.026,MetaAwareness,2020.1.2,Linux x86_64,60,3HA5ODM5KBVGWOA1GLBUAKP2GJFSVD,A18WSAKX5YN2FB,30BXRYBRP5077OUKL39TGRW24V4WH6,RRB00,RRB00,30BXRYBRP5077OUKL39TGRW24V4WH6,30BXRYBRP5077OUKL39TGRW24V4WH6,271100,271100,,,,,,,,,,
,,,,1,4.75282,0,14,14,737,1,a pink looking bedroom with a pink table that has a box on it,a pink looking bedroom with a pink table that has nothing on it,wolfe2,096_R_painting,3,42,A18WSAKX5YN2FB,2021-01-25_09h31.26.026,MetaAwareness,2020.1.2,Linux x86_64,60,3HA5ODM5KBVGWOA1GLBUAKP2GJFSVD,A18WSAKX5YN2FB,30BXRYBRP5077OUKL39TGRW24V4WH6,RRB00,RRB00,30BXRYBRP5077OUKL39TGRW24V4WH6,30BXRYBRP5077OUKL39TGRW24V4WH6,271100,271100,,,,,,,,,,
,,,,5,9.80967,0,15,15,139,1,a landscaped outdoor porch with a blurred door to the right side,a landscaped outdoor porch with a plant in front of a blurred door to the right side,wolfe2,018_R_plant,1,42,A18WSAKX5YN2FB,2021-01-25_09h31.26.026,MetaAwareness,2020.1.2,Linux x86_64,60,3HA5ODM5KBVGWOA1GLBUAKP2GJFSVD,A18WSAKX5YN2FB,30BXRYBRP5077OUKL39TGRW24V4WH6,RRB00,RRB00,30BXRYBRP5077OUKL39TGRW24V4WH6,30BXRYBRP5077OUKL39TGRW24V4WH6,271100,271100,,,,,,,,,,
,,,,1,6.266075,0,16,16,509,1,a nice appartment with simple colors,an object missing from the room but i am unsure of what the object is,wolfe2,066_R_vase,3,42,A18WSAKX5YN2FB,2021-01-25_09h31.26.026,MetaAwareness,2020.1.2,Linux x86_64,60,3HA5ODM5KBVGWOA1GLBUAKP2GJFSVD,A18WSAKX5YN2FB,30BXRYBRP5077OUKL39TGRW24V4WH6,RRB00,RRB00,30BXRYBRP5077OUKL39TGRW24V4WH6,30BXRYBRP5077OUKL39TGRW24V4WH6,271100,271100,,,,,,,,,,
,,,,4,7.750745,0,17,17,661,1,low light beige neutral bathroom setting,a smooth beige bathroom,wolfe2,085_R_switchboard,6,42,A18WSAKX5YN2FB,2021-01-25_09h31.26.026,MetaAwareness,2020.1.2,Linux x86_64,60,3HA5ODM5KBVGWOA1GLBUAKP2GJFSVD,A18WSAKX5YN2FB,30BXRYBRP5077OUKL39TGRW24V4WH6,RRB00,RRB00,30BXRYBRP5077OUKL39TGRW24V4WH6,30BXRYBRP5077OUKL39TGRW24V4WH6,271100,271100,,,,,,,,,,
,,,,1,7.419725,0,18,18,669,1,a kitchen and living room area with a table in the living room that has a centerpiece on it,a kitchen and living room area with a table in the living room that has nothing on it,wolfe2,086_R_book,4,42,A18WSAKX5YN2FB,2021-01-25_09h31.26.026,MetaAwareness,2020.1.2,Linux x86_64,60,3HA5ODM5KBVGWOA1GLBUAKP2GJFSVD,A18WSAKX5YN2FB,30BXRYBRP5077OUKL39TGRW24V4WH6,RRB00,RRB00,30BXRYBRP5077OUKL39TGRW24V4WH6,30BXRYBRP5077OUKL39TGRW24V4WH6,271100,271100,,,,,,,,,,
,,,,2,15.734715,0,19,19,869,1,"a furnished country club lounge, the back right corner has a potted plant",a furnished country club lounge,wolfe2,113_R_plant,2,42,A18WSAKX5YN2FB,2021-01-25_09h31.26.026,MetaAwareness,2020.1.2,Linux x86_64,60,3HA5ODM5KBVGWOA1GLBUAKP2GJFSVD,A18WSAKX5YN2FB,30BXRYBRP5077OUKL39TGRW24V4WH6,RRB00,RRB00,30BXRYBRP5077OUKL39TGRW24V4WH6,30BXRYBRP5077OUKL39TGRW24V4WH6,271100,271100,,,,,,,,,,
,,,,3,9.32177,0,20,20,708,1,a fancy family room complete with a fireplace ready with wood,a fancy family room complete with an empty fireplace,wolfe2,092_L_candles,2,42,A18WSAKX5YN2FB,2021-01-25_09h31.26.026,MetaAwareness,2020.1.2,Linux x86_64,60,3HA5ODM5KBVGWOA1GLBUAKP2GJFSVD,A18WSAKX5YN2FB,30BXRYBRP5077OUKL39TGRW24V4WH6,RRB00,RRB00,30BXRYBRP5077OUKL39TGRW24V4WH6,30BXRYBRP5077OUKL39TGRW24V4WH6,271100,271100,,,,,,,,,,
,,,,3,9.430235,0,21,21,458,1,"a dining room that is decorated with flowers, a chandelier, and place settings with a wine glass and coffee mug","a dining room that is decorated with flowers, a chandelier, and place settings, one of which contains two wine glasses",wolfe2,061_L_glass,3,42,A18WSAKX5YN2FB,2021-01-25_09h31.26.026,MetaAwareness,2020.1.2,Linux x86_64,60,3HA5ODM5KBVGWOA1GLBUAKP2GJFSVD,A18WSAKX5YN2FB,30BXRYBRP5077OUKL39TGRW24V4WH6,RRB00,RRB00,30BXRYBRP5077OUKL39TGRW24V4WH6,30BXRYBRP5077OUKL39TGRW24V4WH6,271100,271100,,,,,,,,,,
,,,,1,7.5012,0,22,22,208,1,there is nothing but brown wallpaper in this shower stall.,there is a soap rack hanging on the brown wallpaper in this shower stall.,wolfe2,027_R_soapdish,1,42,A18WSAKX5YN2FB,2021-01-25_09h31.26.026,MetaAwareness,2020.1.2,Linux x86_64,60,3HA5ODM5KBVGWOA1GLBUAKP2GJFSVD,A18WSAKX5YN2FB,30BXRYBRP5077OUKL39TGRW24V4WH6,RRB00,RRB00,30BXRYBRP5077OUKL39TGRW24V4WH6,30BXRYBRP5077OUKL39TGRW24V4WH6,271100,271100,,,,,,,,,,
,,,,1,2.98364,0,23,23,358,1,the drawer does not have a handle,there is a handle on the drawer,wolfe2,047_R_handle,4,42,A18WSAKX5YN2FB,2021-01-25_09h31.26.026,MetaAwareness,2020.1.2,Linux x86_64,60,3HA5ODM5KBVGWOA1GLBUAKP2GJFSVD,A18WSAKX5YN2FB,30BXRYBRP5077OUKL39TGRW24V4WH6,RRB00,RRB00,30BXRYBRP5077OUKL39TGRW24V4WH6,30BXRYBRP5077OUKL39TGRW24V4WH6,271100,271100,,,,,,,,,,
,,,,3,7.55006,0,24,24,110,1,room with two tables and 3 lights on the wall,room with two tables and 4 lights on the wall,wolfe2,014_L_lamp,4,42,A18WSAKX5YN2FB,2021-01-25_09h31.26.026,MetaAwareness,2020.1.2,Linux x86_64,60,3HA5ODM5KBVGWOA1GLBUAKP2GJFSVD,A18WSAKX5YN2FB,30BXRYBRP5077OUKL39TGRW24V4WH6,RRB00,RRB00,30BXRYBRP5077OUKL39TGRW24V4WH6,30BXRYBRP5077OUKL39TGRW24V4WH6,271100,271100,,,,,,,,,,
,,,,3,7.11792,0,25,25,520,1,"a newly updated bathroom, that includes a soaking tub full with flower petals and three storage attachments on the tile","a newly updated bathroom, that includes a soaking tub full with flower petals and two storage attachments on the tile",wolfe2,068_L_faucet,5,42,A18WSAKX5YN2FB,2021-01-25_09h31.26.026,MetaAwareness,2020.1.2,Linux x86_64,60,3HA5ODM5KBVGWOA1GLBUAKP2GJFSVD,A18WSAKX5YN2FB,30BXRYBRP5077OUKL39TGRW24V4WH6,RRB00,RRB00,30BXRYBRP5077OUKL39TGRW24V4WH6,30BXRYBRP5077OUKL39TGRW24V4WH6,271100,271100,,,,,,,,,,
,,,,1,10.558385,0,26,26,92,1,a bathroom with a big bathtub with no overflow,a bathroom with a big bathtub with an overflow,wolfe2,012_R_tubaccesory,3,42,A18WSAKX5YN2FB,2021-01-25_09h31.26.026,MetaAwareness,2020.1.2,Linux x86_64,60,3HA5ODM5KBVGWOA1GLBUAKP2GJFSVD,A18WSAKX5YN2FB,30BXRYBRP5077OUKL39TGRW24V4WH6,RRB00,RRB00,30BXRYBRP5077OUKL39TGRW24V4WH6,30BXRYBRP5077OUKL39TGRW24V4WH6,271100,271100,,,,,,,,,,
,,,,3,22.911275,0,27,27,872,1,a living room with a brown table with a bird looking figurine on the table,a living room with a brown wood table with books and vases on the table,wolfe2,114_L_bird,1,42,A18WSAKX5YN2FB,2021-01-25_09h31.26.026,MetaAwareness,2020.1.2,Linux x86_64,60,3HA5ODM5KBVGWOA1GLBUAKP2GJFSVD,A18WSAKX5YN2FB,30BXRYBRP5077OUKL39TGRW24V4WH6,RRB00,RRB00,30BXRYBRP5077OUKL39TGRW24V4WH6,30BXRYBRP5077OUKL39TGRW24V4WH6,271100,271100,,,,,,,,,,
,,,,2,10.01548,0,28,28,784,1,a hook provides a place for robes and towels in a beautiful and clean bathroom.,taupe walls work perfectly in this beautiful and clean bathroom.,wolfe2,103_L_hook,1,42,A18WSAKX5YN2FB,2021-01-25_09h31.26.026,MetaAwareness,2020.1.2,Linux x86_64,60,3HA5ODM5KBVGWOA1GLBUAKP2GJFSVD,A18WSAKX5YN2FB,30BXRYBRP5077OUKL39TGRW24V4WH6,RRB00,RRB00,30BXRYBRP5077OUKL39TGRW24V4WH6,30BXRYBRP5077OUKL39TGRW24V4WH6,271100,271100,,,,,,,,,,
,,,,6,7.20922,0,29,29,692,1,a cozy bedroom with mirror closets.,a cozy bedroom with mirror closets and a lamp in the corner.,wolfe2,090_L_lamp,3,42,A18WSAKX5YN2FB,2021-01-25_09h31.26.026,MetaAwareness,2020.1.2,Linux x86_64,60,3HA5ODM5KBVGWOA1GLBUAKP2GJFSVD,A18WSAKX5YN2FB,30BXRYBRP5077OUKL39TGRW24V4WH6,RRB00,RRB00,30BXRYBRP5077OUKL39TGRW24V4WH6,30BXRYBRP5077OUKL39TGRW24V4WH6,271100,271100,,,,,,,,,,
,,,,,,,,,,,,,,,,42,A18WSAKX5YN2FB,2021-01-25_09h31.26.026,MetaAwareness,2020.1.2,Linux x86_64,60,3HA5ODM5KBVGWOA1GLBUAKP2GJFSVD,A18WSAKX5YN2FB,30BXRYBRP5077OUKL39TGRW24V4WH6,RRB00,RRB00,30BXRYBRP5077OUKL39TGRW24V4WH6,30BXRYBRP5077OUKL39TGRW24V4WH6,271100,271100,6,10.803625,someone laying underneath a blue beach umbrella on a crowded beach,someone laying underneath a blue beach umbrella on a crowded beach,same,1,6.866005,members of a marching band crossing a track that all have feather plumes at the front of their hats,a cluttered and rustic looking cafe with 10 hanging lights,different
