consent_response.keys,consent_response.rt,key_resp_2.keys,key_resp_2.rt,user_resp.keys,user_resp.rt,trials.thisRepN,trials.thisTrialN,trials.thisN,trials.thisIndex,trials.ran,image_1_text,image_2_text,database,image,number,age,worker_ID,date,expName,psychopyVersion,OS,frameRate,hitId,workerId,assignmentId,a,tp_a,b,tp_b,c,tp_c,catch_same_resp.keys,catch_same_resp.rt,image_1_text_catch_same,image_2_text_catch_same,image_catch_same,catch_different_resp.keys,catch_different_resp.rt,image_1_text_catch_different,image_2_text_catch_different,image_catch_different
space,3.027,space,8.111,5,9.897,0,0,0,44,1,the bed has a palm tree behind it. there is a white rug under the bed. next to the bed on the right is a lamp sitting on a table.,the bed has a palm tree behind it. there is a white rug under the bed. next to the bed on the right side is a lamp and a puple vase.,wolfe2,006_R_vase,2,46,A1NCSZCN8EA787,2021-01-25_09h47.35.362,MetaAwareness,2020.1.2,Win32,60,34R3P23QHT44L4WQV14RS81EEH3HWU,A1NCSZCN8EA787,3KV0LJBBH3OOR6E9D6F0LXWHT2UMR8,BLVK0,BLVK0,3KV0LJBBH3OOR6E9D6F0LXWHT2UMR8,3KV0LJBBH3OOR6E9D6F0LXWHT2UMR8,271100,271100,,,,,,,,,,
,,,,4,9.784,0,1,1,398,1,a stone styled bathroom with tiled double sinks a large separate bathtub and a chifferobe with one bottom storage area,"a stone sytled bathroom with tiled double sinks, a large separate bathtub and a chifferobe with two bottom storage areas",wolfe2,053_L_handle,5,46,A1NCSZCN8EA787,2021-01-25_09h47.35.362,MetaAwareness,2020.1.2,Win32,60,34R3P23QHT44L4WQV14RS81EEH3HWU,A1NCSZCN8EA787,3KV0LJBBH3OOR6E9D6F0LXWHT2UMR8,BLVK0,BLVK0,3KV0LJBBH3OOR6E9D6F0LXWHT2UMR8,3KV0LJBBH3OOR6E9D6F0LXWHT2UMR8,271100,271100,,,,,,,,,,
,,,,5,2.084,0,2,2,303,1,the beautiful light colored living room has no ceiling vents,the beautiful light colored living room has a ceiling vent above the couch.,wolfe2,039_R_ventilator,2,46,A1NCSZCN8EA787,2021-01-25_09h47.35.362,MetaAwareness,2020.1.2,Win32,60,34R3P23QHT44L4WQV14RS81EEH3HWU,A1NCSZCN8EA787,3KV0LJBBH3OOR6E9D6F0LXWHT2UMR8,BLVK0,BLVK0,3KV0LJBBH3OOR6E9D6F0LXWHT2UMR8,3KV0LJBBH3OOR6E9D6F0LXWHT2UMR8,271100,271100,,,,,,,,,,
,,,,6,1.761,0,3,3,406,1,"a living room containing a sofa, book shelves, and an empty fireplace","a living room containing a sofa, book shelves, and logs in a fireplace",wolfe2,054_R_firewood,3,46,A1NCSZCN8EA787,2021-01-25_09h47.35.362,MetaAwareness,2020.1.2,Win32,60,34R3P23QHT44L4WQV14RS81EEH3HWU,A1NCSZCN8EA787,3KV0LJBBH3OOR6E9D6F0LXWHT2UMR8,BLVK0,BLVK0,3KV0LJBBH3OOR6E9D6F0LXWHT2UMR8,3KV0LJBBH3OOR6E9D6F0LXWHT2UMR8,271100,271100,,,,,,,,,,
,,,,4,0.822,0,4,4,155,1,in a nice workroom with a fireplace there is a computer desk without a keybord for  the computer,in a nice workroom with a fireplace there is a computer desk with a keyboard in front of a computer,wolfe2,021_L_keyboard,1,46,A1NCSZCN8EA787,2021-01-25_09h47.35.362,MetaAwareness,2020.1.2,Win32,60,34R3P23QHT44L4WQV14RS81EEH3HWU,A1NCSZCN8EA787,3KV0LJBBH3OOR6E9D6F0LXWHT2UMR8,BLVK0,BLVK0,3KV0LJBBH3OOR6E9D6F0LXWHT2UMR8,3KV0LJBBH3OOR6E9D6F0LXWHT2UMR8,271100,271100,,,,,,,,,,
,,,,3,0.613,0,5,5,135,1,an airy living room with nothing in the entertainment center shelf,an airy living room with something in the entertainment center shelf,wolfe2,017_R_wood,4,46,A1NCSZCN8EA787,2021-01-25_09h47.35.362,MetaAwareness,2020.1.2,Win32,60,34R3P23QHT44L4WQV14RS81EEH3HWU,A1NCSZCN8EA787,3KV0LJBBH3OOR6E9D6F0LXWHT2UMR8,BLVK0,BLVK0,3KV0LJBBH3OOR6E9D6F0LXWHT2UMR8,3KV0LJBBH3OOR6E9D6F0LXWHT2UMR8,271100,271100,,,,,,,,,,
,,,,4,0.606,0,6,6,482,1,"an uspcale room with large windows, a fireplace, and an empty desk","an upscale room with large windows, a fireplace, and a desk with a single white object on it",wolfe2,063_R_laptop,2,46,A1NCSZCN8EA787,2021-01-25_09h47.35.362,MetaAwareness,2020.1.2,Win32,60,34R3P23QHT44L4WQV14RS81EEH3HWU,A1NCSZCN8EA787,3KV0LJBBH3OOR6E9D6F0LXWHT2UMR8,BLVK0,BLVK0,3KV0LJBBH3OOR6E9D6F0LXWHT2UMR8,3KV0LJBBH3OOR6E9D6F0LXWHT2UMR8,271100,271100,,,,,,,,,,
,,,,5,0.754,0,7,7,824,1,a dressing room at a retailer with 3 unique stalls where at the end there is a clothes rack with 2 white garments on the far left,a dressing room at a retailer with 3 unique stalls where at the end there is a clothes rack with 1 white garment on the far left,wolfe2,107_L_shirts,4,46,A1NCSZCN8EA787,2021-01-25_09h47.35.362,MetaAwareness,2020.1.2,Win32,60,34R3P23QHT44L4WQV14RS81EEH3HWU,A1NCSZCN8EA787,3KV0LJBBH3OOR6E9D6F0LXWHT2UMR8,BLVK0,BLVK0,3KV0LJBBH3OOR6E9D6F0LXWHT2UMR8,3KV0LJBBH3OOR6E9D6F0LXWHT2UMR8,271100,271100,,,,,,,,,,
,,,,1,4.951,0,8,8,231,1,this image is plain and boring.  it needs color and some variety to make it better.,the drawer doesn't really help the plainess of this room.  still needs color or a pop of something.,wolfe2,030_R_drawer,1,46,A1NCSZCN8EA787,2021-01-25_09h47.35.362,MetaAwareness,2020.1.2,Win32,60,34R3P23QHT44L4WQV14RS81EEH3HWU,A1NCSZCN8EA787,3KV0LJBBH3OOR6E9D6F0LXWHT2UMR8,BLVK0,BLVK0,3KV0LJBBH3OOR6E9D6F0LXWHT2UMR8,3KV0LJBBH3OOR6E9D6F0LXWHT2UMR8,271100,271100,,,,,,,,,,
,,,,2,3.642,0,9,9,306,1,a dark wood furniture dining room with 2 pictures hanging about the china cabinet.,a dark wood furniture dining room with three pictures hanging above the china cabinet.,wolfe2,040_L_painting,1,46,A1NCSZCN8EA787,2021-01-25_09h47.35.362,MetaAwareness,2020.1.2,Win32,60,34R3P23QHT44L4WQV14RS81EEH3HWU,A1NCSZCN8EA787,3KV0LJBBH3OOR6E9D6F0LXWHT2UMR8,BLVK0,BLVK0,3KV0LJBBH3OOR6E9D6F0LXWHT2UMR8,3KV0LJBBH3OOR6E9D6F0LXWHT2UMR8,271100,271100,,,,,,,,,,
,,,,1,1.935,0,10,10,22,1,clear sky.,a network pole in the woods,wolfe2,004_L_electricalgrid,1,46,A1NCSZCN8EA787,2021-01-25_09h47.35.362,MetaAwareness,2020.1.2,Win32,60,34R3P23QHT44L4WQV14RS81EEH3HWU,A1NCSZCN8EA787,3KV0LJBBH3OOR6E9D6F0LXWHT2UMR8,BLVK0,BLVK0,3KV0LJBBH3OOR6E9D6F0LXWHT2UMR8,3KV0LJBBH3OOR6E9D6F0LXWHT2UMR8,271100,271100,,,,,,,,,,
,,,,4,2.915,0,11,11,377,1,a bedroom space with a bookshelf that has 5 full shelves,a bedroom space with a bookshelf that has 6 full shelves,wolfe2,050_R_book,3,46,A1NCSZCN8EA787,2021-01-25_09h47.35.362,MetaAwareness,2020.1.2,Win32,60,34R3P23QHT44L4WQV14RS81EEH3HWU,A1NCSZCN8EA787,3KV0LJBBH3OOR6E9D6F0LXWHT2UMR8,BLVK0,BLVK0,3KV0LJBBH3OOR6E9D6F0LXWHT2UMR8,3KV0LJBBH3OOR6E9D6F0LXWHT2UMR8,271100,271100,,,,,,,,,,
,,,,4,3.503,0,12,12,371,1,a red study room with books missing from the second shelf,a red study room with books on all the shelves,wolfe2,050_L_book,1,46,A1NCSZCN8EA787,2021-01-25_09h47.35.362,MetaAwareness,2020.1.2,Win32,60,34R3P23QHT44L4WQV14RS81EEH3HWU,A1NCSZCN8EA787,3KV0LJBBH3OOR6E9D6F0LXWHT2UMR8,BLVK0,BLVK0,3KV0LJBBH3OOR6E9D6F0LXWHT2UMR8,3KV0LJBBH3OOR6E9D6F0LXWHT2UMR8,271100,271100,,,,,,,,,,
,,,,1,2.335,0,13,13,296,1,an empty wallon the yellow space,boards are attached in the wall,wolfe2,038_R_art,1,46,A1NCSZCN8EA787,2021-01-25_09h47.35.362,MetaAwareness,2020.1.2,Win32,60,34R3P23QHT44L4WQV14RS81EEH3HWU,A1NCSZCN8EA787,3KV0LJBBH3OOR6E9D6F0LXWHT2UMR8,BLVK0,BLVK0,3KV0LJBBH3OOR6E9D6F0LXWHT2UMR8,3KV0LJBBH3OOR6E9D6F0LXWHT2UMR8,271100,271100,,,,,,,,,,
,,,,3,2.387,0,14,14,171,1,"rustic outdoor patio area with tv, furniture and fireplace","rustic outdoor patio area with tv, furniture, fireplace and remote for the tv on end table",wolfe2,023_L_remote,1,46,A1NCSZCN8EA787,2021-01-25_09h47.35.362,MetaAwareness,2020.1.2,Win32,60,34R3P23QHT44L4WQV14RS81EEH3HWU,A1NCSZCN8EA787,3KV0LJBBH3OOR6E9D6F0LXWHT2UMR8,BLVK0,BLVK0,3KV0LJBBH3OOR6E9D6F0LXWHT2UMR8,3KV0LJBBH3OOR6E9D6F0LXWHT2UMR8,271100,271100,,,,,,,,,,
,,,,2,1.602,0,15,15,589,1,"a modern kitchen with 4 stools, 3 of which have foot rests",a modern kitchen with 4 stools and all have their foot rest,wolfe2,077_L_footrest,3,46,A1NCSZCN8EA787,2021-01-25_09h47.35.362,MetaAwareness,2020.1.2,Win32,60,34R3P23QHT44L4WQV14RS81EEH3HWU,A1NCSZCN8EA787,3KV0LJBBH3OOR6E9D6F0LXWHT2UMR8,BLVK0,BLVK0,3KV0LJBBH3OOR6E9D6F0LXWHT2UMR8,3KV0LJBBH3OOR6E9D6F0LXWHT2UMR8,271100,271100,,,,,,,,,,
,,,,3,2.304,0,16,16,605,1,in this bathroom there is a vanity with an assortment of soaps but one is missing.,in this bathroom there is a vanity with a well balanced assortment of soaps.,wolfe2,078_R_faucet,5,46,A1NCSZCN8EA787,2021-01-25_09h47.35.362,MetaAwareness,2020.1.2,Win32,60,34R3P23QHT44L4WQV14RS81EEH3HWU,A1NCSZCN8EA787,3KV0LJBBH3OOR6E9D6F0LXWHT2UMR8,BLVK0,BLVK0,3KV0LJBBH3OOR6E9D6F0LXWHT2UMR8,3KV0LJBBH3OOR6E9D6F0LXWHT2UMR8,271100,271100,,,,,,,,,,
,,,,5,2.679,0,17,17,758,1,a modern dining room with a three candlesticks hanging off the wall,a modern dining room with two candlesticks hanging off the wall,wolfe2,099_R_sconce,1,46,A1NCSZCN8EA787,2021-01-25_09h47.35.362,MetaAwareness,2020.1.2,Win32,60,34R3P23QHT44L4WQV14RS81EEH3HWU,A1NCSZCN8EA787,3KV0LJBBH3OOR6E9D6F0LXWHT2UMR8,BLVK0,BLVK0,3KV0LJBBH3OOR6E9D6F0LXWHT2UMR8,3KV0LJBBH3OOR6E9D6F0LXWHT2UMR8,271100,271100,,,,,,,,,,
,,,,6,3.479,0,18,18,570,1,a living room with no book on the coffee table,a living room with a book on the coffee table,wolfe2,074_R_book,5,46,A1NCSZCN8EA787,2021-01-25_09h47.35.362,MetaAwareness,2020.1.2,Win32,60,34R3P23QHT44L4WQV14RS81EEH3HWU,A1NCSZCN8EA787,3KV0LJBBH3OOR6E9D6F0LXWHT2UMR8,BLVK0,BLVK0,3KV0LJBBH3OOR6E9D6F0LXWHT2UMR8,3KV0LJBBH3OOR6E9D6F0LXWHT2UMR8,271100,271100,,,,,,,,,,
,,,,5,2.572,0,19,19,876,1,a modern looking home with 2 trinkets sitting on the table,a modern looking home with 1 trinket sitting on the table,wolfe2,114_R_bird,1,46,A1NCSZCN8EA787,2021-01-25_09h47.35.362,MetaAwareness,2020.1.2,Win32,60,34R3P23QHT44L4WQV14RS81EEH3HWU,A1NCSZCN8EA787,3KV0LJBBH3OOR6E9D6F0LXWHT2UMR8,BLVK0,BLVK0,3KV0LJBBH3OOR6E9D6F0LXWHT2UMR8,3KV0LJBBH3OOR6E9D6F0LXWHT2UMR8,271100,271100,,,,,,,,,,
,,,,5,3.237,0,20,20,519,1,a lavish bathroom with two faucets,a lavish bathroom with 3 faucets,wolfe2,068_L_faucet,4,46,A1NCSZCN8EA787,2021-01-25_09h47.35.362,MetaAwareness,2020.1.2,Win32,60,34R3P23QHT44L4WQV14RS81EEH3HWU,A1NCSZCN8EA787,3KV0LJBBH3OOR6E9D6F0LXWHT2UMR8,BLVK0,BLVK0,3KV0LJBBH3OOR6E9D6F0LXWHT2UMR8,3KV0LJBBH3OOR6E9D6F0LXWHT2UMR8,271100,271100,,,,,,,,,,
,,,,4,1.844,0,21,21,276,1,wood sofa table in bedroom with browns and blues,wood sofa table with decoration on it in bedroom with browns and blues,wolfe2,035_R_fruit,2,46,A1NCSZCN8EA787,2021-01-25_09h47.35.362,MetaAwareness,2020.1.2,Win32,60,34R3P23QHT44L4WQV14RS81EEH3HWU,A1NCSZCN8EA787,3KV0LJBBH3OOR6E9D6F0LXWHT2UMR8,BLVK0,BLVK0,3KV0LJBBH3OOR6E9D6F0LXWHT2UMR8,3KV0LJBBH3OOR6E9D6F0LXWHT2UMR8,271100,271100,,,,,,,,,,
,,,,3,2.937,0,22,22,604,1,there is no water handle,a water handle is installed,wolfe2,078_R_faucet,4,46,A1NCSZCN8EA787,2021-01-25_09h47.35.362,MetaAwareness,2020.1.2,Win32,60,34R3P23QHT44L4WQV14RS81EEH3HWU,A1NCSZCN8EA787,3KV0LJBBH3OOR6E9D6F0LXWHT2UMR8,BLVK0,BLVK0,3KV0LJBBH3OOR6E9D6F0LXWHT2UMR8,3KV0LJBBH3OOR6E9D6F0LXWHT2UMR8,271100,271100,,,,,,,,,,
,,,,4,4.869,0,23,23,83,1,a cluttered bathroom with white tiles that has a double sink with a pink soap bottle by the left sink.,a cluttered bathroom with white tiles that has a double sink with a pink soap bottle by the left sink and a brown soap bottle by the right sink.,wolfe2,011_R_parfum,1,46,A1NCSZCN8EA787,2021-01-25_09h47.35.362,MetaAwareness,2020.1.2,Win32,60,34R3P23QHT44L4WQV14RS81EEH3HWU,A1NCSZCN8EA787,3KV0LJBBH3OOR6E9D6F0LXWHT2UMR8,BLVK0,BLVK0,3KV0LJBBH3OOR6E9D6F0LXWHT2UMR8,3KV0LJBBH3OOR6E9D6F0LXWHT2UMR8,271100,271100,,,,,,,,,,
,,,,4,2.528,0,24,24,334,1,a bathroom with a tub connected to the shower and a light on the wall of the tub,a bathroom with a tub connected to the shower and two lights on the wall of the tub.,wolfe2,044_L_light,2,46,A1NCSZCN8EA787,2021-01-25_09h47.35.362,MetaAwareness,2020.1.2,Win32,60,34R3P23QHT44L4WQV14RS81EEH3HWU,A1NCSZCN8EA787,3KV0LJBBH3OOR6E9D6F0LXWHT2UMR8,BLVK0,BLVK0,3KV0LJBBH3OOR6E9D6F0LXWHT2UMR8,3KV0LJBBH3OOR6E9D6F0LXWHT2UMR8,271100,271100,,,,,,,,,,
,,,,3,1.593,0,25,25,453,1,a modern living room with a big couch with a grey pillow on the end of it,a modern living room with a big couch with a grey pillow and a black pillow on the end of it,wolfe2,060_R_pillow,2,46,A1NCSZCN8EA787,2021-01-25_09h47.35.362,MetaAwareness,2020.1.2,Win32,60,34R3P23QHT44L4WQV14RS81EEH3HWU,A1NCSZCN8EA787,3KV0LJBBH3OOR6E9D6F0LXWHT2UMR8,BLVK0,BLVK0,3KV0LJBBH3OOR6E9D6F0LXWHT2UMR8,3KV0LJBBH3OOR6E9D6F0LXWHT2UMR8,271100,271100,,,,,,,,,,
,,,,5,3.959,0,26,26,744,1,a bedroom without a light on the wall,a bedroom with nothing on the wall,wolfe2,097_R_light,3,46,A1NCSZCN8EA787,2021-01-25_09h47.35.362,MetaAwareness,2020.1.2,Win32,60,34R3P23QHT44L4WQV14RS81EEH3HWU,A1NCSZCN8EA787,3KV0LJBBH3OOR6E9D6F0LXWHT2UMR8,BLVK0,BLVK0,3KV0LJBBH3OOR6E9D6F0LXWHT2UMR8,3KV0LJBBH3OOR6E9D6F0LXWHT2UMR8,271100,271100,,,,,,,,,,
,,,,5,2.843,0,27,27,192,1,a modern looking beach house living room with 1 beige long decoration on the shelf behind the couch.,a modern looking beach house living room with 2 beige long decorations on the shelf behind the couch.,wolfe2,025_R_vase,1,46,A1NCSZCN8EA787,2021-01-25_09h47.35.362,MetaAwareness,2020.1.2,Win32,60,34R3P23QHT44L4WQV14RS81EEH3HWU,A1NCSZCN8EA787,3KV0LJBBH3OOR6E9D6F0LXWHT2UMR8,BLVK0,BLVK0,3KV0LJBBH3OOR6E9D6F0LXWHT2UMR8,3KV0LJBBH3OOR6E9D6F0LXWHT2UMR8,271100,271100,,,,,,,,,,
,,,,4,1.991,0,28,28,686,1,this appears to be ready and waiting for clients.  the photo provides some much needed color to the area.,"the bare wall needs a little splash of color.  otherwise, it is ready for clients.",wolfe2,089_R_poster,2,46,A1NCSZCN8EA787,2021-01-25_09h47.35.362,MetaAwareness,2020.1.2,Win32,60,34R3P23QHT44L4WQV14RS81EEH3HWU,A1NCSZCN8EA787,3KV0LJBBH3OOR6E9D6F0LXWHT2UMR8,BLVK0,BLVK0,3KV0LJBBH3OOR6E9D6F0LXWHT2UMR8,3KV0LJBBH3OOR6E9D6F0LXWHT2UMR8,271100,271100,,,,,,,,,,
,,,,3,1.573,0,29,29,264,1,a bedroom with a white chest of drawers that's missing a handle on the last drawer.,a bedroom with a white chest of drawers and all three drawers have handles.,wolfe2,034_R_handle,1,46,A1NCSZCN8EA787,2021-01-25_09h47.35.362,MetaAwareness,2020.1.2,Win32,60,34R3P23QHT44L4WQV14RS81EEH3HWU,A1NCSZCN8EA787,3KV0LJBBH3OOR6E9D6F0LXWHT2UMR8,BLVK0,BLVK0,3KV0LJBBH3OOR6E9D6F0LXWHT2UMR8,3KV0LJBBH3OOR6E9D6F0LXWHT2UMR8,271100,271100,,,,,,,,,,
,,,,,,,,,,,,,,,,46,A1NCSZCN8EA787,2021-01-25_09h47.35.362,MetaAwareness,2020.1.2,Win32,60,34R3P23QHT44L4WQV14RS81EEH3HWU,A1NCSZCN8EA787,3KV0LJBBH3OOR6E9D6F0LXWHT2UMR8,BLVK0,BLVK0,3KV0LJBBH3OOR6E9D6F0LXWHT2UMR8,3KV0LJBBH3OOR6E9D6F0LXWHT2UMR8,271100,271100,6,3.46,someone laying underneath a blue beach umbrella on a crowded beach,someone laying underneath a blue beach umbrella on a crowded beach,same,2,2.01,members of a marching band crossing a track that all have feather plumes at the front of their hats,a cluttered and rustic looking cafe with 10 hanging lights,different
