consent_response.keys,consent_response.rt,key_resp_2.keys,key_resp_2.rt,user_resp.keys,user_resp.rt,trials.thisRepN,trials.thisTrialN,trials.thisN,trials.thisIndex,trials.ran,image_1_text,image_2_text,database,image,number,age,worker_ID,date,expName,psychopyVersion,OS,frameRate,hitId,workerId,assignmentId,a,tp_a,b,tp_b,c,tp_c,catch_same_resp.keys,catch_same_resp.rt,image_1_text_catch_same,image_2_text_catch_same,image_catch_same,catch_different_resp.keys,catch_different_resp.rt,image_1_text_catch_different,image_2_text_catch_different,image_catch_different
space,16.558735,space,5.868715,6,13.641285,0,0,0,56,1,a blue bathroom. there is a mirror in the center with a sink below it. there is a window to the left of the mirror with a shade drawn on it with a bottle with a spray bottle with a red cap on it.,a blue bathroom. there is a mirror in the center with a sink below it. there is a window to the left of the mirror with a shade drawn on it with a spray bottle with a red cape with a smaller bottle next to it.,wolfe2,008_L_bottle,2,64,A1QJ2VPPZG16EG,2021-01-25_09h34.46.907,MetaAwareness,2020.1.2,Win32,60,3VLL1PIENRRI7GNIA1JOBLSX75PZOU,A1QJ2VPPZG16EG,3ZGVPD4G6UK16SQKWKAPTET8WSMZTU,GPGZ0,GPGZ0,3ZGVPD4G6UK16SQKWKAPTET8WSMZTU,3ZGVPD4G6UK16SQKWKAPTET8WSMZTU,271100,271100,,,,,,,,,,
,,,,5,9.41998,0,1,1,377,1,a bedroom space with a bookshelf that has 5 full shelves,a bedroom space with a bookshelf that has 6 full shelves,wolfe2,050_R_book,3,64,A1QJ2VPPZG16EG,2021-01-25_09h34.46.907,MetaAwareness,2020.1.2,Win32,60,3VLL1PIENRRI7GNIA1JOBLSX75PZOU,A1QJ2VPPZG16EG,3ZGVPD4G6UK16SQKWKAPTET8WSMZTU,GPGZ0,GPGZ0,3ZGVPD4G6UK16SQKWKAPTET8WSMZTU,3ZGVPD4G6UK16SQKWKAPTET8WSMZTU,271100,271100,,,,,,,,,,
,,,,6,11.498395,0,2,2,445,1,a very modern and fun looking child's bedroom that has an armoir with nothing on top of it,a very modern and fun looking child's bedroom that has an armoir with a model car on top of it,wolfe2,059_R_car,1,64,A1QJ2VPPZG16EG,2021-01-25_09h34.46.907,MetaAwareness,2020.1.2,Win32,60,3VLL1PIENRRI7GNIA1JOBLSX75PZOU,A1QJ2VPPZG16EG,3ZGVPD4G6UK16SQKWKAPTET8WSMZTU,GPGZ0,GPGZ0,3ZGVPD4G6UK16SQKWKAPTET8WSMZTU,3ZGVPD4G6UK16SQKWKAPTET8WSMZTU,271100,271100,,,,,,,,,,
,,,,1,12.702215,0,3,3,237,1,i love the room and thereis some things us missing,i love the room and there is nothing is different,wolfe2,031_L_log,3,64,A1QJ2VPPZG16EG,2021-01-25_09h34.46.907,MetaAwareness,2020.1.2,Win32,60,3VLL1PIENRRI7GNIA1JOBLSX75PZOU,A1QJ2VPPZG16EG,3ZGVPD4G6UK16SQKWKAPTET8WSMZTU,GPGZ0,GPGZ0,3ZGVPD4G6UK16SQKWKAPTET8WSMZTU,3ZGVPD4G6UK16SQKWKAPTET8WSMZTU,271100,271100,,,,,,,,,,
,,,,5,14.442745,0,4,4,404,1,a fresh and modern architectural living room with a bookshelf covering the wall and an empty fireplace,a fresh and modern architectural living room with a bookshelf covering the wall  and fireplace with logs in them,wolfe2,054_L_firewood,4,64,A1QJ2VPPZG16EG,2021-01-25_09h34.46.907,MetaAwareness,2020.1.2,Win32,60,3VLL1PIENRRI7GNIA1JOBLSX75PZOU,A1QJ2VPPZG16EG,3ZGVPD4G6UK16SQKWKAPTET8WSMZTU,GPGZ0,GPGZ0,3ZGVPD4G6UK16SQKWKAPTET8WSMZTU,3ZGVPD4G6UK16SQKWKAPTET8WSMZTU,271100,271100,,,,,,,,,,
,,,,1,12.18572,0,5,5,956,1,a lovely room with an enticing view of nature.  a small piece of art is sitting on the floor.,"the view is not distracted by anything.  there is a small corner of the carpet but otherwise, the view is very appealing.",wolfe2,124_R_vase,2,64,A1QJ2VPPZG16EG,2021-01-25_09h34.46.907,MetaAwareness,2020.1.2,Win32,60,3VLL1PIENRRI7GNIA1JOBLSX75PZOU,A1QJ2VPPZG16EG,3ZGVPD4G6UK16SQKWKAPTET8WSMZTU,GPGZ0,GPGZ0,3ZGVPD4G6UK16SQKWKAPTET8WSMZTU,3ZGVPD4G6UK16SQKWKAPTET8WSMZTU,271100,271100,,,,,,,,,,
,,,,5,9.93302,0,6,6,38,1,a clean and well kept master bedroom that has a night stand with a lamp on it.,a clean and well kept master bedroom that has a night stand with a lamp and vase on it,wolfe2,006_L_vase,1,64,A1QJ2VPPZG16EG,2021-01-25_09h34.46.907,MetaAwareness,2020.1.2,Win32,60,3VLL1PIENRRI7GNIA1JOBLSX75PZOU,A1QJ2VPPZG16EG,3ZGVPD4G6UK16SQKWKAPTET8WSMZTU,GPGZ0,GPGZ0,3ZGVPD4G6UK16SQKWKAPTET8WSMZTU,3ZGVPD4G6UK16SQKWKAPTET8WSMZTU,271100,271100,,,,,,,,,,
,,,,5,16.482775,0,7,7,282,1,a clean looking kitchen with  four mugs and one bowl on shelf under cabinets to left of stove,a clean looking kitchen with four mugs and two bowls on shelf under cabinets to left of stove,wolfe2,036_R_bowl,2,64,A1QJ2VPPZG16EG,2021-01-25_09h34.46.907,MetaAwareness,2020.1.2,Win32,60,3VLL1PIENRRI7GNIA1JOBLSX75PZOU,A1QJ2VPPZG16EG,3ZGVPD4G6UK16SQKWKAPTET8WSMZTU,GPGZ0,GPGZ0,3ZGVPD4G6UK16SQKWKAPTET8WSMZTU,3ZGVPD4G6UK16SQKWKAPTET8WSMZTU,271100,271100,,,,,,,,,,
,,,,5,7.682515,0,8,8,426,1,a living room with a brown rug and a white couch,a living room with a brown rug and a white couch with a blanket on it,wolfe2,056_R_comforter,5,64,A1QJ2VPPZG16EG,2021-01-25_09h34.46.907,MetaAwareness,2020.1.2,Win32,60,3VLL1PIENRRI7GNIA1JOBLSX75PZOU,A1QJ2VPPZG16EG,3ZGVPD4G6UK16SQKWKAPTET8WSMZTU,GPGZ0,GPGZ0,3ZGVPD4G6UK16SQKWKAPTET8WSMZTU,3ZGVPD4G6UK16SQKWKAPTET8WSMZTU,271100,271100,,,,,,,,,,
,,,,5,24.314355,0,9,9,898,1,a room with double glass doors and windows down one side with a house plant sitting on a small table just inside the door.,a room with double glass doors and windows down one side with a small table just inside the door,wolfe2,117_L_plant_sized,4,64,A1QJ2VPPZG16EG,2021-01-25_09h34.46.907,MetaAwareness,2020.1.2,Win32,60,3VLL1PIENRRI7GNIA1JOBLSX75PZOU,A1QJ2VPPZG16EG,3ZGVPD4G6UK16SQKWKAPTET8WSMZTU,GPGZ0,GPGZ0,3ZGVPD4G6UK16SQKWKAPTET8WSMZTU,3ZGVPD4G6UK16SQKWKAPTET8WSMZTU,271100,271100,,,,,,,,,,
,,,,4,6.253125,0,10,10,475,1,there is an empty fireplace in the small living room,there is something inside the fireplace in the small living room,wolfe2,062_R_flowers,5,64,A1QJ2VPPZG16EG,2021-01-25_09h34.46.907,MetaAwareness,2020.1.2,Win32,60,3VLL1PIENRRI7GNIA1JOBLSX75PZOU,A1QJ2VPPZG16EG,3ZGVPD4G6UK16SQKWKAPTET8WSMZTU,GPGZ0,GPGZ0,3ZGVPD4G6UK16SQKWKAPTET8WSMZTU,3ZGVPD4G6UK16SQKWKAPTET8WSMZTU,271100,271100,,,,,,,,,,
,,,,5,8.09971,0,11,11,57,1,a blue bathroom that has a bottle resting on the window sill,a blue bathroom that has two bottles resting on the window sill,wolfe2,008_L_bottle,3,64,A1QJ2VPPZG16EG,2021-01-25_09h34.46.907,MetaAwareness,2020.1.2,Win32,60,3VLL1PIENRRI7GNIA1JOBLSX75PZOU,A1QJ2VPPZG16EG,3ZGVPD4G6UK16SQKWKAPTET8WSMZTU,GPGZ0,GPGZ0,3ZGVPD4G6UK16SQKWKAPTET8WSMZTU,3ZGVPD4G6UK16SQKWKAPTET8WSMZTU,271100,271100,,,,,,,,,,
,,,,5,32.36728,0,12,12,458,1,"a dining room that is decorated with flowers, a chandelier, and place settings with a wine glass and coffee mug","a dining room that is decorated with flowers, a chandelier, and place settings, one of which contains two wine glasses",wolfe2,061_L_glass,3,64,A1QJ2VPPZG16EG,2021-01-25_09h34.46.907,MetaAwareness,2020.1.2,Win32,60,3VLL1PIENRRI7GNIA1JOBLSX75PZOU,A1QJ2VPPZG16EG,3ZGVPD4G6UK16SQKWKAPTET8WSMZTU,GPGZ0,GPGZ0,3ZGVPD4G6UK16SQKWKAPTET8WSMZTU,3ZGVPD4G6UK16SQKWKAPTET8WSMZTU,271100,271100,,,,,,,,,,
,,,,5,13.670545,0,13,13,453,1,a modern living room with a big couch with a grey pillow on the end of it,a modern living room with a big couch with a grey pillow and a black pillow on the end of it,wolfe2,060_R_pillow,2,64,A1QJ2VPPZG16EG,2021-01-25_09h34.46.907,MetaAwareness,2020.1.2,Win32,60,3VLL1PIENRRI7GNIA1JOBLSX75PZOU,A1QJ2VPPZG16EG,3ZGVPD4G6UK16SQKWKAPTET8WSMZTU,GPGZ0,GPGZ0,3ZGVPD4G6UK16SQKWKAPTET8WSMZTU,3ZGVPD4G6UK16SQKWKAPTET8WSMZTU,271100,271100,,,,,,,,,,
,,,,4,20.517785,0,14,14,128,1,a very contemporary living room with a flat screen tv against the wall.,a very contmporary living room with a flat screen tv against the wall that is a newer movel.,wolfe2,017_L_wood,1,64,A1QJ2VPPZG16EG,2021-01-25_09h34.46.907,MetaAwareness,2020.1.2,Win32,60,3VLL1PIENRRI7GNIA1JOBLSX75PZOU,A1QJ2VPPZG16EG,3ZGVPD4G6UK16SQKWKAPTET8WSMZTU,GPGZ0,GPGZ0,3ZGVPD4G6UK16SQKWKAPTET8WSMZTU,3ZGVPD4G6UK16SQKWKAPTET8WSMZTU,271100,271100,,,,,,,,,,
,,,,5,20.90014,0,15,15,797,1,there is an object sitting atop a table in this small cafe,there is a table and chairs in this small cafe,wolfe2,104_R_bottle,2,64,A1QJ2VPPZG16EG,2021-01-25_09h34.46.907,MetaAwareness,2020.1.2,Win32,60,3VLL1PIENRRI7GNIA1JOBLSX75PZOU,A1QJ2VPPZG16EG,3ZGVPD4G6UK16SQKWKAPTET8WSMZTU,GPGZ0,GPGZ0,3ZGVPD4G6UK16SQKWKAPTET8WSMZTU,3ZGVPD4G6UK16SQKWKAPTET8WSMZTU,271100,271100,,,,,,,,,,
,,,,4,6.868005,0,16,16,719,1,two beds next to each other with a golden tag in between.,two beds next to each other.,wolfe2,093_L_switch,8,64,A1QJ2VPPZG16EG,2021-01-25_09h34.46.907,MetaAwareness,2020.1.2,Win32,60,3VLL1PIENRRI7GNIA1JOBLSX75PZOU,A1QJ2VPPZG16EG,3ZGVPD4G6UK16SQKWKAPTET8WSMZTU,GPGZ0,GPGZ0,3ZGVPD4G6UK16SQKWKAPTET8WSMZTU,3ZGVPD4G6UK16SQKWKAPTET8WSMZTU,271100,271100,,,,,,,,,,
,,,,5,6.27391,0,17,17,937,1,a green cafe with 13 chairs at tables in it,a green cafe with 12 chairs at tables in it,wolfe2,122_L_chair,3,64,A1QJ2VPPZG16EG,2021-01-25_09h34.46.907,MetaAwareness,2020.1.2,Win32,60,3VLL1PIENRRI7GNIA1JOBLSX75PZOU,A1QJ2VPPZG16EG,3ZGVPD4G6UK16SQKWKAPTET8WSMZTU,GPGZ0,GPGZ0,3ZGVPD4G6UK16SQKWKAPTET8WSMZTU,3ZGVPD4G6UK16SQKWKAPTET8WSMZTU,271100,271100,,,,,,,,,,
,,,,5,7.3348,0,18,18,391,1,a furnished living room with mounted tv and speakers,"a furnished living room with mounted tv, speakers, and a sound bar",wolfe2,052_R_speaker,2,64,A1QJ2VPPZG16EG,2021-01-25_09h34.46.907,MetaAwareness,2020.1.2,Win32,60,3VLL1PIENRRI7GNIA1JOBLSX75PZOU,A1QJ2VPPZG16EG,3ZGVPD4G6UK16SQKWKAPTET8WSMZTU,GPGZ0,GPGZ0,3ZGVPD4G6UK16SQKWKAPTET8WSMZTU,3ZGVPD4G6UK16SQKWKAPTET8WSMZTU,271100,271100,,,,,,,,,,
,,,,4,10.58323,0,19,19,601,1,a fancy home bathroom with one know for turning on water.,a fancy home bathroom with two knobs for turning on water.,wolfe2,078_L_faucet,5,64,A1QJ2VPPZG16EG,2021-01-25_09h34.46.907,MetaAwareness,2020.1.2,Win32,60,3VLL1PIENRRI7GNIA1JOBLSX75PZOU,A1QJ2VPPZG16EG,3ZGVPD4G6UK16SQKWKAPTET8WSMZTU,GPGZ0,GPGZ0,3ZGVPD4G6UK16SQKWKAPTET8WSMZTU,3ZGVPD4G6UK16SQKWKAPTET8WSMZTU,271100,271100,,,,,,,,,,
,,,,5,15.76624,0,20,20,413,1,"a studio apartment or dorm room furnished in red, with small rugs in red and black","a studio apartment or dorm room furnished in red, with small rugs in blue, red, and black",wolfe2,055_R_carpet,3,64,A1QJ2VPPZG16EG,2021-01-25_09h34.46.907,MetaAwareness,2020.1.2,Win32,60,3VLL1PIENRRI7GNIA1JOBLSX75PZOU,A1QJ2VPPZG16EG,3ZGVPD4G6UK16SQKWKAPTET8WSMZTU,GPGZ0,GPGZ0,3ZGVPD4G6UK16SQKWKAPTET8WSMZTU,3ZGVPD4G6UK16SQKWKAPTET8WSMZTU,271100,271100,,,,,,,,,,
,,,,6,7.65655,0,21,21,403,1,a living room with a bookcase and no logs in the fireplace,a living room with a bookcase and logs in the fireplace,wolfe2,054_L_firewood,2,64,A1QJ2VPPZG16EG,2021-01-25_09h34.46.907,MetaAwareness,2020.1.2,Win32,60,3VLL1PIENRRI7GNIA1JOBLSX75PZOU,A1QJ2VPPZG16EG,3ZGVPD4G6UK16SQKWKAPTET8WSMZTU,GPGZ0,GPGZ0,3ZGVPD4G6UK16SQKWKAPTET8WSMZTU,3ZGVPD4G6UK16SQKWKAPTET8WSMZTU,271100,271100,,,,,,,,,,
,,,,3,10.535065,0,22,22,316,1,there is nothing item in the bowl,fruits are filled in the bowl,wolfe2,041_R_fruit,1,64,A1QJ2VPPZG16EG,2021-01-25_09h34.46.907,MetaAwareness,2020.1.2,Win32,60,3VLL1PIENRRI7GNIA1JOBLSX75PZOU,A1QJ2VPPZG16EG,3ZGVPD4G6UK16SQKWKAPTET8WSMZTU,GPGZ0,GPGZ0,3ZGVPD4G6UK16SQKWKAPTET8WSMZTU,3ZGVPD4G6UK16SQKWKAPTET8WSMZTU,271100,271100,,,,,,,,,,
,,,,1,7.474625,0,23,23,818,1,a changing room has a combination of tile and carpet on the floor.,a paper towl dispensor has been removed from the changing room.,wolfe2,106_R_toweldispenser,4,64,A1QJ2VPPZG16EG,2021-01-25_09h34.46.907,MetaAwareness,2020.1.2,Win32,60,3VLL1PIENRRI7GNIA1JOBLSX75PZOU,A1QJ2VPPZG16EG,3ZGVPD4G6UK16SQKWKAPTET8WSMZTU,GPGZ0,GPGZ0,3ZGVPD4G6UK16SQKWKAPTET8WSMZTU,3ZGVPD4G6UK16SQKWKAPTET8WSMZTU,271100,271100,,,,,,,,,,
,,,,5,13.98162,0,24,24,376,1,a room with a couch and a bookcase with five full shelves,a room with a couch and a bookcase with six full shelves,wolfe2,050_R_book,2,64,A1QJ2VPPZG16EG,2021-01-25_09h34.46.907,MetaAwareness,2020.1.2,Win32,60,3VLL1PIENRRI7GNIA1JOBLSX75PZOU,A1QJ2VPPZG16EG,3ZGVPD4G6UK16SQKWKAPTET8WSMZTU,GPGZ0,GPGZ0,3ZGVPD4G6UK16SQKWKAPTET8WSMZTU,3ZGVPD4G6UK16SQKWKAPTET8WSMZTU,271100,271100,,,,,,,,,,
,,,,5,11.98489,0,25,25,959,1,a black and white modern living room with a brown basket on the ground,a black and white modern living room with no baskets on the ground,wolfe2,125_L_sofa,1,64,A1QJ2VPPZG16EG,2021-01-25_09h34.46.907,MetaAwareness,2020.1.2,Win32,60,3VLL1PIENRRI7GNIA1JOBLSX75PZOU,A1QJ2VPPZG16EG,3ZGVPD4G6UK16SQKWKAPTET8WSMZTU,GPGZ0,GPGZ0,3ZGVPD4G6UK16SQKWKAPTET8WSMZTU,3ZGVPD4G6UK16SQKWKAPTET8WSMZTU,271100,271100,,,,,,,,,,
,,,,1,104.432205,0,26,26,686,1,this appears to be ready and waiting for clients.  the photo provides some much needed color to the area.,"the bare wall needs a little splash of color.  otherwise, it is ready for clients.",wolfe2,089_R_poster,2,64,A1QJ2VPPZG16EG,2021-01-25_09h34.46.907,MetaAwareness,2020.1.2,Win32,60,3VLL1PIENRRI7GNIA1JOBLSX75PZOU,A1QJ2VPPZG16EG,3ZGVPD4G6UK16SQKWKAPTET8WSMZTU,GPGZ0,GPGZ0,3ZGVPD4G6UK16SQKWKAPTET8WSMZTU,3ZGVPD4G6UK16SQKWKAPTET8WSMZTU,271100,271100,,,,,,,,,,
,,,,5,5.934975,0,27,27,287,1,a white bathroom with a brown shelf that has 5 rolled up towels,a white bathroom with a brown shelf that has 6 rolled up towels on it,wolfe2,037_L_towel,3,64,A1QJ2VPPZG16EG,2021-01-25_09h34.46.907,MetaAwareness,2020.1.2,Win32,60,3VLL1PIENRRI7GNIA1JOBLSX75PZOU,A1QJ2VPPZG16EG,3ZGVPD4G6UK16SQKWKAPTET8WSMZTU,GPGZ0,GPGZ0,3ZGVPD4G6UK16SQKWKAPTET8WSMZTU,3ZGVPD4G6UK16SQKWKAPTET8WSMZTU,271100,271100,,,,,,,,,,
,,,,4,6.162855,0,28,28,988,1,an office area with a book shelf and desk.  the desk has a lamp on the left side.,an office area with a book shelf and desk.,wolfe2,128_R_pot,2,64,A1QJ2VPPZG16EG,2021-01-25_09h34.46.907,MetaAwareness,2020.1.2,Win32,60,3VLL1PIENRRI7GNIA1JOBLSX75PZOU,A1QJ2VPPZG16EG,3ZGVPD4G6UK16SQKWKAPTET8WSMZTU,GPGZ0,GPGZ0,3ZGVPD4G6UK16SQKWKAPTET8WSMZTU,3ZGVPD4G6UK16SQKWKAPTET8WSMZTU,271100,271100,,,,,,,,,,
,,,,5,6.996745,0,29,29,590,1,"kitchen with three lights, and 4 stools at the counter","kitchen with three lights, and 4 stools at the counter and one missing foot rest",wolfe2,077_L_footrest,4,64,A1QJ2VPPZG16EG,2021-01-25_09h34.46.907,MetaAwareness,2020.1.2,Win32,60,3VLL1PIENRRI7GNIA1JOBLSX75PZOU,A1QJ2VPPZG16EG,3ZGVPD4G6UK16SQKWKAPTET8WSMZTU,GPGZ0,GPGZ0,3ZGVPD4G6UK16SQKWKAPTET8WSMZTU,3ZGVPD4G6UK16SQKWKAPTET8WSMZTU,271100,271100,,,,,,,,,,
,,,,,,,,,,,,,,,,64,A1QJ2VPPZG16EG,2021-01-25_09h34.46.907,MetaAwareness,2020.1.2,Win32,60,3VLL1PIENRRI7GNIA1JOBLSX75PZOU,A1QJ2VPPZG16EG,3ZGVPD4G6UK16SQKWKAPTET8WSMZTU,GPGZ0,GPGZ0,3ZGVPD4G6UK16SQKWKAPTET8WSMZTU,3ZGVPD4G6UK16SQKWKAPTET8WSMZTU,271100,271100,6,6.017455,someone laying underneath a blue beach umbrella on a crowded beach,someone laying underneath a blue beach umbrella on a crowded beach,same,1,4.893355,members of a marching band crossing a track that all have feather plumes at the front of their hats,a cluttered and rustic looking cafe with 10 hanging lights,different