consent_response.keys,consent_response.rt,key_resp_2.keys,key_resp_2.rt,user_resp.keys,user_resp.rt,trials.thisRepN,trials.thisTrialN,trials.thisN,trials.thisIndex,trials.ran,image_1_text,image_2_text,database,image,number,age,worker_ID,date,expName,psychopyVersion,OS,frameRate,hitId,workerId,assignmentId,a,tp_a,b,tp_b,c,tp_c,catch_same_resp.keys,catch_same_resp.rt,image_1_text_catch_same,image_2_text_catch_same,image_catch_same,catch_different_resp.keys,catch_different_resp.rt,image_1_text_catch_different,image_2_text_catch_different,image_catch_different
space,24.94432,space,28.19034,3,15.87534,0,0,0,214,1,a modern bathroom with white brick walls,a modern bathroom with gray cube decorations on a black counter,wolfe2,028_L_vase,2,42,A1TGV7LT6LTIQU,2021-01-25_08h32.18.267,MetaAwareness,2020.1.2,Win32,60,3VLL1PIENRRI7GNIA1JOBLSX75PZOU,A1TGV7LT6LTIQU,308XBLVESJ7S8FACMHPR7HLNH43BRN,EB800,EB800,308XBLVESJ7S8FACMHPR7HLNH43BRN,308XBLVESJ7S8FACMHPR7HLNH43BRN,271100,271100,,,,,,,,,,
,,,,5,17.71061,0,1,1,594,1,"a clean and modern kitchen with 4 stool chairs, one stool missing a foot rest",a clean and modern kitchen with 4 stool chairs that all have foot rests,wolfe2,077_R_footrest,2,42,A1TGV7LT6LTIQU,2021-01-25_08h32.18.267,MetaAwareness,2020.1.2,Win32,60,3VLL1PIENRRI7GNIA1JOBLSX75PZOU,A1TGV7LT6LTIQU,308XBLVESJ7S8FACMHPR7HLNH43BRN,EB800,EB800,308XBLVESJ7S8FACMHPR7HLNH43BRN,308XBLVESJ7S8FACMHPR7HLNH43BRN,271100,271100,,,,,,,,,,
,,,,5,16.434925,0,2,2,328,1,a living room with sofas and wooden tables next to an entertainment center with a bookcase,a living room with sofas and wooden tables next to an entertainment center with a bookcase holding a clock,wolfe2,043_L_clock,4,42,A1TGV7LT6LTIQU,2021-01-25_08h32.18.267,MetaAwareness,2020.1.2,Win32,60,3VLL1PIENRRI7GNIA1JOBLSX75PZOU,A1TGV7LT6LTIQU,308XBLVESJ7S8FACMHPR7HLNH43BRN,EB800,EB800,308XBLVESJ7S8FACMHPR7HLNH43BRN,308XBLVESJ7S8FACMHPR7HLNH43BRN,271100,271100,,,,,,,,,,
,,,,5,13.23687,0,3,3,874,1,"a table holding books, pot, teapot and a figure.","a table holding books, pot and teapot.",wolfe2,114_L_bird,3,42,A1TGV7LT6LTIQU,2021-01-25_08h32.18.267,MetaAwareness,2020.1.2,Win32,60,3VLL1PIENRRI7GNIA1JOBLSX75PZOU,A1TGV7LT6LTIQU,308XBLVESJ7S8FACMHPR7HLNH43BRN,EB800,EB800,308XBLVESJ7S8FACMHPR7HLNH43BRN,308XBLVESJ7S8FACMHPR7HLNH43BRN,271100,271100,,,,,,,,,,
,,,,4,14.436055,0,4,4,518,1,a nice bathroom with a bathtub with two handles over the wall,a nice bathroom with a bathtub with three handles over the wall,wolfe2,068_L_faucet,3,42,A1TGV7LT6LTIQU,2021-01-25_08h32.18.267,MetaAwareness,2020.1.2,Win32,60,3VLL1PIENRRI7GNIA1JOBLSX75PZOU,A1TGV7LT6LTIQU,308XBLVESJ7S8FACMHPR7HLNH43BRN,EB800,EB800,308XBLVESJ7S8FACMHPR7HLNH43BRN,308XBLVESJ7S8FACMHPR7HLNH43BRN,271100,271100,,,,,,,,,,
,,,,4,13.57276,0,5,5,420,1,a brown and white living room with nothing on the couch,a brown and white living room with a brown blanket on the couch,wolfe2,056_L_comforter,3,42,A1TGV7LT6LTIQU,2021-01-25_08h32.18.267,MetaAwareness,2020.1.2,Win32,60,3VLL1PIENRRI7GNIA1JOBLSX75PZOU,A1TGV7LT6LTIQU,308XBLVESJ7S8FACMHPR7HLNH43BRN,EB800,EB800,308XBLVESJ7S8FACMHPR7HLNH43BRN,308XBLVESJ7S8FACMHPR7HLNH43BRN,271100,271100,,,,,,,,,,
,,,,2,10.843995,0,6,6,631,1,the shelf is vacant,there is some type of bowl on the shelf,wolfe2,082_R_bowl,4,42,A1TGV7LT6LTIQU,2021-01-25_08h32.18.267,MetaAwareness,2020.1.2,Win32,60,3VLL1PIENRRI7GNIA1JOBLSX75PZOU,A1TGV7LT6LTIQU,308XBLVESJ7S8FACMHPR7HLNH43BRN,EB800,EB800,308XBLVESJ7S8FACMHPR7HLNH43BRN,308XBLVESJ7S8FACMHPR7HLNH43BRN,271100,271100,,,,,,,,,,
,,,,4,9.49839,0,7,7,575,1,a kitchen with 3 skylights,a kitchen with 4 skylights,wolfe2,075_R_light,6,42,A1TGV7LT6LTIQU,2021-01-25_08h32.18.267,MetaAwareness,2020.1.2,Win32,60,3VLL1PIENRRI7GNIA1JOBLSX75PZOU,A1TGV7LT6LTIQU,308XBLVESJ7S8FACMHPR7HLNH43BRN,EB800,EB800,308XBLVESJ7S8FACMHPR7HLNH43BRN,308XBLVESJ7S8FACMHPR7HLNH43BRN,271100,271100,,,,,,,,,,
,,,,5,21.92242,0,8,8,76,1,very nice bedroom with two candle sticks on the night stand next to the bed. one of the candles is missing from the candle sticks,very nice bedroom with two candle sticks on the night stand next to the bed. there are two candles in the two candle sticks,wolfe2,010_R_candle,3,42,A1TGV7LT6LTIQU,2021-01-25_08h32.18.267,MetaAwareness,2020.1.2,Win32,60,3VLL1PIENRRI7GNIA1JOBLSX75PZOU,A1TGV7LT6LTIQU,308XBLVESJ7S8FACMHPR7HLNH43BRN,EB800,EB800,308XBLVESJ7S8FACMHPR7HLNH43BRN,308XBLVESJ7S8FACMHPR7HLNH43BRN,271100,271100,,,,,,,,,,
,,,,5,13.12069,0,9,9,164,1,a white and chrome kitchen with two hanging lights,a white and chrome kitchen with three hanging lights,wolfe2,022_L_lamp,3,42,A1TGV7LT6LTIQU,2021-01-25_08h32.18.267,MetaAwareness,2020.1.2,Win32,60,3VLL1PIENRRI7GNIA1JOBLSX75PZOU,A1TGV7LT6LTIQU,308XBLVESJ7S8FACMHPR7HLNH43BRN,EB800,EB800,308XBLVESJ7S8FACMHPR7HLNH43BRN,308XBLVESJ7S8FACMHPR7HLNH43BRN,271100,271100,,,,,,,,,,
,,,,1,6.16409,0,10,10,912,1,there is a frame,there is an empty wall,wolfe2,119_L_painting,2,42,A1TGV7LT6LTIQU,2021-01-25_08h32.18.267,MetaAwareness,2020.1.2,Win32,60,3VLL1PIENRRI7GNIA1JOBLSX75PZOU,A1TGV7LT6LTIQU,308XBLVESJ7S8FACMHPR7HLNH43BRN,EB800,EB800,308XBLVESJ7S8FACMHPR7HLNH43BRN,308XBLVESJ7S8FACMHPR7HLNH43BRN,271100,271100,,,,,,,,,,
,,,,5,11.113275,0,11,11,201,1,a well lit bathroom with a white and brown theme,a well lit bathroom with a white a brown theme that is missing a shelf,wolfe2,026_R_rack,2,42,A1TGV7LT6LTIQU,2021-01-25_08h32.18.267,MetaAwareness,2020.1.2,Win32,60,3VLL1PIENRRI7GNIA1JOBLSX75PZOU,A1TGV7LT6LTIQU,308XBLVESJ7S8FACMHPR7HLNH43BRN,EB800,EB800,308XBLVESJ7S8FACMHPR7HLNH43BRN,308XBLVESJ7S8FACMHPR7HLNH43BRN,271100,271100,,,,,,,,,,
,,,,4,36.26491,0,12,12,848,1,an indoor patio with a pool on the outside of it and a bush in the corner of the patio.,an indoor patio with a pool in the backyard and brown carpeting in the patio area,wolfe2,110_R_plant,4,42,A1TGV7LT6LTIQU,2021-01-25_08h32.18.267,MetaAwareness,2020.1.2,Win32,60,3VLL1PIENRRI7GNIA1JOBLSX75PZOU,A1TGV7LT6LTIQU,308XBLVESJ7S8FACMHPR7HLNH43BRN,EB800,EB800,308XBLVESJ7S8FACMHPR7HLNH43BRN,308XBLVESJ7S8FACMHPR7HLNH43BRN,271100,271100,,,,,,,,,,
,,,,2,26.070945,0,13,13,197,1,a beige colored wall in a spacious bathroom,a wooden floating shelf on the wall of a spacious bathroom,wolfe2,026_L_rack,1,42,A1TGV7LT6LTIQU,2021-01-25_08h32.18.267,MetaAwareness,2020.1.2,Win32,60,3VLL1PIENRRI7GNIA1JOBLSX75PZOU,A1TGV7LT6LTIQU,308XBLVESJ7S8FACMHPR7HLNH43BRN,EB800,EB800,308XBLVESJ7S8FACMHPR7HLNH43BRN,308XBLVESJ7S8FACMHPR7HLNH43BRN,271100,271100,,,,,,,,,,
,,,,3,30.232305,0,14,14,232,1,"a narrow bathroom lit by a window in the background, with two sinks and cabinets that are not connected","a narrow bathroom lit by a window in the background, with two sinks an cabinets that are connected by a surface",wolfe2,030_R_drawer,2,42,A1TGV7LT6LTIQU,2021-01-25_08h32.18.267,MetaAwareness,2020.1.2,Win32,60,3VLL1PIENRRI7GNIA1JOBLSX75PZOU,A1TGV7LT6LTIQU,308XBLVESJ7S8FACMHPR7HLNH43BRN,EB800,EB800,308XBLVESJ7S8FACMHPR7HLNH43BRN,308XBLVESJ7S8FACMHPR7HLNH43BRN,271100,271100,,,,,,,,,,
,,,,3,21.163845,0,15,15,873,1,a room with open patio doors and a small figurine on a table next to books and a bowl in front of a loveseat,a room with open patio doors and books and a bowl on a table in front of a loveseat,wolfe2,114_L_bird,2,42,A1TGV7LT6LTIQU,2021-01-25_08h32.18.267,MetaAwareness,2020.1.2,Win32,60,3VLL1PIENRRI7GNIA1JOBLSX75PZOU,A1TGV7LT6LTIQU,308XBLVESJ7S8FACMHPR7HLNH43BRN,EB800,EB800,308XBLVESJ7S8FACMHPR7HLNH43BRN,308XBLVESJ7S8FACMHPR7HLNH43BRN,271100,271100,,,,,,,,,,
,,,,5,14.73709,0,16,16,52,1,a rustic looking bathroom with a towel sitting on the countertop,a rustic looking bathroom with a bowl sitting on a towel on the countertop,wolfe2,007_R_soap,2,42,A1TGV7LT6LTIQU,2021-01-25_08h32.18.267,MetaAwareness,2020.1.2,Win32,60,3VLL1PIENRRI7GNIA1JOBLSX75PZOU,A1TGV7LT6LTIQU,308XBLVESJ7S8FACMHPR7HLNH43BRN,EB800,EB800,308XBLVESJ7S8FACMHPR7HLNH43BRN,308XBLVESJ7S8FACMHPR7HLNH43BRN,271100,271100,,,,,,,,,,
,,,,4,15.748615,0,17,17,58,1,a bathroom that has a window with white blinds with what appears to be glass cleaner on the ledge,a bathroom that has a window with white blinds and there are 2 bottles on the window ledge,wolfe2,008_L_bottle,4,42,A1TGV7LT6LTIQU,2021-01-25_08h32.18.267,MetaAwareness,2020.1.2,Win32,60,3VLL1PIENRRI7GNIA1JOBLSX75PZOU,A1TGV7LT6LTIQU,308XBLVESJ7S8FACMHPR7HLNH43BRN,EB800,EB800,308XBLVESJ7S8FACMHPR7HLNH43BRN,308XBLVESJ7S8FACMHPR7HLNH43BRN,271100,271100,,,,,,,,,,
,,,,5,27.22558,0,18,18,188,1,"a bathroom with a large mirror and two sinks, with a basket and four stacked towels under the sinks",a bathroom with a large mirror and two sinks with a basket and nine stacked towels under the sinks,wolfe2,024_R_towels,4,42,A1TGV7LT6LTIQU,2021-01-25_08h32.18.267,MetaAwareness,2020.1.2,Win32,60,3VLL1PIENRRI7GNIA1JOBLSX75PZOU,A1TGV7LT6LTIQU,308XBLVESJ7S8FACMHPR7HLNH43BRN,EB800,EB800,308XBLVESJ7S8FACMHPR7HLNH43BRN,308XBLVESJ7S8FACMHPR7HLNH43BRN,271100,271100,,,,,,,,,,
,,,,5,20.70391,0,19,19,915,1,it is a picture of a grand room with art photos to the left and right of the glass door.,it is a picture of a grand room with an art photo to the left of the glass doors.,wolfe2,119_R_painting,1,42,A1TGV7LT6LTIQU,2021-01-25_08h32.18.267,MetaAwareness,2020.1.2,Win32,60,3VLL1PIENRRI7GNIA1JOBLSX75PZOU,A1TGV7LT6LTIQU,308XBLVESJ7S8FACMHPR7HLNH43BRN,EB800,EB800,308XBLVESJ7S8FACMHPR7HLNH43BRN,308XBLVESJ7S8FACMHPR7HLNH43BRN,271100,271100,,,,,,,,,,
,,,,6,29.584185,0,20,20,639,1,"a bright and sunny children's room with white bunk beds, a colorful carpet, a small white table with a small blue and a small green chair, and a colorful cabinet with white knobs","a bright and sunny children's room with white bunk beds, a colorful carpet, a small white table with a small blue chair and a small green chair, and a colorful cabinet with white knobs on some of the drawers.",wolfe2,083_R_knob,1,42,A1TGV7LT6LTIQU,2021-01-25_08h32.18.267,MetaAwareness,2020.1.2,Win32,60,3VLL1PIENRRI7GNIA1JOBLSX75PZOU,A1TGV7LT6LTIQU,308XBLVESJ7S8FACMHPR7HLNH43BRN,EB800,EB800,308XBLVESJ7S8FACMHPR7HLNH43BRN,308XBLVESJ7S8FACMHPR7HLNH43BRN,271100,271100,,,,,,,,,,
,,,,5,7.686595,0,21,21,767,1,"a sleek, modern bathroom with two sinks and a large mirror","a sleek, modern bathroom with two sinks, a large mirror and a smaller mirror",wolfe2,100_R_mirror,3,42,A1TGV7LT6LTIQU,2021-01-25_08h32.18.267,MetaAwareness,2020.1.2,Win32,60,3VLL1PIENRRI7GNIA1JOBLSX75PZOU,A1TGV7LT6LTIQU,308XBLVESJ7S8FACMHPR7HLNH43BRN,EB800,EB800,308XBLVESJ7S8FACMHPR7HLNH43BRN,308XBLVESJ7S8FACMHPR7HLNH43BRN,271100,271100,,,,,,,,,,
,,,,5,10.63082,0,22,22,19,1,cabin-style living room overlooking a small body of water,"cabin-style living room looking out onto a body of water, with multiple ducks",wolfe2,003_L_ducks,4,42,A1TGV7LT6LTIQU,2021-01-25_08h32.18.267,MetaAwareness,2020.1.2,Win32,60,3VLL1PIENRRI7GNIA1JOBLSX75PZOU,A1TGV7LT6LTIQU,308XBLVESJ7S8FACMHPR7HLNH43BRN,EB800,EB800,308XBLVESJ7S8FACMHPR7HLNH43BRN,308XBLVESJ7S8FACMHPR7HLNH43BRN,271100,271100,,,,,,,,,,
,,,,1,16.052075,0,23,23,577,1,a ceiling with square designs,a recess lighting in the ceiling itself,wolfe2,075_R_light,8,42,A1TGV7LT6LTIQU,2021-01-25_08h32.18.267,MetaAwareness,2020.1.2,Win32,60,3VLL1PIENRRI7GNIA1JOBLSX75PZOU,A1TGV7LT6LTIQU,308XBLVESJ7S8FACMHPR7HLNH43BRN,EB800,EB800,308XBLVESJ7S8FACMHPR7HLNH43BRN,308XBLVESJ7S8FACMHPR7HLNH43BRN,271100,271100,,,,,,,,,,
,,,,5,16.536635,0,24,24,893,1,a black and white based modern dining room with a plant on the floor with a silver basket next to it.,a black and white based modern dining room with a plant on the floor,wolfe2,116_R_basket,3,42,A1TGV7LT6LTIQU,2021-01-25_08h32.18.267,MetaAwareness,2020.1.2,Win32,60,3VLL1PIENRRI7GNIA1JOBLSX75PZOU,A1TGV7LT6LTIQU,308XBLVESJ7S8FACMHPR7HLNH43BRN,EB800,EB800,308XBLVESJ7S8FACMHPR7HLNH43BRN,308XBLVESJ7S8FACMHPR7HLNH43BRN,271100,271100,,,,,,,,,,
,,,,4,16.92949,0,25,25,315,1,a tidy kitchen with a bowl that looks like it should be holding something,a tidy kitchen with a bowl of fruit on the counter,wolfe2,041_L_fruit,4,42,A1TGV7LT6LTIQU,2021-01-25_08h32.18.267,MetaAwareness,2020.1.2,Win32,60,3VLL1PIENRRI7GNIA1JOBLSX75PZOU,A1TGV7LT6LTIQU,308XBLVESJ7S8FACMHPR7HLNH43BRN,EB800,EB800,308XBLVESJ7S8FACMHPR7HLNH43BRN,308XBLVESJ7S8FACMHPR7HLNH43BRN,271100,271100,,,,,,,,,,
,,,,5,23.50808,0,26,26,86,1,a modern style bathroom with a featureless tub sitting in front of a water faucet.,a modern style bathroom with a tub containing a green circle sitting in front of a water faucet.,wolfe2,012_L_tubaccesory,1,42,A1TGV7LT6LTIQU,2021-01-25_08h32.18.267,MetaAwareness,2020.1.2,Win32,60,3VLL1PIENRRI7GNIA1JOBLSX75PZOU,A1TGV7LT6LTIQU,308XBLVESJ7S8FACMHPR7HLNH43BRN,EB800,EB800,308XBLVESJ7S8FACMHPR7HLNH43BRN,308XBLVESJ7S8FACMHPR7HLNH43BRN,271100,271100,,,,,,,,,,
,,,,4,8.14794,0,27,27,811,1,a shwer area with a paper towel dispenser on the wall,a shower area,wolfe2,106_L_toweldispenser,4,42,A1TGV7LT6LTIQU,2021-01-25_08h32.18.267,MetaAwareness,2020.1.2,Win32,60,3VLL1PIENRRI7GNIA1JOBLSX75PZOU,A1TGV7LT6LTIQU,308XBLVESJ7S8FACMHPR7HLNH43BRN,EB800,EB800,308XBLVESJ7S8FACMHPR7HLNH43BRN,308XBLVESJ7S8FACMHPR7HLNH43BRN,271100,271100,,,,,,,,,,
,,,,4,16.63278,0,28,28,881,1,plants thrive in this updated kitchen and living room overlooking the mountains.,updated kitchen and living room overlooking the mountains.,wolfe2,115_L_pot,3,42,A1TGV7LT6LTIQU,2021-01-25_08h32.18.267,MetaAwareness,2020.1.2,Win32,60,3VLL1PIENRRI7GNIA1JOBLSX75PZOU,A1TGV7LT6LTIQU,308XBLVESJ7S8FACMHPR7HLNH43BRN,EB800,EB800,308XBLVESJ7S8FACMHPR7HLNH43BRN,308XBLVESJ7S8FACMHPR7HLNH43BRN,271100,271100,,,,,,,,,,
,,,,5,7.003305,0,29,29,381,1,white living room with fake fireplace,white living room with perfume sitting on fake fireplace,wolfe2,051_L_owl,5,42,A1TGV7LT6LTIQU,2021-01-25_08h32.18.267,MetaAwareness,2020.1.2,Win32,60,3VLL1PIENRRI7GNIA1JOBLSX75PZOU,A1TGV7LT6LTIQU,308XBLVESJ7S8FACMHPR7HLNH43BRN,EB800,EB800,308XBLVESJ7S8FACMHPR7HLNH43BRN,308XBLVESJ7S8FACMHPR7HLNH43BRN,271100,271100,,,,,,,,,,
,,,,,,,,,,,,,,,,42,A1TGV7LT6LTIQU,2021-01-25_08h32.18.267,MetaAwareness,2020.1.2,Win32,60,3VLL1PIENRRI7GNIA1JOBLSX75PZOU,A1TGV7LT6LTIQU,308XBLVESJ7S8FACMHPR7HLNH43BRN,EB800,EB800,308XBLVESJ7S8FACMHPR7HLNH43BRN,308XBLVESJ7S8FACMHPR7HLNH43BRN,271100,271100,6,8.74549,someone laying underneath a blue beach umbrella on a crowded beach,someone laying underneath a blue beach umbrella on a crowded beach,same,1,7.75347,members of a marching band crossing a track that all have feather plumes at the front of their hats,a cluttered and rustic looking cafe with 10 hanging lights,different
