consent_response.keys,consent_response.rt,key_resp_2.keys,key_resp_2.rt,user_resp.keys,user_resp.rt,trials.thisRepN,trials.thisTrialN,trials.thisN,trials.thisIndex,trials.ran,image_1_text,image_2_text,database,image,number,age,worker_ID,date,expName,psychopyVersion,OS,frameRate,hitId,workerId,assignmentId,a,tp_a,b,tp_b,c,tp_c,catch_same_resp.keys,catch_same_resp.rt,image_1_text_catch_same,image_2_text_catch_same,image_catch_same,catch_different_resp.keys,catch_different_resp.rt,image_1_text_catch_different,image_2_text_catch_different,image_catch_different
space,4.849,space,2.09,4,3.712,0,0,0,971,1,a living room with a decorative piece of art below the tv.,a living room with no items underneath the tv.,wolfe2,126_R_candles,2,48,A235Y8YM30I3LL,2021-01-25_10h30.54.965,MetaAwareness,2020.1.2,Win32,60,3INZSNUD81TCXSEGGUB9N3E5OOS9DQ,A235Y8YM30I3LL,3HVVDCPGTFV112GF0Y86F7K6QXBTYO,GDVH0,GDVH0,3HVVDCPGTFV112GF0Y86F7K6QXBTYO,3HVVDCPGTFV112GF0Y86F7K6QXBTYO,271100,271100,,,,,,,,,,
,,,,3,1.89,0,1,1,470,1,"a cozy, warm looking sitting space with a fireplace","a cozy, warm looking sitting space with flowers in front of the fireplace",wolfe2,062_L_flowers,2,48,A235Y8YM30I3LL,2021-01-25_10h30.54.965,MetaAwareness,2020.1.2,Win32,60,3INZSNUD81TCXSEGGUB9N3E5OOS9DQ,A235Y8YM30I3LL,3HVVDCPGTFV112GF0Y86F7K6QXBTYO,GDVH0,GDVH0,3HVVDCPGTFV112GF0Y86F7K6QXBTYO,3HVVDCPGTFV112GF0Y86F7K6QXBTYO,271100,271100,,,,,,,,,,
,,,,4,0.256,0,2,2,939,1,a roomy and spacious room that encourages relaxtion.  appears to have small chairs for visitors to relax in.,a roomy and spacious place that encourages people to think and act quietly while they relax.  they appear to be missing a chair in this view.,wolfe2,122_R_chair,2,48,A235Y8YM30I3LL,2021-01-25_10h30.54.965,MetaAwareness,2020.1.2,Win32,60,3INZSNUD81TCXSEGGUB9N3E5OOS9DQ,A235Y8YM30I3LL,3HVVDCPGTFV112GF0Y86F7K6QXBTYO,GDVH0,GDVH0,3HVVDCPGTFV112GF0Y86F7K6QXBTYO,3HVVDCPGTFV112GF0Y86F7K6QXBTYO,271100,271100,,,,,,,,,,
,,,,3,0.142,0,3,3,874,1,"a table holding books, pot, teapot and a figure.","a table holding books, pot and teapot.",wolfe2,114_L_bird,3,48,A235Y8YM30I3LL,2021-01-25_10h30.54.965,MetaAwareness,2020.1.2,Win32,60,3INZSNUD81TCXSEGGUB9N3E5OOS9DQ,A235Y8YM30I3LL,3HVVDCPGTFV112GF0Y86F7K6QXBTYO,GDVH0,GDVH0,3HVVDCPGTFV112GF0Y86F7K6QXBTYO,3HVVDCPGTFV112GF0Y86F7K6QXBTYO,271100,271100,,,,,,,,,,
,,,,4,0.319,0,4,4,303,1,the beautiful light colored living room has no ceiling vents,the beautiful light colored living room has a ceiling vent above the couch.,wolfe2,039_R_ventilator,2,48,A235Y8YM30I3LL,2021-01-25_10h30.54.965,MetaAwareness,2020.1.2,Win32,60,3INZSNUD81TCXSEGGUB9N3E5OOS9DQ,A235Y8YM30I3LL,3HVVDCPGTFV112GF0Y86F7K6QXBTYO,GDVH0,GDVH0,3HVVDCPGTFV112GF0Y86F7K6QXBTYO,3HVVDCPGTFV112GF0Y86F7K6QXBTYO,271100,271100,,,,,,,,,,
,,,,2,0.178,0,5,5,870,1,it seems to be a hangout area in a store with many plants and rustic scenic decorations and a lookout window to nature,"a hangout area in a store with one less plant by the large window, the area is still rustic with a nice lookout view to nature",wolfe2,113_R_plant,3,48,A235Y8YM30I3LL,2021-01-25_10h30.54.965,MetaAwareness,2020.1.2,Win32,60,3INZSNUD81TCXSEGGUB9N3E5OOS9DQ,A235Y8YM30I3LL,3HVVDCPGTFV112GF0Y86F7K6QXBTYO,GDVH0,GDVH0,3HVVDCPGTFV112GF0Y86F7K6QXBTYO,3HVVDCPGTFV112GF0Y86F7K6QXBTYO,271100,271100,,,,,,,,,,
,,,,4,0.103,0,6,6,342,1,a hotel room with yellow designed carpet and a night stand,a hotel room with yellow designed carpet and an ipod on the night stand,wolfe2,045_L_musicdock,3,48,A235Y8YM30I3LL,2021-01-25_10h30.54.965,MetaAwareness,2020.1.2,Win32,60,3INZSNUD81TCXSEGGUB9N3E5OOS9DQ,A235Y8YM30I3LL,3HVVDCPGTFV112GF0Y86F7K6QXBTYO,GDVH0,GDVH0,3HVVDCPGTFV112GF0Y86F7K6QXBTYO,3HVVDCPGTFV112GF0Y86F7K6QXBTYO,271100,271100,,,,,,,,,,
,,,,2,0.017,0,7,7,983,1,"a large modern living room with a large dog, a view of the pool, art on the walls, two sofas, and a pair of wall sconces","a large modern living room with a large dog, a view of the pool, art on the walls, two sofas, and one wall sconce",wolfe2,127_R_light,4,48,A235Y8YM30I3LL,2021-01-25_10h30.54.965,MetaAwareness,2020.1.2,Win32,60,3INZSNUD81TCXSEGGUB9N3E5OOS9DQ,A235Y8YM30I3LL,3HVVDCPGTFV112GF0Y86F7K6QXBTYO,GDVH0,GDVH0,3HVVDCPGTFV112GF0Y86F7K6QXBTYO,3HVVDCPGTFV112GF0Y86F7K6QXBTYO,271100,271100,,,,,,,,,,
,,,,2,0.152,0,8,8,268,1,a modern bedroom that is well-decorated with lots of accent pieces and good lighting.,"a modern bedroom that is well-decorated with lots of accent pieces, including a table that has vases and a bowl of fruit.",wolfe2,035_L_fruit,1,48,A235Y8YM30I3LL,2021-01-25_10h30.54.965,MetaAwareness,2020.1.2,Win32,60,3INZSNUD81TCXSEGGUB9N3E5OOS9DQ,A235Y8YM30I3LL,3HVVDCPGTFV112GF0Y86F7K6QXBTYO,GDVH0,GDVH0,3HVVDCPGTFV112GF0Y86F7K6QXBTYO,3HVVDCPGTFV112GF0Y86F7K6QXBTYO,271100,271100,,,,,,,,,,
,,,,4,0.148,0,9,9,557,1,a dresser without a handle pull,a dresser with a handle pull,wolfe2,072_R_handle,5,48,A235Y8YM30I3LL,2021-01-25_10h30.54.965,MetaAwareness,2020.1.2,Win32,60,3INZSNUD81TCXSEGGUB9N3E5OOS9DQ,A235Y8YM30I3LL,3HVVDCPGTFV112GF0Y86F7K6QXBTYO,GDVH0,GDVH0,3HVVDCPGTFV112GF0Y86F7K6QXBTYO,3HVVDCPGTFV112GF0Y86F7K6QXBTYO,271100,271100,,,,,,,,,,
,,,,2,0.167,0,10,10,352,1,a bedroom with a dresser with three symbols on it,a bedroom with a dresser with four symbols on it,wolfe2,047_L_handle,1,48,A235Y8YM30I3LL,2021-01-25_10h30.54.965,MetaAwareness,2020.1.2,Win32,60,3INZSNUD81TCXSEGGUB9N3E5OOS9DQ,A235Y8YM30I3LL,3HVVDCPGTFV112GF0Y86F7K6QXBTYO,GDVH0,GDVH0,3HVVDCPGTFV112GF0Y86F7K6QXBTYO,3HVVDCPGTFV112GF0Y86F7K6QXBTYO,271100,271100,,,,,,,,,,
,,,,4,0.023,0,11,11,412,1,a master bedroom and office space with two pieces of circle rugs on the floor,a master bedroom and office space with three pieces of circle rugs on the floor,wolfe2,055_R_carpet,2,48,A235Y8YM30I3LL,2021-01-25_10h30.54.965,MetaAwareness,2020.1.2,Win32,60,3INZSNUD81TCXSEGGUB9N3E5OOS9DQ,A235Y8YM30I3LL,3HVVDCPGTFV112GF0Y86F7K6QXBTYO,GDVH0,GDVH0,3HVVDCPGTFV112GF0Y86F7K6QXBTYO,3HVVDCPGTFV112GF0Y86F7K6QXBTYO,271100,271100,,,,,,,,,,
,,,,2,0.107,0,12,12,311,1,a wall with two wall frames,a wall with three wall frames,wolfe2,040_R_painting,3,48,A235Y8YM30I3LL,2021-01-25_10h30.54.965,MetaAwareness,2020.1.2,Win32,60,3INZSNUD81TCXSEGGUB9N3E5OOS9DQ,A235Y8YM30I3LL,3HVVDCPGTFV112GF0Y86F7K6QXBTYO,GDVH0,GDVH0,3HVVDCPGTFV112GF0Y86F7K6QXBTYO,3HVVDCPGTFV112GF0Y86F7K6QXBTYO,271100,271100,,,,,,,,,,
,,,,3,0.125,0,13,13,678,1,a wall decor in a salon,nothing on te wall in the salon,wolfe2,088_R_clock,3,48,A235Y8YM30I3LL,2021-01-25_10h30.54.965,MetaAwareness,2020.1.2,Win32,60,3INZSNUD81TCXSEGGUB9N3E5OOS9DQ,A235Y8YM30I3LL,3HVVDCPGTFV112GF0Y86F7K6QXBTYO,GDVH0,GDVH0,3HVVDCPGTFV112GF0Y86F7K6QXBTYO,3HVVDCPGTFV112GF0Y86F7K6QXBTYO,271100,271100,,,,,,,,,,
,,,,2,0.012,0,14,14,972,1,a cozy living room setting with decorative vases on the wall shelves,a cozy living room setting with some wall shelves,wolfe2,126_R_candles,4,48,A235Y8YM30I3LL,2021-01-25_10h30.54.965,MetaAwareness,2020.1.2,Win32,60,3INZSNUD81TCXSEGGUB9N3E5OOS9DQ,A235Y8YM30I3LL,3HVVDCPGTFV112GF0Y86F7K6QXBTYO,GDVH0,GDVH0,3HVVDCPGTFV112GF0Y86F7K6QXBTYO,3HVVDCPGTFV112GF0Y86F7K6QXBTYO,271100,271100,,,,,,,,,,
,,,,3,1.357,0,15,15,193,1,there is one piece of art on the right side of a shelf in the living room,there are two pieces of art on the right side of a shelf in the living room,wolfe2,025_R_vase,2,48,A235Y8YM30I3LL,2021-01-25_10h30.54.965,MetaAwareness,2020.1.2,Win32,60,3INZSNUD81TCXSEGGUB9N3E5OOS9DQ,A235Y8YM30I3LL,3HVVDCPGTFV112GF0Y86F7K6QXBTYO,GDVH0,GDVH0,3HVVDCPGTFV112GF0Y86F7K6QXBTYO,3HVVDCPGTFV112GF0Y86F7K6QXBTYO,271100,271100,,,,,,,,,,
,,,,3,0.183,0,16,16,738,1,"a pink themed decorated room, with a radio sitting on top of the pink desk",a pink themed decorated room with an empty pink desk,wolfe2,096_R_painting,4,48,A235Y8YM30I3LL,2021-01-25_10h30.54.965,MetaAwareness,2020.1.2,Win32,60,3INZSNUD81TCXSEGGUB9N3E5OOS9DQ,A235Y8YM30I3LL,3HVVDCPGTFV112GF0Y86F7K6QXBTYO,GDVH0,GDVH0,3HVVDCPGTFV112GF0Y86F7K6QXBTYO,3HVVDCPGTFV112GF0Y86F7K6QXBTYO,271100,271100,,,,,,,,,,
,,,,4,0.056,0,17,17,292,1,a clean and modern looking bathroom with 5 rolled up towels on the shelf,a clean and modern looking bathroom with 6 rolled up towels on the shelf,wolfe2,037_R_towel,5,48,A235Y8YM30I3LL,2021-01-25_10h30.54.965,MetaAwareness,2020.1.2,Win32,60,3INZSNUD81TCXSEGGUB9N3E5OOS9DQ,A235Y8YM30I3LL,3HVVDCPGTFV112GF0Y86F7K6QXBTYO,GDVH0,GDVH0,3HVVDCPGTFV112GF0Y86F7K6QXBTYO,3HVVDCPGTFV112GF0Y86F7K6QXBTYO,271100,271100,,,,,,,,,,
,,,,3,0.122,0,18,18,160,1,a colorful room with a table that has nothing on top of a table mat,a colorful room with a table that has a keyboard on top of a mat,wolfe2,021_R_keyboard,4,48,A235Y8YM30I3LL,2021-01-25_10h30.54.965,MetaAwareness,2020.1.2,Win32,60,3INZSNUD81TCXSEGGUB9N3E5OOS9DQ,A235Y8YM30I3LL,3HVVDCPGTFV112GF0Y86F7K6QXBTYO,GDVH0,GDVH0,3HVVDCPGTFV112GF0Y86F7K6QXBTYO,3HVVDCPGTFV112GF0Y86F7K6QXBTYO,271100,271100,,,,,,,,,,
,,,,2,0.21,0,19,19,44,1,the bed has a palm tree behind it. there is a white rug under the bed. next to the bed on the right is a lamp sitting on a table.,the bed has a palm tree behind it. there is a white rug under the bed. next to the bed on the right side is a lamp and a puple vase.,wolfe2,006_R_vase,2,48,A235Y8YM30I3LL,2021-01-25_10h30.54.965,MetaAwareness,2020.1.2,Win32,60,3INZSNUD81TCXSEGGUB9N3E5OOS9DQ,A235Y8YM30I3LL,3HVVDCPGTFV112GF0Y86F7K6QXBTYO,GDVH0,GDVH0,3HVVDCPGTFV112GF0Y86F7K6QXBTYO,3HVVDCPGTFV112GF0Y86F7K6QXBTYO,271100,271100,,,,,,,,,,
,,,,4,0.096,0,20,20,143,1,outside portion of house with one light on top of exit,outside section of a house with two lights on top of exit,wolfe2,019_L_lamp_sized,1,48,A235Y8YM30I3LL,2021-01-25_10h30.54.965,MetaAwareness,2020.1.2,Win32,60,3INZSNUD81TCXSEGGUB9N3E5OOS9DQ,A235Y8YM30I3LL,3HVVDCPGTFV112GF0Y86F7K6QXBTYO,GDVH0,GDVH0,3HVVDCPGTFV112GF0Y86F7K6QXBTYO,3HVVDCPGTFV112GF0Y86F7K6QXBTYO,271100,271100,,,,,,,,,,
,,,,2,0.056,0,21,21,605,1,in this bathroom there is a vanity with an assortment of soaps but one is missing.,in this bathroom there is a vanity with a well balanced assortment of soaps.,wolfe2,078_R_faucet,5,48,A235Y8YM30I3LL,2021-01-25_10h30.54.965,MetaAwareness,2020.1.2,Win32,60,3INZSNUD81TCXSEGGUB9N3E5OOS9DQ,A235Y8YM30I3LL,3HVVDCPGTFV112GF0Y86F7K6QXBTYO,GDVH0,GDVH0,3HVVDCPGTFV112GF0Y86F7K6QXBTYO,3HVVDCPGTFV112GF0Y86F7K6QXBTYO,271100,271100,,,,,,,,,,
,,,,4,0.098,0,22,22,211,1,a luxurious and clean bathroom,a luxurious and clean bathroom with paper towels in the shower,wolfe2,027_R_soapdish,4,48,A235Y8YM30I3LL,2021-01-25_10h30.54.965,MetaAwareness,2020.1.2,Win32,60,3INZSNUD81TCXSEGGUB9N3E5OOS9DQ,A235Y8YM30I3LL,3HVVDCPGTFV112GF0Y86F7K6QXBTYO,GDVH0,GDVH0,3HVVDCPGTFV112GF0Y86F7K6QXBTYO,3HVVDCPGTFV112GF0Y86F7K6QXBTYO,271100,271100,,,,,,,,,,
,,,,2,0.088,0,23,23,404,1,a fresh and modern architectural living room with a bookshelf covering the wall and an empty fireplace,a fresh and modern architectural living room with a bookshelf covering the wall  and fireplace with logs in them,wolfe2,054_L_firewood,4,48,A235Y8YM30I3LL,2021-01-25_10h30.54.965,MetaAwareness,2020.1.2,Win32,60,3INZSNUD81TCXSEGGUB9N3E5OOS9DQ,A235Y8YM30I3LL,3HVVDCPGTFV112GF0Y86F7K6QXBTYO,GDVH0,GDVH0,3HVVDCPGTFV112GF0Y86F7K6QXBTYO,3HVVDCPGTFV112GF0Y86F7K6QXBTYO,271100,271100,,,,,,,,,,
,,,,4,0.118,0,24,24,301,1,a very open dining room with small circular ceiling lights,a ventilation duct on the ceiling in a living room,wolfe2,039_L_ventilator,2,48,A235Y8YM30I3LL,2021-01-25_10h30.54.965,MetaAwareness,2020.1.2,Win32,60,3INZSNUD81TCXSEGGUB9N3E5OOS9DQ,A235Y8YM30I3LL,3HVVDCPGTFV112GF0Y86F7K6QXBTYO,GDVH0,GDVH0,3HVVDCPGTFV112GF0Y86F7K6QXBTYO,3HVVDCPGTFV112GF0Y86F7K6QXBTYO,271100,271100,,,,,,,,,,
,,,,2,0.091,0,25,25,682,1,a salon with art at the third and fourth chairs on left side,a salon with art at the fourth chair on the left side,wolfe2,089_L_poster,4,48,A235Y8YM30I3LL,2021-01-25_10h30.54.965,MetaAwareness,2020.1.2,Win32,60,3INZSNUD81TCXSEGGUB9N3E5OOS9DQ,A235Y8YM30I3LL,3HVVDCPGTFV112GF0Y86F7K6QXBTYO,GDVH0,GDVH0,3HVVDCPGTFV112GF0Y86F7K6QXBTYO,3HVVDCPGTFV112GF0Y86F7K6QXBTYO,271100,271100,,,,,,,,,,
,,,,4,0.084,0,26,26,358,1,the drawer does not have a handle,there is a handle on the drawer,wolfe2,047_R_handle,4,48,A235Y8YM30I3LL,2021-01-25_10h30.54.965,MetaAwareness,2020.1.2,Win32,60,3INZSNUD81TCXSEGGUB9N3E5OOS9DQ,A235Y8YM30I3LL,3HVVDCPGTFV112GF0Y86F7K6QXBTYO,GDVH0,GDVH0,3HVVDCPGTFV112GF0Y86F7K6QXBTYO,3HVVDCPGTFV112GF0Y86F7K6QXBTYO,271100,271100,,,,,,,,,,
,,,,2,0.111,0,27,27,846,1,"a living room with a coffee table that has a plant on it, a second table with a lamp, a plant in the corner, and a view of a pool","a living room with a coffee table that has a plant on it, a second table with a lamp, no plant in the corner, and a view of a pool",wolfe2,110_R_plant,2,48,A235Y8YM30I3LL,2021-01-25_10h30.54.965,MetaAwareness,2020.1.2,Win32,60,3INZSNUD81TCXSEGGUB9N3E5OOS9DQ,A235Y8YM30I3LL,3HVVDCPGTFV112GF0Y86F7K6QXBTYO,GDVH0,GDVH0,3HVVDCPGTFV112GF0Y86F7K6QXBTYO,3HVVDCPGTFV112GF0Y86F7K6QXBTYO,271100,271100,,,,,,,,,,
,,,,3,0.421,0,28,28,526,1,a living room decorated with flowers and candles,a living room decorated with flowers,wolfe2,069_L_things,1,48,A235Y8YM30I3LL,2021-01-25_10h30.54.965,MetaAwareness,2020.1.2,Win32,60,3INZSNUD81TCXSEGGUB9N3E5OOS9DQ,A235Y8YM30I3LL,3HVVDCPGTFV112GF0Y86F7K6QXBTYO,GDVH0,GDVH0,3HVVDCPGTFV112GF0Y86F7K6QXBTYO,3HVVDCPGTFV112GF0Y86F7K6QXBTYO,271100,271100,,,,,,,,,,
,,,,4,0.132,0,29,29,483,1,an eating or hangout area next to a fireplace with open doors,"an eating or hangout area next to a fireplace with open doors to outside, and a computer on the desk on the upper level",wolfe2,063_R_laptop,3,48,A235Y8YM30I3LL,2021-01-25_10h30.54.965,MetaAwareness,2020.1.2,Win32,60,3INZSNUD81TCXSEGGUB9N3E5OOS9DQ,A235Y8YM30I3LL,3HVVDCPGTFV112GF0Y86F7K6QXBTYO,GDVH0,GDVH0,3HVVDCPGTFV112GF0Y86F7K6QXBTYO,3HVVDCPGTFV112GF0Y86F7K6QXBTYO,271100,271100,,,,,,,,,,
,,,,,,,,,,,,,,,,48,A235Y8YM30I3LL,2021-01-25_10h30.54.965,MetaAwareness,2020.1.2,Win32,60,3INZSNUD81TCXSEGGUB9N3E5OOS9DQ,A235Y8YM30I3LL,3HVVDCPGTFV112GF0Y86F7K6QXBTYO,GDVH0,GDVH0,3HVVDCPGTFV112GF0Y86F7K6QXBTYO,3HVVDCPGTFV112GF0Y86F7K6QXBTYO,271100,271100,2,0.086,someone laying underneath a blue beach umbrella on a crowded beach,someone laying underneath a blue beach umbrella on a crowded beach,same,4,0.111,members of a marching band crossing a track that all have feather plumes at the front of their hats,a cluttered and rustic looking cafe with 10 hanging lights,different
