consent_response.keys,consent_response.rt,key_resp_2.keys,key_resp_2.rt,user_resp.keys,user_resp.rt,trials.thisRepN,trials.thisTrialN,trials.thisN,trials.thisIndex,trials.ran,image_1_text,image_2_text,database,image,number,age,worker_ID,date,expName,psychopyVersion,OS,frameRate,hitId,workerId,assignmentId,a,tp_a,b,tp_b,c,tp_c,catch_same_resp.keys,catch_same_resp.rt,image_1_text_catch_same,image_2_text_catch_same,image_catch_same,catch_different_resp.keys,catch_different_resp.rt,image_1_text_catch_different,image_2_text_catch_different,image_catch_different
space,4.77387,space,1.562785,4,23.10078,0,0,0,599,1,"a fancy, well decorated bathroom, with only one water selection at the sink.","a fancy, well decorated bathroom, with both hot and cold water selection at the sink.",wolfe2,078_L_faucet,3,29,A38IPIPA3T3G4,2021-01-25_10h33.34.610,MetaAwareness,2020.1.2,Win32,60,3INZSNUD81TCXSEGGUB9N3E5OOS9DQ,A38IPIPA3T3G4,3YW4XOSQKROJB9K1OER76GVY2Q9U1I,QXWY0,QXWY0,3YW4XOSQKROJB9K1OER76GVY2Q9U1I,3YW4XOSQKROJB9K1OER76GVY2Q9U1I,271100,271100,,,,,,,,,,
,,,,5,25.75278,0,1,1,55,1,"a colorful bathroom counter area with a striped hand towel, mint green walls, a large mirror, a chalkboard, and a small bowl next to one of the two rectangular sinks","a colorful bathroom counter area with a striped hand towel, mint green walls, a large mirror, a chalkboard, and a small bowl next to each rectangular sink",wolfe2,007_R_soap,6,29,A38IPIPA3T3G4,2021-01-25_10h33.34.610,MetaAwareness,2020.1.2,Win32,60,3INZSNUD81TCXSEGGUB9N3E5OOS9DQ,A38IPIPA3T3G4,3YW4XOSQKROJB9K1OER76GVY2Q9U1I,QXWY0,QXWY0,3YW4XOSQKROJB9K1OER76GVY2Q9U1I,3YW4XOSQKROJB9K1OER76GVY2Q9U1I,271100,271100,,,,,,,,,,
,,,,2,8.02043,0,2,2,197,1,a beige colored wall in a spacious bathroom,a wooden floating shelf on the wall of a spacious bathroom,wolfe2,026_L_rack,1,29,A38IPIPA3T3G4,2021-01-25_10h33.34.610,MetaAwareness,2020.1.2,Win32,60,3INZSNUD81TCXSEGGUB9N3E5OOS9DQ,A38IPIPA3T3G4,3YW4XOSQKROJB9K1OER76GVY2Q9U1I,QXWY0,QXWY0,3YW4XOSQKROJB9K1OER76GVY2Q9U1I,3YW4XOSQKROJB9K1OER76GVY2Q9U1I,271100,271100,,,,,,,,,,
,,,,4,104.655025,0,3,3,131,1,this seating area or living room is comfy looking with two nice leather sofas set a top a nice wooden floor.,"this living room has plenty of natural light that compliments the nice natural wood floors. the tv is quite small, and both the leather sofas appear to face it.",wolfe2,017_L_wood,4,29,A38IPIPA3T3G4,2021-01-25_10h33.34.610,MetaAwareness,2020.1.2,Win32,60,3INZSNUD81TCXSEGGUB9N3E5OOS9DQ,A38IPIPA3T3G4,3YW4XOSQKROJB9K1OER76GVY2Q9U1I,QXWY0,QXWY0,3YW4XOSQKROJB9K1OER76GVY2Q9U1I,3YW4XOSQKROJB9K1OER76GVY2Q9U1I,271100,271100,,,,,,,,,,
,,,,3,3.38978,0,4,4,803,1,a bedroom woth glass doors,a bedroom with glass doors and a book is missing on the bed,wolfe2,105_L_hat,4,29,A38IPIPA3T3G4,2021-01-25_10h33.34.610,MetaAwareness,2020.1.2,Win32,60,3INZSNUD81TCXSEGGUB9N3E5OOS9DQ,A38IPIPA3T3G4,3YW4XOSQKROJB9K1OER76GVY2Q9U1I,QXWY0,QXWY0,3YW4XOSQKROJB9K1OER76GVY2Q9U1I,3YW4XOSQKROJB9K1OER76GVY2Q9U1I,271100,271100,,,,,,,,,,
,,,,5,3.80319,0,5,5,738,1,"a pink themed decorated room, with a radio sitting on top of the pink desk",a pink themed decorated room with an empty pink desk,wolfe2,096_R_painting,4,29,A38IPIPA3T3G4,2021-01-25_10h33.34.610,MetaAwareness,2020.1.2,Win32,60,3INZSNUD81TCXSEGGUB9N3E5OOS9DQ,A38IPIPA3T3G4,3YW4XOSQKROJB9K1OER76GVY2Q9U1I,QXWY0,QXWY0,3YW4XOSQKROJB9K1OER76GVY2Q9U1I,3YW4XOSQKROJB9K1OER76GVY2Q9U1I,271100,271100,,,,,,,,,,
,,,,5,9.18608,0,6,6,235,1,a spacious living room with one exposed beam on the ceiling.,a spacious living room with two exposed beams on the ceiling.,wolfe2,031_L_log,1,29,A38IPIPA3T3G4,2021-01-25_10h33.34.610,MetaAwareness,2020.1.2,Win32,60,3INZSNUD81TCXSEGGUB9N3E5OOS9DQ,A38IPIPA3T3G4,3YW4XOSQKROJB9K1OER76GVY2Q9U1I,QXWY0,QXWY0,3YW4XOSQKROJB9K1OER76GVY2Q9U1I,3YW4XOSQKROJB9K1OER76GVY2Q9U1I,271100,271100,,,,,,,,,,
,,,,4,7.833205,0,7,7,52,1,a rustic looking bathroom with a towel sitting on the countertop,a rustic looking bathroom with a bowl sitting on a towel on the countertop,wolfe2,007_R_soap,2,29,A38IPIPA3T3G4,2021-01-25_10h33.34.610,MetaAwareness,2020.1.2,Win32,60,3INZSNUD81TCXSEGGUB9N3E5OOS9DQ,A38IPIPA3T3G4,3YW4XOSQKROJB9K1OER76GVY2Q9U1I,QXWY0,QXWY0,3YW4XOSQKROJB9K1OER76GVY2Q9U1I,3YW4XOSQKROJB9K1OER76GVY2Q9U1I,271100,271100,,,,,,,,,,
,,,,4,2.553985,0,8,8,80,1,this is a picture of a bedroom. on a nightstand on the right there is one candle.,this is a picture of a bedroom. on a nightstand on the right there are two candles.,wolfe2,010_R_candle,8,29,A38IPIPA3T3G4,2021-01-25_10h33.34.610,MetaAwareness,2020.1.2,Win32,60,3INZSNUD81TCXSEGGUB9N3E5OOS9DQ,A38IPIPA3T3G4,3YW4XOSQKROJB9K1OER76GVY2Q9U1I,QXWY0,QXWY0,3YW4XOSQKROJB9K1OER76GVY2Q9U1I,3YW4XOSQKROJB9K1OER76GVY2Q9U1I,271100,271100,,,,,,,,,,
,,,,5,3.705765,0,9,9,362,1,a bedroom with a decoration with a ball on it,a bedroom with a decoration with a ball then a outward part,wolfe2,048_L_art,2,29,A38IPIPA3T3G4,2021-01-25_10h33.34.610,MetaAwareness,2020.1.2,Win32,60,3INZSNUD81TCXSEGGUB9N3E5OOS9DQ,A38IPIPA3T3G4,3YW4XOSQKROJB9K1OER76GVY2Q9U1I,QXWY0,QXWY0,3YW4XOSQKROJB9K1OER76GVY2Q9U1I,3YW4XOSQKROJB9K1OER76GVY2Q9U1I,271100,271100,,,,,,,,,,
,,,,3,2.580545,0,10,10,620,1,"catch-all room with big front windows, black book shelf with clean floor","catch-all room with big front windows, black book shelf with object on the floor next to the left leg of book shelf",wolfe2,081_L_football,1,29,A38IPIPA3T3G4,2021-01-25_10h33.34.610,MetaAwareness,2020.1.2,Win32,60,3INZSNUD81TCXSEGGUB9N3E5OOS9DQ,A38IPIPA3T3G4,3YW4XOSQKROJB9K1OER76GVY2Q9U1I,QXWY0,QXWY0,3YW4XOSQKROJB9K1OER76GVY2Q9U1I,3YW4XOSQKROJB9K1OER76GVY2Q9U1I,271100,271100,,,,,,,,,,
,,,,3,4.50962,0,11,11,496,1,theres a book shelf in an office with nothing in the middle,theres a bookshelf in an office with books in the middle,wolfe2,065_L_cd,5,29,A38IPIPA3T3G4,2021-01-25_10h33.34.610,MetaAwareness,2020.1.2,Win32,60,3INZSNUD81TCXSEGGUB9N3E5OOS9DQ,A38IPIPA3T3G4,3YW4XOSQKROJB9K1OER76GVY2Q9U1I,QXWY0,QXWY0,3YW4XOSQKROJB9K1OER76GVY2Q9U1I,3YW4XOSQKROJB9K1OER76GVY2Q9U1I,271100,271100,,,,,,,,,,
,,,,5,6.564635,0,12,12,435,1,"the library features large chandeliers, wide hallways, and five trash cans","the library features large chandeliers, wide hallways, and six trash cans",wolfe2,057_R_bin,4,29,A38IPIPA3T3G4,2021-01-25_10h33.34.610,MetaAwareness,2020.1.2,Win32,60,3INZSNUD81TCXSEGGUB9N3E5OOS9DQ,A38IPIPA3T3G4,3YW4XOSQKROJB9K1OER76GVY2Q9U1I,QXWY0,QXWY0,3YW4XOSQKROJB9K1OER76GVY2Q9U1I,3YW4XOSQKROJB9K1OER76GVY2Q9U1I,271100,271100,,,,,,,,,,
,,,,5,2.838725,0,13,13,72,1,a bedroom with many mirrors and a single candle,a bedroom with many mirrors and two candles,wolfe2,010_L_candle,4,29,A38IPIPA3T3G4,2021-01-25_10h33.34.610,MetaAwareness,2020.1.2,Win32,60,3INZSNUD81TCXSEGGUB9N3E5OOS9DQ,A38IPIPA3T3G4,3YW4XOSQKROJB9K1OER76GVY2Q9U1I,QXWY0,QXWY0,3YW4XOSQKROJB9K1OER76GVY2Q9U1I,3YW4XOSQKROJB9K1OER76GVY2Q9U1I,271100,271100,,,,,,,,,,
,,,,5,0.102825,0,14,14,43,1,empty space,pot has,wolfe2,006_R_vase,1,29,A38IPIPA3T3G4,2021-01-25_10h33.34.610,MetaAwareness,2020.1.2,Win32,60,3INZSNUD81TCXSEGGUB9N3E5OOS9DQ,A38IPIPA3T3G4,3YW4XOSQKROJB9K1OER76GVY2Q9U1I,QXWY0,QXWY0,3YW4XOSQKROJB9K1OER76GVY2Q9U1I,3YW4XOSQKROJB9K1OER76GVY2Q9U1I,271100,271100,,,,,,,,,,
,,,,4,3.40427,0,15,15,403,1,a living room with a bookcase and no logs in the fireplace,a living room with a bookcase and logs in the fireplace,wolfe2,054_L_firewood,2,29,A38IPIPA3T3G4,2021-01-25_10h33.34.610,MetaAwareness,2020.1.2,Win32,60,3INZSNUD81TCXSEGGUB9N3E5OOS9DQ,A38IPIPA3T3G4,3YW4XOSQKROJB9K1OER76GVY2Q9U1I,QXWY0,QXWY0,3YW4XOSQKROJB9K1OER76GVY2Q9U1I,3YW4XOSQKROJB9K1OER76GVY2Q9U1I,271100,271100,,,,,,,,,,
,,,,4,3.890685,0,16,16,552,1,"a bedroom that is furnished in white with black oak furniture, including an armoire that is missing a drawer handle in its lower left corner","a bedroom that is furnished in white with black oak furniture, including an armoire with ornate metal handles on its drawers",wolfe2,072_L_handle,5,29,A38IPIPA3T3G4,2021-01-25_10h33.34.610,MetaAwareness,2020.1.2,Win32,60,3INZSNUD81TCXSEGGUB9N3E5OOS9DQ,A38IPIPA3T3G4,3YW4XOSQKROJB9K1OER76GVY2Q9U1I,QXWY0,QXWY0,3YW4XOSQKROJB9K1OER76GVY2Q9U1I,3YW4XOSQKROJB9K1OER76GVY2Q9U1I,271100,271100,,,,,,,,,,
,,,,5,7.236495,0,17,17,854,1,a room with windows for walls. lots of plants.f,a room with windows for walls that has a vase on the floor by one of the potted plants.,wolfe2,111_R_pot,1,29,A38IPIPA3T3G4,2021-01-25_10h33.34.610,MetaAwareness,2020.1.2,Win32,60,3INZSNUD81TCXSEGGUB9N3E5OOS9DQ,A38IPIPA3T3G4,3YW4XOSQKROJB9K1OER76GVY2Q9U1I,QXWY0,QXWY0,3YW4XOSQKROJB9K1OER76GVY2Q9U1I,3YW4XOSQKROJB9K1OER76GVY2Q9U1I,271100,271100,,,,,,,,,,
,,,,4,1.553745,0,18,18,503,1,modern looking space with black white and red furniture,"modern living space with black, white and red furniture including a pole",wolfe2,066_L_vase,1,29,A38IPIPA3T3G4,2021-01-25_10h33.34.610,MetaAwareness,2020.1.2,Win32,60,3INZSNUD81TCXSEGGUB9N3E5OOS9DQ,A38IPIPA3T3G4,3YW4XOSQKROJB9K1OER76GVY2Q9U1I,QXWY0,QXWY0,3YW4XOSQKROJB9K1OER76GVY2Q9U1I,3YW4XOSQKROJB9K1OER76GVY2Q9U1I,271100,271100,,,,,,,,,,
,,,,5,1.480815,0,19,19,308,1,a fully furnished dining table with nice paintings in the side wall,a fully furnishe dining room with three nice paintings in the wall just above the cupboard.,wolfe2,040_L_painting,4,29,A38IPIPA3T3G4,2021-01-25_10h33.34.610,MetaAwareness,2020.1.2,Win32,60,3INZSNUD81TCXSEGGUB9N3E5OOS9DQ,A38IPIPA3T3G4,3YW4XOSQKROJB9K1OER76GVY2Q9U1I,QXWY0,QXWY0,3YW4XOSQKROJB9K1OER76GVY2Q9U1I,3YW4XOSQKROJB9K1OER76GVY2Q9U1I,271100,271100,,,,,,,,,,
,,,,5,2.87769,0,20,20,513,1,a nice looking boardroom with nice white rolling office chairs. there is a cabinet off to the side behind a chair with nothing on it.,a nice looking boardroom with nice white rolling office chairs. there is a cabinet off to the side behind a chair with a picture on top of it.,wolfe2,067_L_painting,3,29,A38IPIPA3T3G4,2021-01-25_10h33.34.610,MetaAwareness,2020.1.2,Win32,60,3INZSNUD81TCXSEGGUB9N3E5OOS9DQ,A38IPIPA3T3G4,3YW4XOSQKROJB9K1OER76GVY2Q9U1I,QXWY0,QXWY0,3YW4XOSQKROJB9K1OER76GVY2Q9U1I,3YW4XOSQKROJB9K1OER76GVY2Q9U1I,271100,271100,,,,,,,,,,
,,,,4,2.202445,0,21,21,842,1,a small green plant in the corner of the room draws your eye to the view through the wall length windows overlooking the pool.,a carpeted room provides a wonderful view of the pool through many wall length windows and sliding door.,wolfe2,110_L_plant,1,29,A38IPIPA3T3G4,2021-01-25_10h33.34.610,MetaAwareness,2020.1.2,Win32,60,3INZSNUD81TCXSEGGUB9N3E5OOS9DQ,A38IPIPA3T3G4,3YW4XOSQKROJB9K1OER76GVY2Q9U1I,QXWY0,QXWY0,3YW4XOSQKROJB9K1OER76GVY2Q9U1I,3YW4XOSQKROJB9K1OER76GVY2Q9U1I,271100,271100,,,,,,,,,,
,,,,4,2.8677,0,22,22,196,1,"a modern living room with a view of a park, white couches, and two pointy art pieces on a built-in wood shelving system","a modern living room with a view of a park, white couches, and three pointy art pieces on a built-in wood shelving system",wolfe2,025_R_vase,5,29,A38IPIPA3T3G4,2021-01-25_10h33.34.610,MetaAwareness,2020.1.2,Win32,60,3INZSNUD81TCXSEGGUB9N3E5OOS9DQ,A38IPIPA3T3G4,3YW4XOSQKROJB9K1OER76GVY2Q9U1I,QXWY0,QXWY0,3YW4XOSQKROJB9K1OER76GVY2Q9U1I,3YW4XOSQKROJB9K1OER76GVY2Q9U1I,271100,271100,,,,,,,,,,
,,,,5,10.165645,0,23,23,49,1,iin a bathroom there is a sink with no soap dish next to a yellow bucker,in a bathroom there is a  sink with a soapdish with soap next to a yellow bucket,wolfe2,007_L_soap,1,29,A38IPIPA3T3G4,2021-01-25_10h33.34.610,MetaAwareness,2020.1.2,Win32,60,3INZSNUD81TCXSEGGUB9N3E5OOS9DQ,A38IPIPA3T3G4,3YW4XOSQKROJB9K1OER76GVY2Q9U1I,QXWY0,QXWY0,3YW4XOSQKROJB9K1OER76GVY2Q9U1I,3YW4XOSQKROJB9K1OER76GVY2Q9U1I,271100,271100,,,,,,,,,,
,,,,4,1.653515,0,24,24,460,1,a dining room with two wine glasses on the table,a dining room with three wine glasses on the table,wolfe2,061_L_glass,5,29,A38IPIPA3T3G4,2021-01-25_10h33.34.610,MetaAwareness,2020.1.2,Win32,60,3INZSNUD81TCXSEGGUB9N3E5OOS9DQ,A38IPIPA3T3G4,3YW4XOSQKROJB9K1OER76GVY2Q9U1I,QXWY0,QXWY0,3YW4XOSQKROJB9K1OER76GVY2Q9U1I,3YW4XOSQKROJB9K1OER76GVY2Q9U1I,271100,271100,,,,,,,,,,
,,,,4,2.35825,0,25,25,255,1,a white living room with no vase on the shelf,a white living room with a glass vase on the shelf,wolfe2,033_L_vase,3,29,A38IPIPA3T3G4,2021-01-25_10h33.34.610,MetaAwareness,2020.1.2,Win32,60,3INZSNUD81TCXSEGGUB9N3E5OOS9DQ,A38IPIPA3T3G4,3YW4XOSQKROJB9K1OER76GVY2Q9U1I,QXWY0,QXWY0,3YW4XOSQKROJB9K1OER76GVY2Q9U1I,3YW4XOSQKROJB9K1OER76GVY2Q9U1I,271100,271100,,,,,,,,,,
,,,,4,4.61491,0,26,26,257,1,there is an empty spot of the shelf between two items in this modern living room,there is a vase between two objects in this modern living room,wolfe2,033_R_vase,2,29,A38IPIPA3T3G4,2021-01-25_10h33.34.610,MetaAwareness,2020.1.2,Win32,60,3INZSNUD81TCXSEGGUB9N3E5OOS9DQ,A38IPIPA3T3G4,3YW4XOSQKROJB9K1OER76GVY2Q9U1I,QXWY0,QXWY0,3YW4XOSQKROJB9K1OER76GVY2Q9U1I,3YW4XOSQKROJB9K1OER76GVY2Q9U1I,271100,271100,,,,,,,,,,
,,,,3,7.98444,0,27,27,746,1,a bedroom with wall light bulb,a bedroom without bulb on the wall,wolfe2,097_R_light,5,29,A38IPIPA3T3G4,2021-01-25_10h33.34.610,MetaAwareness,2020.1.2,Win32,60,3INZSNUD81TCXSEGGUB9N3E5OOS9DQ,A38IPIPA3T3G4,3YW4XOSQKROJB9K1OER76GVY2Q9U1I,QXWY0,QXWY0,3YW4XOSQKROJB9K1OER76GVY2Q9U1I,3YW4XOSQKROJB9K1OER76GVY2Q9U1I,271100,271100,,,,,,,,,,
,,,,4,1.686655,0,28,28,53,1,two sinks in front of a mirror with one bar of soap,two sinks in front of a mirror with two bars of soap,wolfe2,007_R_soap,3,29,A38IPIPA3T3G4,2021-01-25_10h33.34.610,MetaAwareness,2020.1.2,Win32,60,3INZSNUD81TCXSEGGUB9N3E5OOS9DQ,A38IPIPA3T3G4,3YW4XOSQKROJB9K1OER76GVY2Q9U1I,QXWY0,QXWY0,3YW4XOSQKROJB9K1OER76GVY2Q9U1I,3YW4XOSQKROJB9K1OER76GVY2Q9U1I,271100,271100,,,,,,,,,,
,,,,4,11.736125,0,29,29,372,1,a modern red and beige bedroom with a narrow black bookshelf that has one empty shelf,a modern red and beige bedroom with a narrow black bookshelf that has no empty shelves,wolfe2,050_L_book,2,29,A38IPIPA3T3G4,2021-01-25_10h33.34.610,MetaAwareness,2020.1.2,Win32,60,3INZSNUD81TCXSEGGUB9N3E5OOS9DQ,A38IPIPA3T3G4,3YW4XOSQKROJB9K1OER76GVY2Q9U1I,QXWY0,QXWY0,3YW4XOSQKROJB9K1OER76GVY2Q9U1I,3YW4XOSQKROJB9K1OER76GVY2Q9U1I,271100,271100,,,,,,,,,,
,,,,,,,,,,,,,,,,29,A38IPIPA3T3G4,2021-01-25_10h33.34.610,MetaAwareness,2020.1.2,Win32,60,3INZSNUD81TCXSEGGUB9N3E5OOS9DQ,A38IPIPA3T3G4,3YW4XOSQKROJB9K1OER76GVY2Q9U1I,QXWY0,QXWY0,3YW4XOSQKROJB9K1OER76GVY2Q9U1I,3YW4XOSQKROJB9K1OER76GVY2Q9U1I,271100,271100,3,2.572085,someone laying underneath a blue beach umbrella on a crowded beach,someone laying underneath a blue beach umbrella on a crowded beach,same,5,1.489625,members of a marching band crossing a track that all have feather plumes at the front of their hats,a cluttered and rustic looking cafe with 10 hanging lights,different
