consent_response.keys,consent_response.rt,key_resp_2.keys,key_resp_2.rt,user_resp.keys,user_resp.rt,trials.thisRepN,trials.thisTrialN,trials.thisN,trials.thisIndex,trials.ran,image_1_text,image_2_text,database,image,number,age,worker_ID,date,expName,psychopyVersion,OS,frameRate,hitId,workerId,assignmentId,a,tp_a,b,tp_b,c,tp_c,catch_same_resp.keys,catch_same_resp.rt,image_1_text_catch_same,image_2_text_catch_same,image_catch_same,catch_different_resp.keys,catch_different_resp.rt,image_1_text_catch_different,image_2_text_catch_different,image_catch_different
space,30.41016,space,8.125345,1,6.74124,0,0,0,46,1,the well-outfitted bedroom is missing a vase.,a vase balances the bedroom in this image,wolfe2,006_R_vase,4,41,A3FOKP72T5I4FR,2021-01-25_08h52.17.119,MetaAwareness,2020.1.2,Win32,60,3PMR2DOWOP4GW9TBKTXZ8JFXPF945A,A3FOKP72T5I4FR,3L0KT67Y8FJ0M230BY3G52OKOEGSYH,YT0L0,YT0L0,3L0KT67Y8FJ0M230BY3G52OKOEGSYH,3L0KT67Y8FJ0M230BY3G52OKOEGSYH,271100,271100,,,,,,,,,,
,,,,5,10.026645,0,1,1,281,1,the red makes this room look inviting and virile.  it is a great use of space.  there seems to be a bowl or other dish missing.,"in this photo, the dish makes the room appear more put together and more complete.",wolfe2,036_R_bowl,1,41,A3FOKP72T5I4FR,2021-01-25_08h52.17.119,MetaAwareness,2020.1.2,Win32,60,3PMR2DOWOP4GW9TBKTXZ8JFXPF945A,A3FOKP72T5I4FR,3L0KT67Y8FJ0M230BY3G52OKOEGSYH,YT0L0,YT0L0,3L0KT67Y8FJ0M230BY3G52OKOEGSYH,3L0KT67Y8FJ0M230BY3G52OKOEGSYH,271100,271100,,,,,,,,,,
,,,,1,4.860095,0,2,2,699,1,a lamp on the floor closed to the wall,an empty corner in the room,wolfe2,090_R_lamp,6,41,A3FOKP72T5I4FR,2021-01-25_08h52.17.119,MetaAwareness,2020.1.2,Win32,60,3PMR2DOWOP4GW9TBKTXZ8JFXPF945A,A3FOKP72T5I4FR,3L0KT67Y8FJ0M230BY3G52OKOEGSYH,YT0L0,YT0L0,3L0KT67Y8FJ0M230BY3G52OKOEGSYH,3L0KT67Y8FJ0M230BY3G52OKOEGSYH,271100,271100,,,,,,,,,,
,,,,6,3.10796,0,3,3,374,1,it shows empty shelf,it shows three books in shelf,wolfe2,050_L_book,4,41,A3FOKP72T5I4FR,2021-01-25_08h52.17.119,MetaAwareness,2020.1.2,Win32,60,3PMR2DOWOP4GW9TBKTXZ8JFXPF945A,A3FOKP72T5I4FR,3L0KT67Y8FJ0M230BY3G52OKOEGSYH,YT0L0,YT0L0,3L0KT67Y8FJ0M230BY3G52OKOEGSYH,3L0KT67Y8FJ0M230BY3G52OKOEGSYH,271100,271100,,,,,,,,,,
,,,,6,7.68329,0,4,4,456,1,a formal dining room with dark wood furniture including a table set with china and glasses.,a formal dining room with dark wood furniture including a table set with china and glasses.,wolfe2,061_L_glass,1,41,A3FOKP72T5I4FR,2021-01-25_08h52.17.119,MetaAwareness,2020.1.2,Win32,60,3PMR2DOWOP4GW9TBKTXZ8JFXPF945A,A3FOKP72T5I4FR,3L0KT67Y8FJ0M230BY3G52OKOEGSYH,YT0L0,YT0L0,3L0KT67Y8FJ0M230BY3G52OKOEGSYH,3L0KT67Y8FJ0M230BY3G52OKOEGSYH,271100,271100,,,,,,,,,,
,,,,5,5.125165,0,5,5,424,1,a modern bedroom without a blanket on the couch,a modern bedroom with a blanket folded up and sitting on the couch,wolfe2,056_R_comforter,3,41,A3FOKP72T5I4FR,2021-01-25_08h52.17.119,MetaAwareness,2020.1.2,Win32,60,3PMR2DOWOP4GW9TBKTXZ8JFXPF945A,A3FOKP72T5I4FR,3L0KT67Y8FJ0M230BY3G52OKOEGSYH,YT0L0,YT0L0,3L0KT67Y8FJ0M230BY3G52OKOEGSYH,3L0KT67Y8FJ0M230BY3G52OKOEGSYH,271100,271100,,,,,,,,,,
,,,,4,4.17469,0,6,6,301,1,a very open dining room with small circular ceiling lights,a ventilation duct on the ceiling in a living room,wolfe2,039_L_ventilator,2,41,A3FOKP72T5I4FR,2021-01-25_08h52.17.119,MetaAwareness,2020.1.2,Win32,60,3PMR2DOWOP4GW9TBKTXZ8JFXPF945A,A3FOKP72T5I4FR,3L0KT67Y8FJ0M230BY3G52OKOEGSYH,YT0L0,YT0L0,3L0KT67Y8FJ0M230BY3G52OKOEGSYH,3L0KT67Y8FJ0M230BY3G52OKOEGSYH,271100,271100,,,,,,,,,,
,,,,4,3.130195,0,7,7,457,1,a dinning room table with 4 wine glasses,a dining room table with 5 wine glasses,wolfe2,061_L_glass,2,41,A3FOKP72T5I4FR,2021-01-25_08h52.17.119,MetaAwareness,2020.1.2,Win32,60,3PMR2DOWOP4GW9TBKTXZ8JFXPF945A,A3FOKP72T5I4FR,3L0KT67Y8FJ0M230BY3G52OKOEGSYH,YT0L0,YT0L0,3L0KT67Y8FJ0M230BY3G52OKOEGSYH,3L0KT67Y8FJ0M230BY3G52OKOEGSYH,271100,271100,,,,,,,,,,
,,,,5,5.77196,0,8,8,541,1,a very coy old school looking living room,a very cozy old school looking living room with some flowers on one of the end tables,wolfe2,071_L_art,2,41,A3FOKP72T5I4FR,2021-01-25_08h52.17.119,MetaAwareness,2020.1.2,Win32,60,3PMR2DOWOP4GW9TBKTXZ8JFXPF945A,A3FOKP72T5I4FR,3L0KT67Y8FJ0M230BY3G52OKOEGSYH,YT0L0,YT0L0,3L0KT67Y8FJ0M230BY3G52OKOEGSYH,3L0KT67Y8FJ0M230BY3G52OKOEGSYH,271100,271100,,,,,,,,,,
,,,,1,2.618845,0,9,9,63,1,white blinds in the bathroom,a bottle sitting on the window sill,wolfe2,008_R_bottle,7,41,A3FOKP72T5I4FR,2021-01-25_08h52.17.119,MetaAwareness,2020.1.2,Win32,60,3PMR2DOWOP4GW9TBKTXZ8JFXPF945A,A3FOKP72T5I4FR,3L0KT67Y8FJ0M230BY3G52OKOEGSYH,YT0L0,YT0L0,3L0KT67Y8FJ0M230BY3G52OKOEGSYH,3L0KT67Y8FJ0M230BY3G52OKOEGSYH,271100,271100,,,,,,,,,,
,,,,5,3.37197,0,10,10,622,1,an office with a large window,an office with a large window and something in the corner,wolfe2,081_L_football,3,41,A3FOKP72T5I4FR,2021-01-25_08h52.17.119,MetaAwareness,2020.1.2,Win32,60,3PMR2DOWOP4GW9TBKTXZ8JFXPF945A,A3FOKP72T5I4FR,3L0KT67Y8FJ0M230BY3G52OKOEGSYH,YT0L0,YT0L0,3L0KT67Y8FJ0M230BY3G52OKOEGSYH,3L0KT67Y8FJ0M230BY3G52OKOEGSYH,271100,271100,,,,,,,,,,
,,,,4,3.363445,0,11,11,600,1,a ;bathroom with only one water handle,a bathroom with two water handle,wolfe2,078_L_faucet,4,41,A3FOKP72T5I4FR,2021-01-25_08h52.17.119,MetaAwareness,2020.1.2,Win32,60,3PMR2DOWOP4GW9TBKTXZ8JFXPF945A,A3FOKP72T5I4FR,3L0KT67Y8FJ0M230BY3G52OKOEGSYH,YT0L0,YT0L0,3L0KT67Y8FJ0M230BY3G52OKOEGSYH,3L0KT67Y8FJ0M230BY3G52OKOEGSYH,271100,271100,,,,,,,,,,
,,,,6,6.6435,0,12,12,236,1,a very nice rustic living room with one large wooden beam on the ceiling,a very nice rustic living room with large wooden beams on the celing.,wolfe2,031_L_log,2,41,A3FOKP72T5I4FR,2021-01-25_08h52.17.119,MetaAwareness,2020.1.2,Win32,60,3PMR2DOWOP4GW9TBKTXZ8JFXPF945A,A3FOKP72T5I4FR,3L0KT67Y8FJ0M230BY3G52OKOEGSYH,YT0L0,YT0L0,3L0KT67Y8FJ0M230BY3G52OKOEGSYH,3L0KT67Y8FJ0M230BY3G52OKOEGSYH,271100,271100,,,,,,,,,,
,,,,5,6.00946,0,13,13,190,1,"a modern looking living room with plenty of natural light, and plenty of clean looking white with 5 decorative pieces on the back shelf","a modern looking living room with plenty of natural light, and plenty of clean looking white with 6 decorative pieces on the back shelf",wolfe2,025_L_vase,2,41,A3FOKP72T5I4FR,2021-01-25_08h52.17.119,MetaAwareness,2020.1.2,Win32,60,3PMR2DOWOP4GW9TBKTXZ8JFXPF945A,A3FOKP72T5I4FR,3L0KT67Y8FJ0M230BY3G52OKOEGSYH,YT0L0,YT0L0,3L0KT67Y8FJ0M230BY3G52OKOEGSYH,3L0KT67Y8FJ0M230BY3G52OKOEGSYH,271100,271100,,,,,,,,,,
,,,,5,6.125645,0,14,14,416,1,"a modern, minimalist bedroom decorated with a red theme, with two circular rugs in shades of red and black","a modern, minimalist bedroom decorated with a red theme, with three circular rugs in shades of blue, red and black",wolfe2,055_R_carpet,6,41,A3FOKP72T5I4FR,2021-01-25_08h52.17.119,MetaAwareness,2020.1.2,Win32,60,3PMR2DOWOP4GW9TBKTXZ8JFXPF945A,A3FOKP72T5I4FR,3L0KT67Y8FJ0M230BY3G52OKOEGSYH,YT0L0,YT0L0,3L0KT67Y8FJ0M230BY3G52OKOEGSYH,3L0KT67Y8FJ0M230BY3G52OKOEGSYH,271100,271100,,,,,,,,,,
,,,,5,3.63148,0,15,15,199,1,a bathroom with a wood commode top,a bathroom with a wood commode top and a shelf,wolfe2,026_L_rack,4,41,A3FOKP72T5I4FR,2021-01-25_08h52.17.119,MetaAwareness,2020.1.2,Win32,60,3PMR2DOWOP4GW9TBKTXZ8JFXPF945A,A3FOKP72T5I4FR,3L0KT67Y8FJ0M230BY3G52OKOEGSYH,YT0L0,YT0L0,3L0KT67Y8FJ0M230BY3G52OKOEGSYH,3L0KT67Y8FJ0M230BY3G52OKOEGSYH,271100,271100,,,,,,,,,,
,,,,5,4.820675,0,16,16,524,1,a white bathroom with a black tub and one faucet knob on the wall behind the tub,a white bathroom with a black tub and two faucet knobs on the wall behind the tub,wolfe2,068_R_faucet,3,41,A3FOKP72T5I4FR,2021-01-25_08h52.17.119,MetaAwareness,2020.1.2,Win32,60,3PMR2DOWOP4GW9TBKTXZ8JFXPF945A,A3FOKP72T5I4FR,3L0KT67Y8FJ0M230BY3G52OKOEGSYH,YT0L0,YT0L0,3L0KT67Y8FJ0M230BY3G52OKOEGSYH,3L0KT67Y8FJ0M230BY3G52OKOEGSYH,271100,271100,,,,,,,,,,
,,,,1,5.2859,0,17,17,156,1,a home office without a keyboard,a home office with a keyboard,wolfe2,021_L_keyboard,4,41,A3FOKP72T5I4FR,2021-01-25_08h52.17.119,MetaAwareness,2020.1.2,Win32,60,3PMR2DOWOP4GW9TBKTXZ8JFXPF945A,A3FOKP72T5I4FR,3L0KT67Y8FJ0M230BY3G52OKOEGSYH,YT0L0,YT0L0,3L0KT67Y8FJ0M230BY3G52OKOEGSYH,3L0KT67Y8FJ0M230BY3G52OKOEGSYH,271100,271100,,,,,,,,,,
,,,,5,3.06115,0,18,18,151,1,a small office with two discs on the wall,a small office with three discs on the wall,wolfe2,020_L_walldeco,4,41,A3FOKP72T5I4FR,2021-01-25_08h52.17.119,MetaAwareness,2020.1.2,Win32,60,3PMR2DOWOP4GW9TBKTXZ8JFXPF945A,A3FOKP72T5I4FR,3L0KT67Y8FJ0M230BY3G52OKOEGSYH,YT0L0,YT0L0,3L0KT67Y8FJ0M230BY3G52OKOEGSYH,3L0KT67Y8FJ0M230BY3G52OKOEGSYH,271100,271100,,,,,,,,,,
,,,,5,4.394605,0,19,19,556,1,"a bedroom with a bed, night stand, chair and dresser with a missing handle","a bedroom with a bed, night stand, chair and dresser",wolfe2,072_R_handle,4,41,A3FOKP72T5I4FR,2021-01-25_08h52.17.119,MetaAwareness,2020.1.2,Win32,60,3PMR2DOWOP4GW9TBKTXZ8JFXPF945A,A3FOKP72T5I4FR,3L0KT67Y8FJ0M230BY3G52OKOEGSYH,YT0L0,YT0L0,3L0KT67Y8FJ0M230BY3G52OKOEGSYH,3L0KT67Y8FJ0M230BY3G52OKOEGSYH,271100,271100,,,,,,,,,,
,,,,6,4.799865,0,20,20,735,1,"a feminine bedroom with a large mirror, and a picture frame sitting on top of the vanity table",a feminine bedroom with a large mirror and nothing sitting on top of the vanity table,wolfe2,096_R_painting,1,41,A3FOKP72T5I4FR,2021-01-25_08h52.17.119,MetaAwareness,2020.1.2,Win32,60,3PMR2DOWOP4GW9TBKTXZ8JFXPF945A,A3FOKP72T5I4FR,3L0KT67Y8FJ0M230BY3G52OKOEGSYH,YT0L0,YT0L0,3L0KT67Y8FJ0M230BY3G52OKOEGSYH,3L0KT67Y8FJ0M230BY3G52OKOEGSYH,271100,271100,,,,,,,,,,
,,,,1,2.948925,0,21,21,909,1,clean and tidyday room,potted plants wooden furniture room,wolfe2,118_R_shoes,5,41,A3FOKP72T5I4FR,2021-01-25_08h52.17.119,MetaAwareness,2020.1.2,Win32,60,3PMR2DOWOP4GW9TBKTXZ8JFXPF945A,A3FOKP72T5I4FR,3L0KT67Y8FJ0M230BY3G52OKOEGSYH,YT0L0,YT0L0,3L0KT67Y8FJ0M230BY3G52OKOEGSYH,3L0KT67Y8FJ0M230BY3G52OKOEGSYH,271100,271100,,,,,,,,,,
,,,,1,2.755915,0,22,22,631,1,the shelf is vacant,there is some type of bowl on the shelf,wolfe2,082_R_bowl,4,41,A3FOKP72T5I4FR,2021-01-25_08h52.17.119,MetaAwareness,2020.1.2,Win32,60,3PMR2DOWOP4GW9TBKTXZ8JFXPF945A,A3FOKP72T5I4FR,3L0KT67Y8FJ0M230BY3G52OKOEGSYH,YT0L0,YT0L0,3L0KT67Y8FJ0M230BY3G52OKOEGSYH,3L0KT67Y8FJ0M230BY3G52OKOEGSYH,271100,271100,,,,,,,,,,
,,,,5,15.960865,0,23,23,610,1,"large, spacious kitchen with stone floors,bookshelf island, and 17 cubbies holding dishes","large, spacious kitchen with stone floors, a kitchen island with bookshelves, and 18 cubbies with dishes",wolfe2,079_R_bowl,2,41,A3FOKP72T5I4FR,2021-01-25_08h52.17.119,MetaAwareness,2020.1.2,Win32,60,3PMR2DOWOP4GW9TBKTXZ8JFXPF945A,A3FOKP72T5I4FR,3L0KT67Y8FJ0M230BY3G52OKOEGSYH,YT0L0,YT0L0,3L0KT67Y8FJ0M230BY3G52OKOEGSYH,3L0KT67Y8FJ0M230BY3G52OKOEGSYH,271100,271100,,,,,,,,,,
,,,,5,11.81186,0,24,24,320,1,a modern looking bathroom with two marble ceramic sinks,a modern looking bathroom with two marble ceramic sinks with shiny metallic faucets,wolfe2,042_L_tap,2,41,A3FOKP72T5I4FR,2021-01-25_08h52.17.119,MetaAwareness,2020.1.2,Win32,60,3PMR2DOWOP4GW9TBKTXZ8JFXPF945A,A3FOKP72T5I4FR,3L0KT67Y8FJ0M230BY3G52OKOEGSYH,YT0L0,YT0L0,3L0KT67Y8FJ0M230BY3G52OKOEGSYH,3L0KT67Y8FJ0M230BY3G52OKOEGSYH,271100,271100,,,,,,,,,,
,,,,1,7.13115,0,25,25,177,1,an outdoor padio with lighting and a tv,an outdoor padio with a remote missing,wolfe2,023_R_remote,1,41,A3FOKP72T5I4FR,2021-01-25_08h52.17.119,MetaAwareness,2020.1.2,Win32,60,3PMR2DOWOP4GW9TBKTXZ8JFXPF945A,A3FOKP72T5I4FR,3L0KT67Y8FJ0M230BY3G52OKOEGSYH,YT0L0,YT0L0,3L0KT67Y8FJ0M230BY3G52OKOEGSYH,3L0KT67Y8FJ0M230BY3G52OKOEGSYH,271100,271100,,,,,,,,,,
,,,,5,4.1567,0,26,26,894,1,there is a object behind a potted plant in this rustic room,there is just a wooden floor behind this potted plant in the rustic room,wolfe2,116_R_basket,4,41,A3FOKP72T5I4FR,2021-01-25_08h52.17.119,MetaAwareness,2020.1.2,Win32,60,3PMR2DOWOP4GW9TBKTXZ8JFXPF945A,A3FOKP72T5I4FR,3L0KT67Y8FJ0M230BY3G52OKOEGSYH,YT0L0,YT0L0,3L0KT67Y8FJ0M230BY3G52OKOEGSYH,3L0KT67Y8FJ0M230BY3G52OKOEGSYH,271100,271100,,,,,,,,,,
,,,,5,4.18259,0,27,27,353,1,a beautiful makeup table with a dark top and bottom and a white center sits in a bedroom,a beautiful makeup table with a dark top and bottom and a white center with some accents sits in a bedroom.,wolfe2,047_L_handle,2,41,A3FOKP72T5I4FR,2021-01-25_08h52.17.119,MetaAwareness,2020.1.2,Win32,60,3PMR2DOWOP4GW9TBKTXZ8JFXPF945A,A3FOKP72T5I4FR,3L0KT67Y8FJ0M230BY3G52OKOEGSYH,YT0L0,YT0L0,3L0KT67Y8FJ0M230BY3G52OKOEGSYH,3L0KT67Y8FJ0M230BY3G52OKOEGSYH,271100,271100,,,,,,,,,,
,,,,5,3.274405,0,28,28,684,1,a beauty salon with two posters on the left wall,a beauty salon with one poster on the left wall,wolfe2,089_L_poster,6,41,A3FOKP72T5I4FR,2021-01-25_08h52.17.119,MetaAwareness,2020.1.2,Win32,60,3PMR2DOWOP4GW9TBKTXZ8JFXPF945A,A3FOKP72T5I4FR,3L0KT67Y8FJ0M230BY3G52OKOEGSYH,YT0L0,YT0L0,3L0KT67Y8FJ0M230BY3G52OKOEGSYH,3L0KT67Y8FJ0M230BY3G52OKOEGSYH,271100,271100,,,,,,,,,,
,,,,4,3.29356,0,29,29,388,1,a bedroom with a fireplace has a photo of a couple on top with a missing object,a bedroom with a fireplace and a photo of a couple on top. an object appears next to the photo,wolfe2,051_R_owl,7,41,A3FOKP72T5I4FR,2021-01-25_08h52.17.119,MetaAwareness,2020.1.2,Win32,60,3PMR2DOWOP4GW9TBKTXZ8JFXPF945A,A3FOKP72T5I4FR,3L0KT67Y8FJ0M230BY3G52OKOEGSYH,YT0L0,YT0L0,3L0KT67Y8FJ0M230BY3G52OKOEGSYH,3L0KT67Y8FJ0M230BY3G52OKOEGSYH,271100,271100,,,,,,,,,,
,,,,,,,,,,,,,,,,41,A3FOKP72T5I4FR,2021-01-25_08h52.17.119,MetaAwareness,2020.1.2,Win32,60,3PMR2DOWOP4GW9TBKTXZ8JFXPF945A,A3FOKP72T5I4FR,3L0KT67Y8FJ0M230BY3G52OKOEGSYH,YT0L0,YT0L0,3L0KT67Y8FJ0M230BY3G52OKOEGSYH,3L0KT67Y8FJ0M230BY3G52OKOEGSYH,271100,271100,6,3.22314,someone laying underneath a blue beach umbrella on a crowded beach,someone laying underneath a blue beach umbrella on a crowded beach,same,1,3.69737,members of a marching band crossing a track that all have feather plumes at the front of their hats,a cluttered and rustic looking cafe with 10 hanging lights,different
