consent_response.keys,consent_response.rt,key_resp_2.keys,key_resp_2.rt,user_resp.keys,user_resp.rt,trials.thisRepN,trials.thisTrialN,trials.thisN,trials.thisIndex,trials.ran,image_1_text,image_2_text,database,image,number,age,worker_ID,date,expName,psychopyVersion,OS,frameRate,hitId,workerId,assignmentId,a,tp_a,b,tp_b,c,tp_c,catch_same_resp.keys,catch_same_resp.rt,image_1_text_catch_same,image_2_text_catch_same,image_catch_same,catch_different_resp.keys,catch_different_resp.rt,image_1_text_catch_different,image_2_text_catch_different,image_catch_different
space,9.856,space,20.233,1,14.587,0,0,0,484,1,a very modern living room with a desk with nothing on it,a very modern living room with a desk with a notebook on it,wolfe2,063_R_laptop,4,30,A3HAD27BKZSU30,2021-01-25_09h47.01.430,MetaAwareness,2020.1.2,Win32,60,34R3P23QHT44L4WQV14RS81EEH3HWU,A3HAD27BKZSU30,33PPUNGG398OQDDSSV5UTZSQ86CRZU,GUP30,GUP30,33PPUNGG398OQDDSSV5UTZSQ86CRZU,33PPUNGG398OQDDSSV5UTZSQ86CRZU,271100,271100,,,,,,,,,,
,,,,6,7.08,0,1,1,194,1,"a living room with a large window, two couches, a table with books on it, and a shelf with one narrow wooden thing in the lower right corner","a living room with a large window, two couches, a table with books on it, and a shelf with two narrow wooden things in the lower right corner",wolfe2,025_R_vase,3,30,A3HAD27BKZSU30,2021-01-25_09h47.01.430,MetaAwareness,2020.1.2,Win32,60,34R3P23QHT44L4WQV14RS81EEH3HWU,A3HAD27BKZSU30,33PPUNGG398OQDDSSV5UTZSQ86CRZU,GUP30,GUP30,33PPUNGG398OQDDSSV5UTZSQ86CRZU,33PPUNGG398OQDDSSV5UTZSQ86CRZU,271100,271100,,,,,,,,,,
,,,,5,2.508,0,2,2,732,1,a modern looking girls office with something on the counter   num_enter,a modern looking girls room with nothing on the counter,wolfe2,096_L_painting,3,30,A3HAD27BKZSU30,2021-01-25_09h47.01.430,MetaAwareness,2020.1.2,Win32,60,34R3P23QHT44L4WQV14RS81EEH3HWU,A3HAD27BKZSU30,33PPUNGG398OQDDSSV5UTZSQ86CRZU,GUP30,GUP30,33PPUNGG398OQDDSSV5UTZSQ86CRZU,33PPUNGG398OQDDSSV5UTZSQ86CRZU,271100,271100,,,,,,,,,,
,,,,4,6.143,0,3,3,55,1,"a colorful bathroom counter area with a striped hand towel, mint green walls, a large mirror, a chalkboard, and a small bowl next to one of the two rectangular sinks","a colorful bathroom counter area with a striped hand towel, mint green walls, a large mirror, a chalkboard, and a small bowl next to each rectangular sink",wolfe2,007_R_soap,6,30,A3HAD27BKZSU30,2021-01-25_09h47.01.430,MetaAwareness,2020.1.2,Win32,60,34R3P23QHT44L4WQV14RS81EEH3HWU,A3HAD27BKZSU30,33PPUNGG398OQDDSSV5UTZSQ86CRZU,GUP30,GUP30,33PPUNGG398OQDDSSV5UTZSQ86CRZU,33PPUNGG398OQDDSSV5UTZSQ86CRZU,271100,271100,,,,,,,,,,
,,,,6,6.648,0,4,4,888,1,"a pretty looking dinning area. there is a sliding door with a potted plant in front of it off to the left near the wall, with some metallic object next to it.",a pretty looking dinning area. there is a sliding door with a potted plant in front of the sliding door. the potted plant is close to the wall and has nothing beside it.,wolfe2,116_L_basket,2,30,A3HAD27BKZSU30,2021-01-25_09h47.01.430,MetaAwareness,2020.1.2,Win32,60,34R3P23QHT44L4WQV14RS81EEH3HWU,A3HAD27BKZSU30,33PPUNGG398OQDDSSV5UTZSQ86CRZU,GUP30,GUP30,33PPUNGG398OQDDSSV5UTZSQ86CRZU,33PPUNGG398OQDDSSV5UTZSQ86CRZU,271100,271100,,,,,,,,,,
,,,,4,8.193,0,5,5,520,1,"a newly updated bathroom, that includes a soaking tub full with flower petals and three storage attachments on the tile","a newly updated bathroom, that includes a soaking tub full with flower petals and two storage attachments on the tile",wolfe2,068_L_faucet,5,30,A3HAD27BKZSU30,2021-01-25_09h47.01.430,MetaAwareness,2020.1.2,Win32,60,34R3P23QHT44L4WQV14RS81EEH3HWU,A3HAD27BKZSU30,33PPUNGG398OQDDSSV5UTZSQ86CRZU,GUP30,GUP30,33PPUNGG398OQDDSSV5UTZSQ86CRZU,33PPUNGG398OQDDSSV5UTZSQ86CRZU,271100,271100,,,,,,,,,,
,,,,4,13.476,0,6,6,859,1,a bright sunroom with fan and red seating with magazines in a basket,a bright sunroom with fan and red seating,wolfe2,112_L_basket,2,30,A3HAD27BKZSU30,2021-01-25_09h47.01.430,MetaAwareness,2020.1.2,Win32,60,34R3P23QHT44L4WQV14RS81EEH3HWU,A3HAD27BKZSU30,33PPUNGG398OQDDSSV5UTZSQ86CRZU,GUP30,GUP30,33PPUNGG398OQDDSSV5UTZSQ86CRZU,33PPUNGG398OQDDSSV5UTZSQ86CRZU,271100,271100,,,,,,,,,,
,,,,5,1.56,0,7,7,676,1,the picture is very union and clock is showing the time,the picture is very union and there is no clock,wolfe2,088_L_clock,3,30,A3HAD27BKZSU30,2021-01-25_09h47.01.430,MetaAwareness,2020.1.2,Win32,60,34R3P23QHT44L4WQV14RS81EEH3HWU,A3HAD27BKZSU30,33PPUNGG398OQDDSSV5UTZSQ86CRZU,GUP30,GUP30,33PPUNGG398OQDDSSV5UTZSQ86CRZU,33PPUNGG398OQDDSSV5UTZSQ86CRZU,271100,271100,,,,,,,,,,
,,,,6,3.328,0,8,8,164,1,a white and chrome kitchen with two hanging lights,a white and chrome kitchen with three hanging lights,wolfe2,022_L_lamp,3,30,A3HAD27BKZSU30,2021-01-25_09h47.01.430,MetaAwareness,2020.1.2,Win32,60,34R3P23QHT44L4WQV14RS81EEH3HWU,A3HAD27BKZSU30,33PPUNGG398OQDDSSV5UTZSQ86CRZU,GUP30,GUP30,33PPUNGG398OQDDSSV5UTZSQ86CRZU,33PPUNGG398OQDDSSV5UTZSQ86CRZU,271100,271100,,,,,,,,,,
,,,,5,2.166,0,9,9,933,1,a master bedroom with a side table that has a telephone and a lamp on it,a master bedroom with a side table that has a lamp on it,wolfe2,121_R_car,3,30,A3HAD27BKZSU30,2021-01-25_09h47.01.430,MetaAwareness,2020.1.2,Win32,60,34R3P23QHT44L4WQV14RS81EEH3HWU,A3HAD27BKZSU30,33PPUNGG398OQDDSSV5UTZSQ86CRZU,GUP30,GUP30,33PPUNGG398OQDDSSV5UTZSQ86CRZU,33PPUNGG398OQDDSSV5UTZSQ86CRZU,271100,271100,,,,,,,,,,
,,,,6,1.478,0,10,10,682,1,a salon with art at the third and fourth chairs on left side,a salon with art at the fourth chair on the left side,wolfe2,089_L_poster,4,30,A3HAD27BKZSU30,2021-01-25_09h47.01.430,MetaAwareness,2020.1.2,Win32,60,34R3P23QHT44L4WQV14RS81EEH3HWU,A3HAD27BKZSU30,33PPUNGG398OQDDSSV5UTZSQ86CRZU,GUP30,GUP30,33PPUNGG398OQDDSSV5UTZSQ86CRZU,33PPUNGG398OQDDSSV5UTZSQ86CRZU,271100,271100,,,,,,,,,,
,,,,5,1.583,0,11,11,565,1,a living room decorated in shabby chic with a wrought iron coffee table and nic nacks.,a living room decorated in shabby chic with a wrought iron coffee table holding a book and nic nacks.,wolfe2,074_L_book,3,30,A3HAD27BKZSU30,2021-01-25_09h47.01.430,MetaAwareness,2020.1.2,Win32,60,34R3P23QHT44L4WQV14RS81EEH3HWU,A3HAD27BKZSU30,33PPUNGG398OQDDSSV5UTZSQ86CRZU,GUP30,GUP30,33PPUNGG398OQDDSSV5UTZSQ86CRZU,33PPUNGG398OQDDSSV5UTZSQ86CRZU,271100,271100,,,,,,,,,,
,,,,6,1.626,0,12,12,138,1,a backyard where plants on the ground and two chairs at the patio and without one plant that stick above the patio,a backyard where plants on the ground and two chairs at the patio and with one plant that stick above the patio,wolfe2,018_L_plant,5,30,A3HAD27BKZSU30,2021-01-25_09h47.01.430,MetaAwareness,2020.1.2,Win32,60,34R3P23QHT44L4WQV14RS81EEH3HWU,A3HAD27BKZSU30,33PPUNGG398OQDDSSV5UTZSQ86CRZU,GUP30,GUP30,33PPUNGG398OQDDSSV5UTZSQ86CRZU,33PPUNGG398OQDDSSV5UTZSQ86CRZU,271100,271100,,,,,,,,,,
,,,,5,2.697,0,13,13,370,1,a stylish bedroom that doesn't have any framed pictures on the walls next to the large full length mirror.,a stylish bedroom that has one framed picture on the wall next to the large full length mirror.,wolfe2,049_R_painting,4,30,A3HAD27BKZSU30,2021-01-25_09h47.01.430,MetaAwareness,2020.1.2,Win32,60,34R3P23QHT44L4WQV14RS81EEH3HWU,A3HAD27BKZSU30,33PPUNGG398OQDDSSV5UTZSQ86CRZU,GUP30,GUP30,33PPUNGG398OQDDSSV5UTZSQ86CRZU,33PPUNGG398OQDDSSV5UTZSQ86CRZU,271100,271100,,,,,,,,,,
,,,,6,4.459,0,14,14,108,1,"a bright, open sitting area with 3 lights overhead","a bright, open sitting area with 4 lights overhead",wolfe2,014_L_lamp,1,30,A3HAD27BKZSU30,2021-01-25_09h47.01.430,MetaAwareness,2020.1.2,Win32,60,34R3P23QHT44L4WQV14RS81EEH3HWU,A3HAD27BKZSU30,33PPUNGG398OQDDSSV5UTZSQ86CRZU,GUP30,GUP30,33PPUNGG398OQDDSSV5UTZSQ86CRZU,33PPUNGG398OQDDSSV5UTZSQ86CRZU,271100,271100,,,,,,,,,,
,,,,5,1.81,0,15,15,749,1,a bedroom with an object in front of the chair,a bedroom with nothing in front of the chair,wolfe2,098_L_slippers,3,30,A3HAD27BKZSU30,2021-01-25_09h47.01.430,MetaAwareness,2020.1.2,Win32,60,34R3P23QHT44L4WQV14RS81EEH3HWU,A3HAD27BKZSU30,33PPUNGG398OQDDSSV5UTZSQ86CRZU,GUP30,GUP30,33PPUNGG398OQDDSSV5UTZSQ86CRZU,33PPUNGG398OQDDSSV5UTZSQ86CRZU,271100,271100,,,,,,,,,,
,,,,6,4.368,0,16,16,258,1,there is a brass candleholder on the black shelf.  the living room has a cream colored leather couch.,there is a glass vase next to the brass candleholder on the black shelf that houses books and knick knacks,wolfe2,033_R_vase,3,30,A3HAD27BKZSU30,2021-01-25_09h47.01.430,MetaAwareness,2020.1.2,Win32,60,34R3P23QHT44L4WQV14RS81EEH3HWU,A3HAD27BKZSU30,33PPUNGG398OQDDSSV5UTZSQ86CRZU,GUP30,GUP30,33PPUNGG398OQDDSSV5UTZSQ86CRZU,33PPUNGG398OQDDSSV5UTZSQ86CRZU,271100,271100,,,,,,,,,,
,,,,5,2.381,0,17,17,130,1,a living room area with a fireplace with no wood inside,a living room area with a fireplace with wood inside,wolfe2,017_L_wood,3,30,A3HAD27BKZSU30,2021-01-25_09h47.01.430,MetaAwareness,2020.1.2,Win32,60,34R3P23QHT44L4WQV14RS81EEH3HWU,A3HAD27BKZSU30,33PPUNGG398OQDDSSV5UTZSQ86CRZU,GUP30,GUP30,33PPUNGG398OQDDSSV5UTZSQ86CRZU,33PPUNGG398OQDDSSV5UTZSQ86CRZU,271100,271100,,,,,,,,,,
,,,,6,1.335,0,18,18,294,1,this dining room is cozy and has a nice little table as well as plenty of natural light.,"this dining room has a lovely view of the outside, as well as a small but comfortable looking table set. on the wall there is a quaint looking piece of art that almost looks like a puzzle piece.",wolfe2,038_L_art,2,30,A3HAD27BKZSU30,2021-01-25_09h47.01.430,MetaAwareness,2020.1.2,Win32,60,34R3P23QHT44L4WQV14RS81EEH3HWU,A3HAD27BKZSU30,33PPUNGG398OQDDSSV5UTZSQ86CRZU,GUP30,GUP30,33PPUNGG398OQDDSSV5UTZSQ86CRZU,33PPUNGG398OQDDSSV5UTZSQ86CRZU,271100,271100,,,,,,,,,,
,,,,5,1.321,0,19,19,330,1,a clean living room with a shelving unit to the left of the tv that has the largest shelf empty,a clean living room with a shelving unit to the left of the tv that has a clock in the largest shelf,wolfe2,043_R_clock,3,30,A3HAD27BKZSU30,2021-01-25_09h47.01.430,MetaAwareness,2020.1.2,Win32,60,34R3P23QHT44L4WQV14RS81EEH3HWU,A3HAD27BKZSU30,33PPUNGG398OQDDSSV5UTZSQ86CRZU,GUP30,GUP30,33PPUNGG398OQDDSSV5UTZSQ86CRZU,33PPUNGG398OQDDSSV5UTZSQ86CRZU,271100,271100,,,,,,,,,,
,,,,6,1.799,0,20,20,854,1,a room with windows for walls. lots of plants.f,a room with windows for walls that has a vase on the floor by one of the potted plants.,wolfe2,111_R_pot,1,30,A3HAD27BKZSU30,2021-01-25_09h47.01.430,MetaAwareness,2020.1.2,Win32,60,34R3P23QHT44L4WQV14RS81EEH3HWU,A3HAD27BKZSU30,33PPUNGG398OQDDSSV5UTZSQ86CRZU,GUP30,GUP30,33PPUNGG398OQDDSSV5UTZSQ86CRZU,33PPUNGG398OQDDSSV5UTZSQ86CRZU,271100,271100,,,,,,,,,,
,,,,6,6.576,0,21,21,846,1,"a living room with a coffee table that has a plant on it, a second table with a lamp, a plant in the corner, and a view of a pool","a living room with a coffee table that has a plant on it, a second table with a lamp, no plant in the corner, and a view of a pool",wolfe2,110_R_plant,2,30,A3HAD27BKZSU30,2021-01-25_09h47.01.430,MetaAwareness,2020.1.2,Win32,60,34R3P23QHT44L4WQV14RS81EEH3HWU,A3HAD27BKZSU30,33PPUNGG398OQDDSSV5UTZSQ86CRZU,GUP30,GUP30,33PPUNGG398OQDDSSV5UTZSQ86CRZU,33PPUNGG398OQDDSSV5UTZSQ86CRZU,271100,271100,,,,,,,,,,
,,,,5,4.512,0,22,22,935,1,a sleek bedroom with a large window and a decorative item on the bedside table,a sleek bedroom with a large window and a bedside table,wolfe2,121_R_car,5,30,A3HAD27BKZSU30,2021-01-25_09h47.01.430,MetaAwareness,2020.1.2,Win32,60,34R3P23QHT44L4WQV14RS81EEH3HWU,A3HAD27BKZSU30,33PPUNGG398OQDDSSV5UTZSQ86CRZU,GUP30,GUP30,33PPUNGG398OQDDSSV5UTZSQ86CRZU,33PPUNGG398OQDDSSV5UTZSQ86CRZU,271100,271100,,,,,,,,,,
,,,,6,1.702,0,23,23,593,1,a clean kitchen with four stools and one missing a footrest.,a clean kitchen with four stools that all have footrests.,wolfe2,077_R_footrest,1,30,A3HAD27BKZSU30,2021-01-25_09h47.01.430,MetaAwareness,2020.1.2,Win32,60,34R3P23QHT44L4WQV14RS81EEH3HWU,A3HAD27BKZSU30,33PPUNGG398OQDDSSV5UTZSQ86CRZU,GUP30,GUP30,33PPUNGG398OQDDSSV5UTZSQ86CRZU,33PPUNGG398OQDDSSV5UTZSQ86CRZU,271100,271100,,,,,,,,,,
,,,,5,1.301,0,24,24,308,1,a fully furnished dining table with nice paintings in the side wall,a fully furnishe dining room with three nice paintings in the wall just above the cupboard.,wolfe2,040_L_painting,4,30,A3HAD27BKZSU30,2021-01-25_09h47.01.430,MetaAwareness,2020.1.2,Win32,60,34R3P23QHT44L4WQV14RS81EEH3HWU,A3HAD27BKZSU30,33PPUNGG398OQDDSSV5UTZSQ86CRZU,GUP30,GUP30,33PPUNGG398OQDDSSV5UTZSQ86CRZU,33PPUNGG398OQDDSSV5UTZSQ86CRZU,271100,271100,,,,,,,,,,
,,,,6,1.151,0,25,25,761,1,a modern dining room with a candal and holder on the wall,a modern dining room without a candal and holder on the wall,wolfe2,099_R_sconce,4,30,A3HAD27BKZSU30,2021-01-25_09h47.01.430,MetaAwareness,2020.1.2,Win32,60,34R3P23QHT44L4WQV14RS81EEH3HWU,A3HAD27BKZSU30,33PPUNGG398OQDDSSV5UTZSQ86CRZU,GUP30,GUP30,33PPUNGG398OQDDSSV5UTZSQ86CRZU,33PPUNGG398OQDDSSV5UTZSQ86CRZU,271100,271100,,,,,,,,,,
,,,,5,1.843,0,26,26,578,1,a bathroom with a big mirror and no towel rack,a bathroom with a big mirror and a towel rack next to the mirror,wolfe2,076_L_hook,1,30,A3HAD27BKZSU30,2021-01-25_09h47.01.430,MetaAwareness,2020.1.2,Win32,60,34R3P23QHT44L4WQV14RS81EEH3HWU,A3HAD27BKZSU30,33PPUNGG398OQDDSSV5UTZSQ86CRZU,GUP30,GUP30,33PPUNGG398OQDDSSV5UTZSQ86CRZU,33PPUNGG398OQDDSSV5UTZSQ86CRZU,271100,271100,,,,,,,,,,
,,,,6,1.302,0,27,27,338,1,"shiny, bright and clean washroom","shiny, bright and clean washroom with a light inside a brown square",wolfe2,044_R_light,2,30,A3HAD27BKZSU30,2021-01-25_09h47.01.430,MetaAwareness,2020.1.2,Win32,60,34R3P23QHT44L4WQV14RS81EEH3HWU,A3HAD27BKZSU30,33PPUNGG398OQDDSSV5UTZSQ86CRZU,GUP30,GUP30,33PPUNGG398OQDDSSV5UTZSQ86CRZU,33PPUNGG398OQDDSSV5UTZSQ86CRZU,271100,271100,,,,,,,,,,
,,,,5,1.715,0,28,28,380,1,a white mantle with 4 decorations sitting on it,a white mantle with 5 decorations sitting on it,wolfe2,051_L_owl,4,30,A3HAD27BKZSU30,2021-01-25_09h47.01.430,MetaAwareness,2020.1.2,Win32,60,34R3P23QHT44L4WQV14RS81EEH3HWU,A3HAD27BKZSU30,33PPUNGG398OQDDSSV5UTZSQ86CRZU,GUP30,GUP30,33PPUNGG398OQDDSSV5UTZSQ86CRZU,33PPUNGG398OQDDSSV5UTZSQ86CRZU,271100,271100,,,,,,,,,,
,,,,6,1.466,0,29,29,815,1,inside a building with something hanging up on the wall to get paper towels,a living room with nothing on the wall hung up,wolfe2,106_R_toweldispenser,1,30,A3HAD27BKZSU30,2021-01-25_09h47.01.430,MetaAwareness,2020.1.2,Win32,60,34R3P23QHT44L4WQV14RS81EEH3HWU,A3HAD27BKZSU30,33PPUNGG398OQDDSSV5UTZSQ86CRZU,GUP30,GUP30,33PPUNGG398OQDDSSV5UTZSQ86CRZU,33PPUNGG398OQDDSSV5UTZSQ86CRZU,271100,271100,,,,,,,,,,
,,,,,,,,,,,,,,,,30,A3HAD27BKZSU30,2021-01-25_09h47.01.430,MetaAwareness,2020.1.2,Win32,60,34R3P23QHT44L4WQV14RS81EEH3HWU,A3HAD27BKZSU30,33PPUNGG398OQDDSSV5UTZSQ86CRZU,GUP30,GUP30,33PPUNGG398OQDDSSV5UTZSQ86CRZU,33PPUNGG398OQDDSSV5UTZSQ86CRZU,271100,271100,5,1.671,someone laying underneath a blue beach umbrella on a crowded beach,someone laying underneath a blue beach umbrella on a crowded beach,same,4,2.206,members of a marching band crossing a track that all have feather plumes at the front of their hats,a cluttered and rustic looking cafe with 10 hanging lights,different
