consent_response.keys,consent_response.rt,key_resp_2.keys,key_resp_2.rt,user_resp.keys,user_resp.rt,trials.thisRepN,trials.thisTrialN,trials.thisN,trials.thisIndex,trials.ran,image_1_text,image_2_text,database,image,number,age,worker_ID,date,expName,psychopyVersion,OS,frameRate,hitId,workerId,assignmentId,a,tp_a,b,tp_b,c,tp_c,catch_same_resp.keys,catch_same_resp.rt,image_1_text_catch_same,image_2_text_catch_same,image_catch_same,catch_different_resp.keys,catch_different_resp.rt,image_1_text_catch_different,image_2_text_catch_different,image_catch_different
space,9.97215,space,9.126,5,13.9795,0,0,0,56,1,a blue bathroom. there is a mirror in the center with a sink below it. there is a window to the left of the mirror with a shade drawn on it with a bottle with a spray bottle with a red cap on it.,a blue bathroom. there is a mirror in the center with a sink below it. there is a window to the left of the mirror with a shade drawn on it with a spray bottle with a red cape with a smaller bottle next to it.,wolfe2,008_L_bottle,2,38,A3KVKK1XLBTSN3,2021-01-25_10h37.15.889,MetaAwareness,2020.1.2,Win32,60,3INZSNUD81TCXSEGGUB9N3E5OOS9DQ,A3KVKK1XLBTSN3,3ZDAD0O1T2GC1XQ5V2M4WTDXORHTXI,1DDZ0,1DDZ0,3ZDAD0O1T2GC1XQ5V2M4WTDXORHTXI,3ZDAD0O1T2GC1XQ5V2M4WTDXORHTXI,271100,271100,,,,,,,,,,
,,,,5,17.051,0,1,1,152,1,"a small office space with a desk that has a laptop and monitor sitting on it, with a wall sculpture that has only two discs aligned vertically","a small office space with a desk that has a laptop and monitor sitting on it, with a wall sculpture that has three discs aligned vertically",wolfe2,020_R_walldeco,1,38,A3KVKK1XLBTSN3,2021-01-25_10h37.15.889,MetaAwareness,2020.1.2,Win32,60,3INZSNUD81TCXSEGGUB9N3E5OOS9DQ,A3KVKK1XLBTSN3,3ZDAD0O1T2GC1XQ5V2M4WTDXORHTXI,1DDZ0,1DDZ0,3ZDAD0O1T2GC1XQ5V2M4WTDXORHTXI,3ZDAD0O1T2GC1XQ5V2M4WTDXORHTXI,271100,271100,,,,,,,,,,
,,,,5,7.36157,0,2,2,309,1,a dinning room that only has two pictures above the cabinet.,a dinning room that has three pictures above the cabinet.,wolfe2,040_R_painting,1,38,A3KVKK1XLBTSN3,2021-01-25_10h37.15.889,MetaAwareness,2020.1.2,Win32,60,3INZSNUD81TCXSEGGUB9N3E5OOS9DQ,A3KVKK1XLBTSN3,3ZDAD0O1T2GC1XQ5V2M4WTDXORHTXI,1DDZ0,1DDZ0,3ZDAD0O1T2GC1XQ5V2M4WTDXORHTXI,3ZDAD0O1T2GC1XQ5V2M4WTDXORHTXI,271100,271100,,,,,,,,,,
,,,,5,13.70069,0,3,3,464,1,"a traditional dining room with a chandelier, floral accent pillows, dark wood furniture, and a set table with several goblets","a traditional dining room with a chandelier, floral accent pillows, dark wood furniture, and a set table with with about half a dozen goblets",wolfe2,061_R_glass,3,38,A3KVKK1XLBTSN3,2021-01-25_10h37.15.889,MetaAwareness,2020.1.2,Win32,60,3INZSNUD81TCXSEGGUB9N3E5OOS9DQ,A3KVKK1XLBTSN3,3ZDAD0O1T2GC1XQ5V2M4WTDXORHTXI,1DDZ0,1DDZ0,3ZDAD0O1T2GC1XQ5V2M4WTDXORHTXI,3ZDAD0O1T2GC1XQ5V2M4WTDXORHTXI,271100,271100,,,,,,,,,,
,,,,5,10.639675,0,4,4,383,1,a charming victorian-style fireplace with a photo and a clock on the mantelpiece,"a charming victorian-style fireplace with a photo, a clock, and a small figurine on the mantelpiece",wolfe2,051_R_owl,1,38,A3KVKK1XLBTSN3,2021-01-25_10h37.15.889,MetaAwareness,2020.1.2,Win32,60,3INZSNUD81TCXSEGGUB9N3E5OOS9DQ,A3KVKK1XLBTSN3,3ZDAD0O1T2GC1XQ5V2M4WTDXORHTXI,1DDZ0,1DDZ0,3ZDAD0O1T2GC1XQ5V2M4WTDXORHTXI,3ZDAD0O1T2GC1XQ5V2M4WTDXORHTXI,271100,271100,,,,,,,,,,
,,,,4,8.347445,0,5,5,293,1,"a dining room that contains a table and chairs, and several plates are displayed.","a dining room with a table, chairs and plates displayed behind  it. there is artwork hanging on the wall.",wolfe2,038_L_art,1,38,A3KVKK1XLBTSN3,2021-01-25_10h37.15.889,MetaAwareness,2020.1.2,Win32,60,3INZSNUD81TCXSEGGUB9N3E5OOS9DQ,A3KVKK1XLBTSN3,3ZDAD0O1T2GC1XQ5V2M4WTDXORHTXI,1DDZ0,1DDZ0,3ZDAD0O1T2GC1XQ5V2M4WTDXORHTXI,3ZDAD0O1T2GC1XQ5V2M4WTDXORHTXI,271100,271100,,,,,,,,,,
,,,,4,11.1086,0,6,6,952,1,"a lounge area with lumbar supported chairs, a glass table, and miniature oval shaped lamp","a lounge area with lumbar supported chairs, a glass table, and clear overview of nature from outside",wolfe2,124_L_vase,2,38,A3KVKK1XLBTSN3,2021-01-25_10h37.15.889,MetaAwareness,2020.1.2,Win32,60,3INZSNUD81TCXSEGGUB9N3E5OOS9DQ,A3KVKK1XLBTSN3,3ZDAD0O1T2GC1XQ5V2M4WTDXORHTXI,1DDZ0,1DDZ0,3ZDAD0O1T2GC1XQ5V2M4WTDXORHTXI,3ZDAD0O1T2GC1XQ5V2M4WTDXORHTXI,271100,271100,,,,,,,,,,
,,,,4,15.74371,0,7,7,6,1,it's a very elegant colored bedroom with fancy paintings and colors all around,"it's still very elegantly colored bedroom with fancy art and decorations, but theres a mirror on the wall now as well.",wolfe2,001_R_mirror,3,38,A3KVKK1XLBTSN3,2021-01-25_10h37.15.889,MetaAwareness,2020.1.2,Win32,60,3INZSNUD81TCXSEGGUB9N3E5OOS9DQ,A3KVKK1XLBTSN3,3ZDAD0O1T2GC1XQ5V2M4WTDXORHTXI,1DDZ0,1DDZ0,3ZDAD0O1T2GC1XQ5V2M4WTDXORHTXI,3ZDAD0O1T2GC1XQ5V2M4WTDXORHTXI,271100,271100,,,,,,,,,,
,,,,3,7.77427,0,8,8,289,1,a very luxurious bathroom designed for comfort and relationation.,a very relaxing room with plenty of storage space in the cabinets,wolfe2,037_R_towel,1,38,A3KVKK1XLBTSN3,2021-01-25_10h37.15.889,MetaAwareness,2020.1.2,Win32,60,3INZSNUD81TCXSEGGUB9N3E5OOS9DQ,A3KVKK1XLBTSN3,3ZDAD0O1T2GC1XQ5V2M4WTDXORHTXI,1DDZ0,1DDZ0,3ZDAD0O1T2GC1XQ5V2M4WTDXORHTXI,3ZDAD0O1T2GC1XQ5V2M4WTDXORHTXI,271100,271100,,,,,,,,,,
,,,,3,3.919545,0,9,9,756,1,a dining area with a candle holder and candle on the wall,a dining area with a picture on the wall,wolfe2,099_L_sconce,3,38,A3KVKK1XLBTSN3,2021-01-25_10h37.15.889,MetaAwareness,2020.1.2,Win32,60,3INZSNUD81TCXSEGGUB9N3E5OOS9DQ,A3KVKK1XLBTSN3,3ZDAD0O1T2GC1XQ5V2M4WTDXORHTXI,1DDZ0,1DDZ0,3ZDAD0O1T2GC1XQ5V2M4WTDXORHTXI,3ZDAD0O1T2GC1XQ5V2M4WTDXORHTXI,271100,271100,,,,,,,,,,
,,,,5,7.357425,0,10,10,680,1,an empty barber salon with three posters between the mirrors.,an empty barbar salon with two posters between the mirrors.,wolfe2,089_L_poster,1,38,A3KVKK1XLBTSN3,2021-01-25_10h37.15.889,MetaAwareness,2020.1.2,Win32,60,3INZSNUD81TCXSEGGUB9N3E5OOS9DQ,A3KVKK1XLBTSN3,3ZDAD0O1T2GC1XQ5V2M4WTDXORHTXI,1DDZ0,1DDZ0,3ZDAD0O1T2GC1XQ5V2M4WTDXORHTXI,3ZDAD0O1T2GC1XQ5V2M4WTDXORHTXI,271100,271100,,,,,,,,,,
,,,,4,5.658535,0,11,11,118,1,there is nothing but white paint on the ceiling of this room.,there is small sight on the ceiling of this room.,wolfe2,015_R_ceilinglight,2,38,A3KVKK1XLBTSN3,2021-01-25_10h37.15.889,MetaAwareness,2020.1.2,Win32,60,3INZSNUD81TCXSEGGUB9N3E5OOS9DQ,A3KVKK1XLBTSN3,3ZDAD0O1T2GC1XQ5V2M4WTDXORHTXI,1DDZ0,1DDZ0,3ZDAD0O1T2GC1XQ5V2M4WTDXORHTXI,3ZDAD0O1T2GC1XQ5V2M4WTDXORHTXI,271100,271100,,,,,,,,,,
,,,,4,16.51065,0,12,12,695,1,a bedroom with red walls and white trimming and two large closets with doors that are wooden with mirrored glass covering most of the door and a lamp in the far right corner.,a bedroom with red walls and white trimming and two large closets with doors that are wooden with mirrored glass covering most of the door.,wolfe2,090_R_lamp,1,38,A3KVKK1XLBTSN3,2021-01-25_10h37.15.889,MetaAwareness,2020.1.2,Win32,60,3INZSNUD81TCXSEGGUB9N3E5OOS9DQ,A3KVKK1XLBTSN3,3ZDAD0O1T2GC1XQ5V2M4WTDXORHTXI,1DDZ0,1DDZ0,3ZDAD0O1T2GC1XQ5V2M4WTDXORHTXI,3ZDAD0O1T2GC1XQ5V2M4WTDXORHTXI,271100,271100,,,,,,,,,,
,,,,5,58.853035,0,13,13,495,1,"a youth bedroom in tan tones. there's a bed, a desk, and a shelf for media. there are three stacks on the longer shelf.","a youth bedroom in tan tones. there's a bed, a desk, and a shelf for media.  there are four stacks on the longer shelf.",wolfe2,065_L_cd,3,38,A3KVKK1XLBTSN3,2021-01-25_10h37.15.889,MetaAwareness,2020.1.2,Win32,60,3INZSNUD81TCXSEGGUB9N3E5OOS9DQ,A3KVKK1XLBTSN3,3ZDAD0O1T2GC1XQ5V2M4WTDXORHTXI,1DDZ0,1DDZ0,3ZDAD0O1T2GC1XQ5V2M4WTDXORHTXI,3ZDAD0O1T2GC1XQ5V2M4WTDXORHTXI,271100,271100,,,,,,,,,,
,,,,5,5.766105,0,14,14,621,1,a play area without a toy next to shelves,a play area with a toy next to the shelves,wolfe2,081_L_football,2,38,A3KVKK1XLBTSN3,2021-01-25_10h37.15.889,MetaAwareness,2020.1.2,Win32,60,3INZSNUD81TCXSEGGUB9N3E5OOS9DQ,A3KVKK1XLBTSN3,3ZDAD0O1T2GC1XQ5V2M4WTDXORHTXI,1DDZ0,1DDZ0,3ZDAD0O1T2GC1XQ5V2M4WTDXORHTXI,3ZDAD0O1T2GC1XQ5V2M4WTDXORHTXI,271100,271100,,,,,,,,,,
,,,,5,4.03895,0,15,15,199,1,a bathroom with a wood commode top,a bathroom with a wood commode top and a shelf,wolfe2,026_L_rack,4,38,A3KVKK1XLBTSN3,2021-01-25_10h37.15.889,MetaAwareness,2020.1.2,Win32,60,3INZSNUD81TCXSEGGUB9N3E5OOS9DQ,A3KVKK1XLBTSN3,3ZDAD0O1T2GC1XQ5V2M4WTDXORHTXI,1DDZ0,1DDZ0,3ZDAD0O1T2GC1XQ5V2M4WTDXORHTXI,3ZDAD0O1T2GC1XQ5V2M4WTDXORHTXI,271100,271100,,,,,,,,,,
,,,,5,7.277555,0,16,16,665,1,a small aparmtnet with something on the desk  num_enter,a small apartment with something small on desk,wolfe2,086_L_book,3,38,A3KVKK1XLBTSN3,2021-01-25_10h37.15.889,MetaAwareness,2020.1.2,Win32,60,3INZSNUD81TCXSEGGUB9N3E5OOS9DQ,A3KVKK1XLBTSN3,3ZDAD0O1T2GC1XQ5V2M4WTDXORHTXI,1DDZ0,1DDZ0,3ZDAD0O1T2GC1XQ5V2M4WTDXORHTXI,3ZDAD0O1T2GC1XQ5V2M4WTDXORHTXI,271100,271100,,,,,,,,,,
,,,,4,8.234115,0,17,17,743,1,"a large bedroom with a large bed with brown bedding and a large wall mirror, with a dimly lit sconce on the wall","a large bedroom with a large bed with brown bedding and a large wall mirror, with no wall sconce",wolfe2,097_R_light,1,38,A3KVKK1XLBTSN3,2021-01-25_10h37.15.889,MetaAwareness,2020.1.2,Win32,60,3INZSNUD81TCXSEGGUB9N3E5OOS9DQ,A3KVKK1XLBTSN3,3ZDAD0O1T2GC1XQ5V2M4WTDXORHTXI,1DDZ0,1DDZ0,3ZDAD0O1T2GC1XQ5V2M4WTDXORHTXI,3ZDAD0O1T2GC1XQ5V2M4WTDXORHTXI,271100,271100,,,,,,,,,,
,,,,5,3.7664,0,18,18,746,1,a bedroom with wall light bulb,a bedroom without bulb on the wall,wolfe2,097_R_light,5,38,A3KVKK1XLBTSN3,2021-01-25_10h37.15.889,MetaAwareness,2020.1.2,Win32,60,3INZSNUD81TCXSEGGUB9N3E5OOS9DQ,A3KVKK1XLBTSN3,3ZDAD0O1T2GC1XQ5V2M4WTDXORHTXI,1DDZ0,1DDZ0,3ZDAD0O1T2GC1XQ5V2M4WTDXORHTXI,3ZDAD0O1T2GC1XQ5V2M4WTDXORHTXI,271100,271100,,,,,,,,,,
,,,,5,9.15432,0,19,19,282,1,a clean looking kitchen with  four mugs and one bowl on shelf under cabinets to left of stove,a clean looking kitchen with four mugs and two bowls on shelf under cabinets to left of stove,wolfe2,036_R_bowl,2,38,A3KVKK1XLBTSN3,2021-01-25_10h37.15.889,MetaAwareness,2020.1.2,Win32,60,3INZSNUD81TCXSEGGUB9N3E5OOS9DQ,A3KVKK1XLBTSN3,3ZDAD0O1T2GC1XQ5V2M4WTDXORHTXI,1DDZ0,1DDZ0,3ZDAD0O1T2GC1XQ5V2M4WTDXORHTXI,3ZDAD0O1T2GC1XQ5V2M4WTDXORHTXI,271100,271100,,,,,,,,,,
,,,,4,6.903145,0,20,20,323,1,"this tiled bathroom is cream in color, with brown accents set by the towels and the rug on the floor.","this lovely tiled bathroom is cream in color, and there are two faucets on the wall, each going into it's own basin, and each has it's own mirror above it.",wolfe2,042_L_tap,5,38,A3KVKK1XLBTSN3,2021-01-25_10h37.15.889,MetaAwareness,2020.1.2,Win32,60,3INZSNUD81TCXSEGGUB9N3E5OOS9DQ,A3KVKK1XLBTSN3,3ZDAD0O1T2GC1XQ5V2M4WTDXORHTXI,1DDZ0,1DDZ0,3ZDAD0O1T2GC1XQ5V2M4WTDXORHTXI,3ZDAD0O1T2GC1XQ5V2M4WTDXORHTXI,271100,271100,,,,,,,,,,
,,,,4,8.150485,0,21,21,246,1,modern bathroom with one soap container on a lower shelf,very modern bathroom with two soap containers,wolfe2,032_L_bottle,3,38,A3KVKK1XLBTSN3,2021-01-25_10h37.15.889,MetaAwareness,2020.1.2,Win32,60,3INZSNUD81TCXSEGGUB9N3E5OOS9DQ,A3KVKK1XLBTSN3,3ZDAD0O1T2GC1XQ5V2M4WTDXORHTXI,1DDZ0,1DDZ0,3ZDAD0O1T2GC1XQ5V2M4WTDXORHTXI,3ZDAD0O1T2GC1XQ5V2M4WTDXORHTXI,271100,271100,,,,,,,,,,
,,,,5,8.33584,0,22,22,245,1,"a bathroom with a modern design that includes circular shelving units on the wall,one of which currently holds a single white bottle","a bathroom with a modern design that includes circular shelving units on the wall, one of which contains two white bottles",wolfe2,032_L_bottle,2,38,A3KVKK1XLBTSN3,2021-01-25_10h37.15.889,MetaAwareness,2020.1.2,Win32,60,3INZSNUD81TCXSEGGUB9N3E5OOS9DQ,A3KVKK1XLBTSN3,3ZDAD0O1T2GC1XQ5V2M4WTDXORHTXI,1DDZ0,1DDZ0,3ZDAD0O1T2GC1XQ5V2M4WTDXORHTXI,3ZDAD0O1T2GC1XQ5V2M4WTDXORHTXI,271100,271100,,,,,,,,,,
,,,,4,6.536895,0,23,23,791,1,a darker colored bathroom with a very large sink and mirror,"a darker colored bathroom with a very large sink and mirror, but now there isn't a wall hanger at the top right of the mirror.",wolfe2,103_R_hook,5,38,A3KVKK1XLBTSN3,2021-01-25_10h37.15.889,MetaAwareness,2020.1.2,Win32,60,3INZSNUD81TCXSEGGUB9N3E5OOS9DQ,A3KVKK1XLBTSN3,3ZDAD0O1T2GC1XQ5V2M4WTDXORHTXI,1DDZ0,1DDZ0,3ZDAD0O1T2GC1XQ5V2M4WTDXORHTXI,3ZDAD0O1T2GC1XQ5V2M4WTDXORHTXI,271100,271100,,,,,,,,,,
,,,,5,4.799965,0,24,24,335,1,a bathroom with a glass shower and a white bathtub with one light on the side,a bathroom with a glass shower and a white bathtub with two lights on the side,wolfe2,044_L_light,4,38,A3KVKK1XLBTSN3,2021-01-25_10h37.15.889,MetaAwareness,2020.1.2,Win32,60,3INZSNUD81TCXSEGGUB9N3E5OOS9DQ,A3KVKK1XLBTSN3,3ZDAD0O1T2GC1XQ5V2M4WTDXORHTXI,1DDZ0,1DDZ0,3ZDAD0O1T2GC1XQ5V2M4WTDXORHTXI,3ZDAD0O1T2GC1XQ5V2M4WTDXORHTXI,271100,271100,,,,,,,,,,
,,,,2,9.716195,0,25,25,642,1,"colorful bedroom with bunkbed, table and a row of drawers on the wall with one missing",colorful bedroom with an open window and the matching drawer has a white pull fr it.,wolfe2,083_R_knob,4,38,A3KVKK1XLBTSN3,2021-01-25_10h37.15.889,MetaAwareness,2020.1.2,Win32,60,3INZSNUD81TCXSEGGUB9N3E5OOS9DQ,A3KVKK1XLBTSN3,3ZDAD0O1T2GC1XQ5V2M4WTDXORHTXI,1DDZ0,1DDZ0,3ZDAD0O1T2GC1XQ5V2M4WTDXORHTXI,3ZDAD0O1T2GC1XQ5V2M4WTDXORHTXI,271100,271100,,,,,,,,,,
,,,,5,5.633715,0,26,26,150,1,a desk sits in the corner of the room with some decorations on the wall.,a desk sits in the corner of the room with three decorations of circles o the wall.,wolfe2,020_L_walldeco,3,38,A3KVKK1XLBTSN3,2021-01-25_10h37.15.889,MetaAwareness,2020.1.2,Win32,60,3INZSNUD81TCXSEGGUB9N3E5OOS9DQ,A3KVKK1XLBTSN3,3ZDAD0O1T2GC1XQ5V2M4WTDXORHTXI,1DDZ0,1DDZ0,3ZDAD0O1T2GC1XQ5V2M4WTDXORHTXI,3ZDAD0O1T2GC1XQ5V2M4WTDXORHTXI,271100,271100,,,,,,,,,,
,,,,5,10.27616,0,27,27,442,1,a child's bedroom decorated in primary colors and an empty space above the red and white wardrobe.,a child's bedroom decorated in primary colors and a car sitting on top of the red and white wardrobe.,wolfe2,059_L_car,1,38,A3KVKK1XLBTSN3,2021-01-25_10h37.15.889,MetaAwareness,2020.1.2,Win32,60,3INZSNUD81TCXSEGGUB9N3E5OOS9DQ,A3KVKK1XLBTSN3,3ZDAD0O1T2GC1XQ5V2M4WTDXORHTXI,1DDZ0,1DDZ0,3ZDAD0O1T2GC1XQ5V2M4WTDXORHTXI,3ZDAD0O1T2GC1XQ5V2M4WTDXORHTXI,271100,271100,,,,,,,,,,
,,,,1,31.52885,0,28,28,752,1,"the image is blending and matches with grace.   the item, likely shoes, on the floor, give it a suggestion of peace or home.",this image is a little severe.  it needs something more than the carpet strip to give it a comfortable appearance.,wolfe2,098_R_slippers,2,38,A3KVKK1XLBTSN3,2021-01-25_10h37.15.889,MetaAwareness,2020.1.2,Win32,60,3INZSNUD81TCXSEGGUB9N3E5OOS9DQ,A3KVKK1XLBTSN3,3ZDAD0O1T2GC1XQ5V2M4WTDXORHTXI,1DDZ0,1DDZ0,3ZDAD0O1T2GC1XQ5V2M4WTDXORHTXI,3ZDAD0O1T2GC1XQ5V2M4WTDXORHTXI,271100,271100,,,,,,,,,,
,,,,5,6.373815,0,29,29,523,1,"a bathroom with a rectangular white sink basin, a black bathtub, two mirrors, and one faucet over the bathtub","a bathroom with a rectangular white sink basin, a black bathtub, two mirrors, and two faucets over the bathtub",wolfe2,068_R_faucet,2,38,A3KVKK1XLBTSN3,2021-01-25_10h37.15.889,MetaAwareness,2020.1.2,Win32,60,3INZSNUD81TCXSEGGUB9N3E5OOS9DQ,A3KVKK1XLBTSN3,3ZDAD0O1T2GC1XQ5V2M4WTDXORHTXI,1DDZ0,1DDZ0,3ZDAD0O1T2GC1XQ5V2M4WTDXORHTXI,3ZDAD0O1T2GC1XQ5V2M4WTDXORHTXI,271100,271100,,,,,,,,,,
,,,,,,,,,,,,,,,,38,A3KVKK1XLBTSN3,2021-01-25_10h37.15.889,MetaAwareness,2020.1.2,Win32,60,3INZSNUD81TCXSEGGUB9N3E5OOS9DQ,A3KVKK1XLBTSN3,3ZDAD0O1T2GC1XQ5V2M4WTDXORHTXI,1DDZ0,1DDZ0,3ZDAD0O1T2GC1XQ5V2M4WTDXORHTXI,3ZDAD0O1T2GC1XQ5V2M4WTDXORHTXI,271100,271100,6,9.102545,someone laying underneath a blue beach umbrella on a crowded beach,someone laying underneath a blue beach umbrella on a crowded beach,same,1,5.67582,members of a marching band crossing a track that all have feather plumes at the front of their hats,a cluttered and rustic looking cafe with 10 hanging lights,different
