consent_response.keys,consent_response.rt,key_resp_2.keys,key_resp_2.rt,user_resp.keys,user_resp.rt,trials.thisRepN,trials.thisTrialN,trials.thisN,trials.thisIndex,trials.ran,image_1_text,image_2_text,database,image,number,age,worker_ID,date,expName,psychopyVersion,OS,frameRate,hitId,workerId,assignmentId,a,tp_a,b,tp_b,c,tp_c,catch_same_resp.keys,catch_same_resp.rt,image_1_text_catch_same,image_2_text_catch_same,image_catch_same,catch_different_resp.keys,catch_different_resp.rt,image_1_text_catch_different,image_2_text_catch_different,image_catch_different
space,375.77232,space,2.30121,5,4.2521,0,0,0,983,1,"a large modern living room with a large dog, a view of the pool, art on the walls, two sofas, and a pair of wall sconces","a large modern living room with a large dog, a view of the pool, art on the walls, two sofas, and one wall sconce",wolfe2,127_R_light,4,35,A77EN6TMUN0ZM,2021-01-25_09h14.36.632,MetaAwareness,2020.1.2,Win32,60,3HA5ODM5KBVGWOA1GLBUAKP2GJFSVD,A77EN6TMUN0ZM,3YMU66OBIOBBA24K6Y5BUOAEA7EHGS,B6MY0,B6MY0,3YMU66OBIOBBA24K6Y5BUOAEA7EHGS,3YMU66OBIOBBA24K6Y5BUOAEA7EHGS,271100,271100,,,,,,,,,,
,,,,4,1.049565,0,1,1,304,1,a large view of the living room and kitchen with no vent on the ceiling,a large view of the living room and kitchen with a vent on the ceiling,wolfe2,039_R_ventilator,3,35,A77EN6TMUN0ZM,2021-01-25_09h14.36.632,MetaAwareness,2020.1.2,Win32,60,3HA5ODM5KBVGWOA1GLBUAKP2GJFSVD,A77EN6TMUN0ZM,3YMU66OBIOBBA24K6Y5BUOAEA7EHGS,B6MY0,B6MY0,3YMU66OBIOBBA24K6Y5BUOAEA7EHGS,3YMU66OBIOBBA24K6Y5BUOAEA7EHGS,271100,271100,,,,,,,,,,
,,,,3,0.0691,0,2,2,367,1,theres a dresser with a small picture to the left,theres a dresser with no pictures around it,wolfe2,049_L_painting,4,35,A77EN6TMUN0ZM,2021-01-25_09h14.36.632,MetaAwareness,2020.1.2,Win32,60,3HA5ODM5KBVGWOA1GLBUAKP2GJFSVD,A77EN6TMUN0ZM,3YMU66OBIOBBA24K6Y5BUOAEA7EHGS,B6MY0,B6MY0,3YMU66OBIOBBA24K6Y5BUOAEA7EHGS,3YMU66OBIOBBA24K6Y5BUOAEA7EHGS,271100,271100,,,,,,,,,,
,,,,5,0.24022,0,3,3,177,1,an outdoor padio with lighting and a tv,an outdoor padio with a remote missing,wolfe2,023_R_remote,1,35,A77EN6TMUN0ZM,2021-01-25_09h14.36.632,MetaAwareness,2020.1.2,Win32,60,3HA5ODM5KBVGWOA1GLBUAKP2GJFSVD,A77EN6TMUN0ZM,3YMU66OBIOBBA24K6Y5BUOAEA7EHGS,B6MY0,B6MY0,3YMU66OBIOBBA24K6Y5BUOAEA7EHGS,3YMU66OBIOBBA24K6Y5BUOAEA7EHGS,271100,271100,,,,,,,,,,
,,,,4,0.323035,0,4,4,384,1,the cream colored walls match the fireplace,the bottle of perfume sits next to the picture frame of the soon to be divorced newlywed couple on top of the fireplace,wolfe2,051_R_owl,2,35,A77EN6TMUN0ZM,2021-01-25_09h14.36.632,MetaAwareness,2020.1.2,Win32,60,3HA5ODM5KBVGWOA1GLBUAKP2GJFSVD,A77EN6TMUN0ZM,3YMU66OBIOBBA24K6Y5BUOAEA7EHGS,B6MY0,B6MY0,3YMU66OBIOBBA24K6Y5BUOAEA7EHGS,3YMU66OBIOBBA24K6Y5BUOAEA7EHGS,271100,271100,,,,,,,,,,
,,,,3,0.0573,0,5,5,921,1,"modern living room with big glass doors, patio and 3 items on the mantle","modern living room with big glass doors, patio and 2 items on the mantle",wolfe2,120_L_art,2,35,A77EN6TMUN0ZM,2021-01-25_09h14.36.632,MetaAwareness,2020.1.2,Win32,60,3HA5ODM5KBVGWOA1GLBUAKP2GJFSVD,A77EN6TMUN0ZM,3YMU66OBIOBBA24K6Y5BUOAEA7EHGS,B6MY0,B6MY0,3YMU66OBIOBBA24K6Y5BUOAEA7EHGS,3YMU66OBIOBBA24K6Y5BUOAEA7EHGS,271100,271100,,,,,,,,,,
,,,,5,0.116395,0,6,6,453,1,a modern living room with a big couch with a grey pillow on the end of it,a modern living room with a big couch with a grey pillow and a black pillow on the end of it,wolfe2,060_R_pillow,2,35,A77EN6TMUN0ZM,2021-01-25_09h14.36.632,MetaAwareness,2020.1.2,Win32,60,3HA5ODM5KBVGWOA1GLBUAKP2GJFSVD,A77EN6TMUN0ZM,3YMU66OBIOBBA24K6Y5BUOAEA7EHGS,B6MY0,B6MY0,3YMU66OBIOBBA24K6Y5BUOAEA7EHGS,3YMU66OBIOBBA24K6Y5BUOAEA7EHGS,271100,271100,,,,,,,,,,
,,,,4,0.19428,0,7,7,223,1,"a bathroom with 2 sinks, a shower, and 4 shelves.  the bottom right shelf has 2 red cups","a bathroom with 2 sinks, a shower, and 4 shelves. the bottom right shelf has 3 red cups",wolfe2,029_R_glass,2,35,A77EN6TMUN0ZM,2021-01-25_09h14.36.632,MetaAwareness,2020.1.2,Win32,60,3HA5ODM5KBVGWOA1GLBUAKP2GJFSVD,A77EN6TMUN0ZM,3YMU66OBIOBBA24K6Y5BUOAEA7EHGS,B6MY0,B6MY0,3YMU66OBIOBBA24K6Y5BUOAEA7EHGS,3YMU66OBIOBBA24K6Y5BUOAEA7EHGS,271100,271100,,,,,,,,,,
,,,,5,0.166055,0,8,8,196,1,"a modern living room with a view of a park, white couches, and two pointy art pieces on a built-in wood shelving system","a modern living room with a view of a park, white couches, and three pointy art pieces on a built-in wood shelving system",wolfe2,025_R_vase,5,35,A77EN6TMUN0ZM,2021-01-25_09h14.36.632,MetaAwareness,2020.1.2,Win32,60,3HA5ODM5KBVGWOA1GLBUAKP2GJFSVD,A77EN6TMUN0ZM,3YMU66OBIOBBA24K6Y5BUOAEA7EHGS,B6MY0,B6MY0,3YMU66OBIOBBA24K6Y5BUOAEA7EHGS,3YMU66OBIOBBA24K6Y5BUOAEA7EHGS,271100,271100,,,,,,,,,,
,,,,2,0.15015,0,9,9,321,1,"a bathroom with two mirrors and two ceramic basins, only one of which has a faucet above it","a bathroom with two mirrors and two ceramic basins, each of which has its own faucet",wolfe2,042_L_tap,3,35,A77EN6TMUN0ZM,2021-01-25_09h14.36.632,MetaAwareness,2020.1.2,Win32,60,3HA5ODM5KBVGWOA1GLBUAKP2GJFSVD,A77EN6TMUN0ZM,3YMU66OBIOBBA24K6Y5BUOAEA7EHGS,B6MY0,B6MY0,3YMU66OBIOBBA24K6Y5BUOAEA7EHGS,3YMU66OBIOBBA24K6Y5BUOAEA7EHGS,271100,271100,,,,,,,,,,
,,,,5,0.05542,0,10,10,448,1,an empty wardrobe top in the chilren room,a toy car placed on the wardrobe in te children room.,wolfe2,059_R_car,4,35,A77EN6TMUN0ZM,2021-01-25_09h14.36.632,MetaAwareness,2020.1.2,Win32,60,3HA5ODM5KBVGWOA1GLBUAKP2GJFSVD,A77EN6TMUN0ZM,3YMU66OBIOBBA24K6Y5BUOAEA7EHGS,B6MY0,B6MY0,3YMU66OBIOBBA24K6Y5BUOAEA7EHGS,3YMU66OBIOBBA24K6Y5BUOAEA7EHGS,271100,271100,,,,,,,,,,
,,,,5,4.124145,0,11,11,148,1,"a small, but cozy, office space with grass garden and 2 plates on the wall","a small, but cozy, office space with grass garden and 3 plates on the wall",wolfe2,020_L_walldeco,1,35,A77EN6TMUN0ZM,2021-01-25_09h14.36.632,MetaAwareness,2020.1.2,Win32,60,3HA5ODM5KBVGWOA1GLBUAKP2GJFSVD,A77EN6TMUN0ZM,3YMU66OBIOBBA24K6Y5BUOAEA7EHGS,B6MY0,B6MY0,3YMU66OBIOBBA24K6Y5BUOAEA7EHGS,3YMU66OBIOBBA24K6Y5BUOAEA7EHGS,271100,271100,,,,,,,,,,
,,,,4,1.605545,0,12,12,214,1,a modern bathroom with white brick walls,a modern bathroom with gray cube decorations on a black counter,wolfe2,028_L_vase,2,35,A77EN6TMUN0ZM,2021-01-25_09h14.36.632,MetaAwareness,2020.1.2,Win32,60,3HA5ODM5KBVGWOA1GLBUAKP2GJFSVD,A77EN6TMUN0ZM,3YMU66OBIOBBA24K6Y5BUOAEA7EHGS,B6MY0,B6MY0,3YMU66OBIOBBA24K6Y5BUOAEA7EHGS,3YMU66OBIOBBA24K6Y5BUOAEA7EHGS,271100,271100,,,,,,,,,,
,,,,3,0.88988,0,13,13,292,1,a clean and modern looking bathroom with 5 rolled up towels on the shelf,a clean and modern looking bathroom with 6 rolled up towels on the shelf,wolfe2,037_R_towel,5,35,A77EN6TMUN0ZM,2021-01-25_09h14.36.632,MetaAwareness,2020.1.2,Win32,60,3HA5ODM5KBVGWOA1GLBUAKP2GJFSVD,A77EN6TMUN0ZM,3YMU66OBIOBBA24K6Y5BUOAEA7EHGS,B6MY0,B6MY0,3YMU66OBIOBBA24K6Y5BUOAEA7EHGS,3YMU66OBIOBBA24K6Y5BUOAEA7EHGS,271100,271100,,,,,,,,,,
,,,,5,3.68703,0,14,14,529,1,a generic living room with a built-in bookshelf that has candles on the top shelf next to a black box,a generic living room with a built in bookshelf that has a black box on the top shelf,wolfe2,069_R_things,1,35,A77EN6TMUN0ZM,2021-01-25_09h14.36.632,MetaAwareness,2020.1.2,Win32,60,3HA5ODM5KBVGWOA1GLBUAKP2GJFSVD,A77EN6TMUN0ZM,3YMU66OBIOBBA24K6Y5BUOAEA7EHGS,B6MY0,B6MY0,3YMU66OBIOBBA24K6Y5BUOAEA7EHGS,3YMU66OBIOBBA24K6Y5BUOAEA7EHGS,271100,271100,,,,,,,,,,
,,,,3,3.175775,0,15,15,24,1,a small bedroom with view of a city that lacks a cell phone tower in the distance,a small bedroom with view of a city that has a cell phone tower visible in the distance,wolfe2,004_L_electricalgrid,5,35,A77EN6TMUN0ZM,2021-01-25_09h14.36.632,MetaAwareness,2020.1.2,Win32,60,3HA5ODM5KBVGWOA1GLBUAKP2GJFSVD,A77EN6TMUN0ZM,3YMU66OBIOBBA24K6Y5BUOAEA7EHGS,B6MY0,B6MY0,3YMU66OBIOBBA24K6Y5BUOAEA7EHGS,3YMU66OBIOBBA24K6Y5BUOAEA7EHGS,271100,271100,,,,,,,,,,
,,,,4,1.76482,0,16,16,828,1,a fitting room with four items on the right side of the clothes rack.,a fitting room with  three items on the right side of the clothes rack.,wolfe2,107_R_shirts,4,35,A77EN6TMUN0ZM,2021-01-25_09h14.36.632,MetaAwareness,2020.1.2,Win32,60,3HA5ODM5KBVGWOA1GLBUAKP2GJFSVD,A77EN6TMUN0ZM,3YMU66OBIOBBA24K6Y5BUOAEA7EHGS,B6MY0,B6MY0,3YMU66OBIOBBA24K6Y5BUOAEA7EHGS,3YMU66OBIOBBA24K6Y5BUOAEA7EHGS,271100,271100,,,,,,,,,,
,,,,4,2.255635,0,17,17,482,1,"an uspcale room with large windows, a fireplace, and an empty desk","an upscale room with large windows, a fireplace, and a desk with a single white object on it",wolfe2,063_R_laptop,2,35,A77EN6TMUN0ZM,2021-01-25_09h14.36.632,MetaAwareness,2020.1.2,Win32,60,3HA5ODM5KBVGWOA1GLBUAKP2GJFSVD,A77EN6TMUN0ZM,3YMU66OBIOBBA24K6Y5BUOAEA7EHGS,B6MY0,B6MY0,3YMU66OBIOBBA24K6Y5BUOAEA7EHGS,3YMU66OBIOBBA24K6Y5BUOAEA7EHGS,271100,271100,,,,,,,,,,
,,,,3,0.30725,0,18,18,946,1,a sauna room with a plant in the left corner,a sauna room with no plant in the left corner,wolfe2,123_L_pot,4,35,A77EN6TMUN0ZM,2021-01-25_09h14.36.632,MetaAwareness,2020.1.2,Win32,60,3HA5ODM5KBVGWOA1GLBUAKP2GJFSVD,A77EN6TMUN0ZM,3YMU66OBIOBBA24K6Y5BUOAEA7EHGS,B6MY0,B6MY0,3YMU66OBIOBBA24K6Y5BUOAEA7EHGS,3YMU66OBIOBBA24K6Y5BUOAEA7EHGS,271100,271100,,,,,,,,,,
,,,,3,2.50265,0,19,19,668,1,wood like kitchen table that is set with a caserole on the counter,wood like kitchen table that is set with a bowl on the counter,wolfe2,086_R_book,2,35,A77EN6TMUN0ZM,2021-01-25_09h14.36.632,MetaAwareness,2020.1.2,Win32,60,3HA5ODM5KBVGWOA1GLBUAKP2GJFSVD,A77EN6TMUN0ZM,3YMU66OBIOBBA24K6Y5BUOAEA7EHGS,B6MY0,B6MY0,3YMU66OBIOBBA24K6Y5BUOAEA7EHGS,3YMU66OBIOBBA24K6Y5BUOAEA7EHGS,271100,271100,,,,,,,,,,
,,,,4,0.088325,0,20,20,8,1,bedroom with a fireplace that has two photos on the walls and no mirror.,bedroom with fireplace that has two photos and a small mirror on the walls.,wolfe2,001_R_mirror,5,35,A77EN6TMUN0ZM,2021-01-25_09h14.36.632,MetaAwareness,2020.1.2,Win32,60,3HA5ODM5KBVGWOA1GLBUAKP2GJFSVD,A77EN6TMUN0ZM,3YMU66OBIOBBA24K6Y5BUOAEA7EHGS,B6MY0,B6MY0,3YMU66OBIOBBA24K6Y5BUOAEA7EHGS,3YMU66OBIOBBA24K6Y5BUOAEA7EHGS,271100,271100,,,,,,,,,,
,,,,5,0.1132,0,21,21,40,1,"bedroom with four pictures,a mirroe and bed table with lamp","bedroom with four pictures on the wall, a mirror and bed table with lampand vase",wolfe2,006_L_vase,4,35,A77EN6TMUN0ZM,2021-01-25_09h14.36.632,MetaAwareness,2020.1.2,Win32,60,3HA5ODM5KBVGWOA1GLBUAKP2GJFSVD,A77EN6TMUN0ZM,3YMU66OBIOBBA24K6Y5BUOAEA7EHGS,B6MY0,B6MY0,3YMU66OBIOBBA24K6Y5BUOAEA7EHGS,3YMU66OBIOBBA24K6Y5BUOAEA7EHGS,271100,271100,,,,,,,,,,
,,,,3,0.098645,0,22,22,570,1,a living room with no book on the coffee table,a living room with a book on the coffee table,wolfe2,074_R_book,5,35,A77EN6TMUN0ZM,2021-01-25_09h14.36.632,MetaAwareness,2020.1.2,Win32,60,3HA5ODM5KBVGWOA1GLBUAKP2GJFSVD,A77EN6TMUN0ZM,3YMU66OBIOBBA24K6Y5BUOAEA7EHGS,B6MY0,B6MY0,3YMU66OBIOBBA24K6Y5BUOAEA7EHGS,3YMU66OBIOBBA24K6Y5BUOAEA7EHGS,271100,271100,,,,,,,,,,
,,,,5,0.063785,0,23,23,253,1,a very nice contemporary living room with a shelf with serveral nice pieces of art on display.,a very nice contemporary living room with a shelf with several nice pieces of art on display as well as a very nice vase.,wolfe2,033_L_vase,1,35,A77EN6TMUN0ZM,2021-01-25_09h14.36.632,MetaAwareness,2020.1.2,Win32,60,3HA5ODM5KBVGWOA1GLBUAKP2GJFSVD,A77EN6TMUN0ZM,3YMU66OBIOBBA24K6Y5BUOAEA7EHGS,B6MY0,B6MY0,3YMU66OBIOBBA24K6Y5BUOAEA7EHGS,3YMU66OBIOBBA24K6Y5BUOAEA7EHGS,271100,271100,,,,,,,,,,
,,,,3,0.119255,0,24,24,54,1,bathroom sink and mirror area with white sinks,bathroom sink and mirror area with a white dish on the white sink,wolfe2,007_R_soap,5,35,A77EN6TMUN0ZM,2021-01-25_09h14.36.632,MetaAwareness,2020.1.2,Win32,60,3HA5ODM5KBVGWOA1GLBUAKP2GJFSVD,A77EN6TMUN0ZM,3YMU66OBIOBBA24K6Y5BUOAEA7EHGS,B6MY0,B6MY0,3YMU66OBIOBBA24K6Y5BUOAEA7EHGS,3YMU66OBIOBBA24K6Y5BUOAEA7EHGS,271100,271100,,,,,,,,,,
,,,,4,0.181055,0,25,25,50,1,double sink in a bathroom with large mirror. the right sink has a soap dish with yellow soap.,double sink in a bathroom with large mirror. the sinks each have a soap dish with yellow soap.,wolfe2,007_L_soap,3,35,A77EN6TMUN0ZM,2021-01-25_09h14.36.632,MetaAwareness,2020.1.2,Win32,60,3HA5ODM5KBVGWOA1GLBUAKP2GJFSVD,A77EN6TMUN0ZM,3YMU66OBIOBBA24K6Y5BUOAEA7EHGS,B6MY0,B6MY0,3YMU66OBIOBBA24K6Y5BUOAEA7EHGS,3YMU66OBIOBBA24K6Y5BUOAEA7EHGS,271100,271100,,,,,,,,,,
,,,,3,0.135835,0,26,26,519,1,a lavish bathroom with two faucets,a lavish bathroom with 3 faucets,wolfe2,068_L_faucet,4,35,A77EN6TMUN0ZM,2021-01-25_09h14.36.632,MetaAwareness,2020.1.2,Win32,60,3HA5ODM5KBVGWOA1GLBUAKP2GJFSVD,A77EN6TMUN0ZM,3YMU66OBIOBBA24K6Y5BUOAEA7EHGS,B6MY0,B6MY0,3YMU66OBIOBBA24K6Y5BUOAEA7EHGS,3YMU66OBIOBBA24K6Y5BUOAEA7EHGS,271100,271100,,,,,,,,,,
,,,,4,0.40622,0,27,27,374,1,it shows empty shelf,it shows three books in shelf,wolfe2,050_L_book,4,35,A77EN6TMUN0ZM,2021-01-25_09h14.36.632,MetaAwareness,2020.1.2,Win32,60,3HA5ODM5KBVGWOA1GLBUAKP2GJFSVD,A77EN6TMUN0ZM,3YMU66OBIOBBA24K6Y5BUOAEA7EHGS,B6MY0,B6MY0,3YMU66OBIOBBA24K6Y5BUOAEA7EHGS,3YMU66OBIOBBA24K6Y5BUOAEA7EHGS,271100,271100,,,,,,,,,,
,,,,5,0.1007,0,28,28,584,1,spa like bathroom with neutral wall color,spa like bathroomwith neutral wall color and white towel fixture,wolfe2,076_R_hook,2,35,A77EN6TMUN0ZM,2021-01-25_09h14.36.632,MetaAwareness,2020.1.2,Win32,60,3HA5ODM5KBVGWOA1GLBUAKP2GJFSVD,A77EN6TMUN0ZM,3YMU66OBIOBBA24K6Y5BUOAEA7EHGS,B6MY0,B6MY0,3YMU66OBIOBBA24K6Y5BUOAEA7EHGS,3YMU66OBIOBBA24K6Y5BUOAEA7EHGS,271100,271100,,,,,,,,,,
,,,,3,0.023655,0,29,29,807,1,a bedroom with a bed that has a hat on it.,a bedroom with a bed that doesn't have a hat on it,wolfe2,105_R_hat,4,35,A77EN6TMUN0ZM,2021-01-25_09h14.36.632,MetaAwareness,2020.1.2,Win32,60,3HA5ODM5KBVGWOA1GLBUAKP2GJFSVD,A77EN6TMUN0ZM,3YMU66OBIOBBA24K6Y5BUOAEA7EHGS,B6MY0,B6MY0,3YMU66OBIOBBA24K6Y5BUOAEA7EHGS,3YMU66OBIOBBA24K6Y5BUOAEA7EHGS,271100,271100,,,,,,,,,,
,,,,,,,,,,,,,,,,35,A77EN6TMUN0ZM,2021-01-25_09h14.36.632,MetaAwareness,2020.1.2,Win32,60,3HA5ODM5KBVGWOA1GLBUAKP2GJFSVD,A77EN6TMUN0ZM,3YMU66OBIOBBA24K6Y5BUOAEA7EHGS,B6MY0,B6MY0,3YMU66OBIOBBA24K6Y5BUOAEA7EHGS,3YMU66OBIOBBA24K6Y5BUOAEA7EHGS,271100,271100,4,0.08439,someone laying underneath a blue beach umbrella on a crowded beach,someone laying underneath a blue beach umbrella on a crowded beach,same,5,0.06374,members of a marching band crossing a track that all have feather plumes at the front of their hats,a cluttered and rustic looking cafe with 10 hanging lights,different
