consent_response.keys,consent_response.rt,key_resp_2.keys,key_resp_2.rt,user_resp.keys,user_resp.rt,trials.thisRepN,trials.thisTrialN,trials.thisN,trials.thisIndex,trials.ran,image_1_text,image_2_text,database,image,number,age,worker_ID,date,expName,psychopyVersion,OS,frameRate,hitId,workerId,assignmentId,a,tp_a,b,tp_b,c,tp_c,catch_same_resp.keys,catch_same_resp.rt,image_1_text_catch_same,image_2_text_catch_same,image_catch_same,catch_different_resp.keys,catch_different_resp.rt,image_1_text_catch_different,image_2_text_catch_different,image_catch_different
space,3.244705,space,5.227145,2,2.603535,0,0,0,256,1,a bedroom with a vase on the shelf,a bedroom without a vase on the shelf,wolfe2,033_R_vase,1,33,AAC9DJ81ZXUE7,2021-01-25_13h00.32.563,MetaAwareness,2020.1.2,Win32,60,33TGB4G0LQK9FDSB50H28AI9YDCXTL,AAC9DJ81ZXUE7,3KXIR214I5JRJW8ISC03YV79VKK247,4RXK0,4RXK0,3KXIR214I5JRJW8ISC03YV79VKK247,3KXIR214I5JRJW8ISC03YV79VKK247,271100,271100,,,,,,,,,,
,,,,4,1.40108,0,1,1,678,1,a wall decor in a salon,nothing on te wall in the salon,wolfe2,088_R_clock,3,33,AAC9DJ81ZXUE7,2021-01-25_13h00.32.563,MetaAwareness,2020.1.2,Win32,60,33TGB4G0LQK9FDSB50H28AI9YDCXTL,AAC9DJ81ZXUE7,3KXIR214I5JRJW8ISC03YV79VKK247,4RXK0,4RXK0,3KXIR214I5JRJW8ISC03YV79VKK247,3KXIR214I5JRJW8ISC03YV79VKK247,271100,271100,,,,,,,,,,
,,,,2,1.20105,0,2,2,803,1,a bedroom woth glass doors,a bedroom with glass doors and a book is missing on the bed,wolfe2,105_L_hat,4,33,AAC9DJ81ZXUE7,2021-01-25_13h00.32.563,MetaAwareness,2020.1.2,Win32,60,33TGB4G0LQK9FDSB50H28AI9YDCXTL,AAC9DJ81ZXUE7,3KXIR214I5JRJW8ISC03YV79VKK247,4RXK0,4RXK0,3KXIR214I5JRJW8ISC03YV79VKK247,3KXIR214I5JRJW8ISC03YV79VKK247,271100,271100,,,,,,,,,,
,,,,3,1.26654,0,3,3,404,1,a fresh and modern architectural living room with a bookshelf covering the wall and an empty fireplace,a fresh and modern architectural living room with a bookshelf covering the wall  and fireplace with logs in them,wolfe2,054_L_firewood,4,33,AAC9DJ81ZXUE7,2021-01-25_13h00.32.563,MetaAwareness,2020.1.2,Win32,60,33TGB4G0LQK9FDSB50H28AI9YDCXTL,AAC9DJ81ZXUE7,3KXIR214I5JRJW8ISC03YV79VKK247,4RXK0,4RXK0,3KXIR214I5JRJW8ISC03YV79VKK247,3KXIR214I5JRJW8ISC03YV79VKK247,271100,271100,,,,,,,,,,
,,,,1,1.15018,0,4,4,170,1,a large kitchen with two green items  hanging above the center,a large kitchen that has three green items hanging above the center,wolfe2,022_R_lamp,6,33,AAC9DJ81ZXUE7,2021-01-25_13h00.32.563,MetaAwareness,2020.1.2,Win32,60,33TGB4G0LQK9FDSB50H28AI9YDCXTL,AAC9DJ81ZXUE7,3KXIR214I5JRJW8ISC03YV79VKK247,4RXK0,4RXK0,3KXIR214I5JRJW8ISC03YV79VKK247,3KXIR214I5JRJW8ISC03YV79VKK247,271100,271100,,,,,,,,,,
,,,,5,1.28109,0,5,5,349,1,"a dimly-lit hotel room with a couch, 3 lamps, and a coffee table with a small object on it.","a dimly-lit hotel room with a couch, 3 lamps, and a coffee table with a small, dark object on it.",wolfe2,046_R_remote,1,33,AAC9DJ81ZXUE7,2021-01-25_13h00.32.563,MetaAwareness,2020.1.2,Win32,60,33TGB4G0LQK9FDSB50H28AI9YDCXTL,AAC9DJ81ZXUE7,3KXIR214I5JRJW8ISC03YV79VKK247,4RXK0,4RXK0,3KXIR214I5JRJW8ISC03YV79VKK247,3KXIR214I5JRJW8ISC03YV79VKK247,271100,271100,,,,,,,,,,
,,,,3,1.00207,0,6,6,7,1,"a fancy bedroom with dark teal walls, a lacy bed spread, white curtains and a picture of a swan","a fancy bedroom with dark teal walls, a lacy bed spread, white curtains, a picture of a swan and a small mirror.",wolfe2,001_R_mirror,4,33,AAC9DJ81ZXUE7,2021-01-25_13h00.32.563,MetaAwareness,2020.1.2,Win32,60,33TGB4G0LQK9FDSB50H28AI9YDCXTL,AAC9DJ81ZXUE7,3KXIR214I5JRJW8ISC03YV79VKK247,4RXK0,4RXK0,3KXIR214I5JRJW8ISC03YV79VKK247,3KXIR214I5JRJW8ISC03YV79VKK247,271100,271100,,,,,,,,,,
,,,,2,0.832995,0,7,7,940,1,"a public dining area with multiple tables and chairs, with a chair sitting next to a table near the back window","a public dining area with multiple tables and chairs, with no chair sitting next to a table near the back window",wolfe2,122_R_chair,3,33,AAC9DJ81ZXUE7,2021-01-25_13h00.32.563,MetaAwareness,2020.1.2,Win32,60,33TGB4G0LQK9FDSB50H28AI9YDCXTL,AAC9DJ81ZXUE7,3KXIR214I5JRJW8ISC03YV79VKK247,4RXK0,4RXK0,3KXIR214I5JRJW8ISC03YV79VKK247,3KXIR214I5JRJW8ISC03YV79VKK247,271100,271100,,,,,,,,,,
,,,,4,2.173425,0,8,8,844,1,"a sitting room located adjacent to a large pool containing many windows and two houseplants, one on the floor and the other on the coffee table",a sitting room located adjacent to a large pool containing many windows and one houseplant on the coffee table,wolfe2,110_L_plant,3,33,AAC9DJ81ZXUE7,2021-01-25_13h00.32.563,MetaAwareness,2020.1.2,Win32,60,33TGB4G0LQK9FDSB50H28AI9YDCXTL,AAC9DJ81ZXUE7,3KXIR214I5JRJW8ISC03YV79VKK247,4RXK0,4RXK0,3KXIR214I5JRJW8ISC03YV79VKK247,3KXIR214I5JRJW8ISC03YV79VKK247,271100,271100,,,,,,,,,,
,,,,1,4.886315,0,9,9,725,1,"a bright living room set up with a mirror, a coffee table, and candles in light votives and a candle in a dark votive on the fireplace","a bright living room set up with a mirror, a coffee table, and candles in light colored votives on the fireplace",wolfe2,095_R_candle,1,33,AAC9DJ81ZXUE7,2021-01-25_13h00.32.563,MetaAwareness,2020.1.2,Win32,60,33TGB4G0LQK9FDSB50H28AI9YDCXTL,AAC9DJ81ZXUE7,3KXIR214I5JRJW8ISC03YV79VKK247,4RXK0,4RXK0,3KXIR214I5JRJW8ISC03YV79VKK247,3KXIR214I5JRJW8ISC03YV79VKK247,271100,271100,,,,,,,,,,
,,,,3,8.952065,0,10,10,568,1,a living roomwith a table with plants,a living room with plants and a book on the table,wolfe2,074_R_book,2,33,AAC9DJ81ZXUE7,2021-01-25_13h00.32.563,MetaAwareness,2020.1.2,Win32,60,33TGB4G0LQK9FDSB50H28AI9YDCXTL,AAC9DJ81ZXUE7,3KXIR214I5JRJW8ISC03YV79VKK247,4RXK0,4RXK0,3KXIR214I5JRJW8ISC03YV79VKK247,3KXIR214I5JRJW8ISC03YV79VKK247,271100,271100,,,,,,,,,,
,,,,1,1.035495,0,11,11,23,1,room with couch and remote on the bed looking at the city,room with couch and remote on the bed looking at the city and metal tower on the hill,wolfe2,004_L_electricalgrid,3,33,AAC9DJ81ZXUE7,2021-01-25_13h00.32.563,MetaAwareness,2020.1.2,Win32,60,33TGB4G0LQK9FDSB50H28AI9YDCXTL,AAC9DJ81ZXUE7,3KXIR214I5JRJW8ISC03YV79VKK247,4RXK0,4RXK0,3KXIR214I5JRJW8ISC03YV79VKK247,3KXIR214I5JRJW8ISC03YV79VKK247,271100,271100,,,,,,,,,,
,,,,2,1.189755,0,12,12,565,1,a living room decorated in shabby chic with a wrought iron coffee table and nic nacks.,a living room decorated in shabby chic with a wrought iron coffee table holding a book and nic nacks.,wolfe2,074_L_book,3,33,AAC9DJ81ZXUE7,2021-01-25_13h00.32.563,MetaAwareness,2020.1.2,Win32,60,33TGB4G0LQK9FDSB50H28AI9YDCXTL,AAC9DJ81ZXUE7,3KXIR214I5JRJW8ISC03YV79VKK247,4RXK0,4RXK0,3KXIR214I5JRJW8ISC03YV79VKK247,3KXIR214I5JRJW8ISC03YV79VKK247,271100,271100,,,,,,,,,,
,,,,1,5.102695,0,13,13,218,1,the bathroom has a filling bathtub with a dark sink and counter with a gray towel the the left waiting to be used.,the bathroom has a filling bathtub with a dark sink and counter with 2 gray towels to the left waiting to be used.,wolfe2,028_R_vase,3,33,AAC9DJ81ZXUE7,2021-01-25_13h00.32.563,MetaAwareness,2020.1.2,Win32,60,33TGB4G0LQK9FDSB50H28AI9YDCXTL,AAC9DJ81ZXUE7,3KXIR214I5JRJW8ISC03YV79VKK247,4RXK0,4RXK0,3KXIR214I5JRJW8ISC03YV79VKK247,3KXIR214I5JRJW8ISC03YV79VKK247,271100,271100,,,,,,,,,,
,,,,2,0.900805,0,14,14,215,1,a fully furnished bathroom with beautiful pictures on the walls,a fully furnished bathroom with beautiful pictures on the wall with a missing glass on the right of sink,wolfe2,028_L_vase,5,33,AAC9DJ81ZXUE7,2021-01-25_13h00.32.563,MetaAwareness,2020.1.2,Win32,60,33TGB4G0LQK9FDSB50H28AI9YDCXTL,AAC9DJ81ZXUE7,3KXIR214I5JRJW8ISC03YV79VKK247,4RXK0,4RXK0,3KXIR214I5JRJW8ISC03YV79VKK247,3KXIR214I5JRJW8ISC03YV79VKK247,271100,271100,,,,,,,,,,
,,,,3,1.066785,0,15,15,868,1,a gathering room or lobby in an upscale cabin resort with a small decorative tree in the far corner,a gathering room or lobby in upscale cabin resort,wolfe2,113_R_plant,1,33,AAC9DJ81ZXUE7,2021-01-25_13h00.32.563,MetaAwareness,2020.1.2,Win32,60,33TGB4G0LQK9FDSB50H28AI9YDCXTL,AAC9DJ81ZXUE7,3KXIR214I5JRJW8ISC03YV79VKK247,4RXK0,4RXK0,3KXIR214I5JRJW8ISC03YV79VKK247,3KXIR214I5JRJW8ISC03YV79VKK247,271100,271100,,,,,,,,,,
,,,,2,12.25704,0,16,16,856,1,"a bright, sunny living area with a short, stout vase on the floor near a potted plant.","a bright, sunny living area with no vase sitting next to a potted plant.",wolfe2,111_R_pot,3,33,AAC9DJ81ZXUE7,2021-01-25_13h00.32.563,MetaAwareness,2020.1.2,Win32,60,33TGB4G0LQK9FDSB50H28AI9YDCXTL,AAC9DJ81ZXUE7,3KXIR214I5JRJW8ISC03YV79VKK247,4RXK0,4RXK0,3KXIR214I5JRJW8ISC03YV79VKK247,3KXIR214I5JRJW8ISC03YV79VKK247,271100,271100,,,,,,,,,,
,,,,2,12.816785,0,17,17,624,1,there is nothing appear in the under the stool set chamber,a small piece appear under the chamber,wolfe2,081_R_football,1,33,AAC9DJ81ZXUE7,2021-01-25_13h00.32.563,MetaAwareness,2020.1.2,Win32,60,33TGB4G0LQK9FDSB50H28AI9YDCXTL,AAC9DJ81ZXUE7,3KXIR214I5JRJW8ISC03YV79VKK247,4RXK0,4RXK0,3KXIR214I5JRJW8ISC03YV79VKK247,3KXIR214I5JRJW8ISC03YV79VKK247,271100,271100,,,,,,,,,,
,,,,3,6.93552,0,18,18,250,1,bathroom cleaner only one has,bathroom cleaner has two pieces,wolfe2,032_R_bottle,3,33,AAC9DJ81ZXUE7,2021-01-25_13h00.32.563,MetaAwareness,2020.1.2,Win32,60,33TGB4G0LQK9FDSB50H28AI9YDCXTL,AAC9DJ81ZXUE7,3KXIR214I5JRJW8ISC03YV79VKK247,4RXK0,4RXK0,3KXIR214I5JRJW8ISC03YV79VKK247,3KXIR214I5JRJW8ISC03YV79VKK247,271100,271100,,,,,,,,,,
,,,,2,13.26254,0,19,19,459,1,a dining room with a missing wine glass,a dining room with a wine glass at every setting,wolfe2,061_L_glass,4,33,AAC9DJ81ZXUE7,2021-01-25_13h00.32.563,MetaAwareness,2020.1.2,Win32,60,33TGB4G0LQK9FDSB50H28AI9YDCXTL,AAC9DJ81ZXUE7,3KXIR214I5JRJW8ISC03YV79VKK247,4RXK0,4RXK0,3KXIR214I5JRJW8ISC03YV79VKK247,3KXIR214I5JRJW8ISC03YV79VKK247,271100,271100,,,,,,,,,,
,,,,5,7.800905,0,20,20,818,1,a changing room has a combination of tile and carpet on the floor.,a paper towl dispensor has been removed from the changing room.,wolfe2,106_R_toweldispenser,4,33,AAC9DJ81ZXUE7,2021-01-25_13h00.32.563,MetaAwareness,2020.1.2,Win32,60,33TGB4G0LQK9FDSB50H28AI9YDCXTL,AAC9DJ81ZXUE7,3KXIR214I5JRJW8ISC03YV79VKK247,4RXK0,4RXK0,3KXIR214I5JRJW8ISC03YV79VKK247,3KXIR214I5JRJW8ISC03YV79VKK247,271100,271100,,,,,,,,,,
,,,,2,8.650375,0,21,21,261,1,white and gray bedroom with handle missing on the bottom drawer of nightstand,white and gray bedroom with no handle missing on nighstand drawers,wolfe2,034_L_handle,3,33,AAC9DJ81ZXUE7,2021-01-25_13h00.32.563,MetaAwareness,2020.1.2,Win32,60,33TGB4G0LQK9FDSB50H28AI9YDCXTL,AAC9DJ81ZXUE7,3KXIR214I5JRJW8ISC03YV79VKK247,4RXK0,4RXK0,3KXIR214I5JRJW8ISC03YV79VKK247,3KXIR214I5JRJW8ISC03YV79VKK247,271100,271100,,,,,,,,,,
,,,,1,5.61066,0,22,22,636,1,a child's bedroom that is very colorful with a knob missing on the blue drawer,a child's bedroom that is very colorful with all the knobs intact on the dresser,wolfe2,083_L_knob,1,33,AAC9DJ81ZXUE7,2021-01-25_13h00.32.563,MetaAwareness,2020.1.2,Win32,60,33TGB4G0LQK9FDSB50H28AI9YDCXTL,AAC9DJ81ZXUE7,3KXIR214I5JRJW8ISC03YV79VKK247,4RXK0,4RXK0,3KXIR214I5JRJW8ISC03YV79VKK247,3KXIR214I5JRJW8ISC03YV79VKK247,271100,271100,,,,,,,,,,
,,,,4,5.683555,0,23,23,519,1,a lavish bathroom with two faucets,a lavish bathroom with 3 faucets,wolfe2,068_L_faucet,4,33,AAC9DJ81ZXUE7,2021-01-25_13h00.32.563,MetaAwareness,2020.1.2,Win32,60,33TGB4G0LQK9FDSB50H28AI9YDCXTL,AAC9DJ81ZXUE7,3KXIR214I5JRJW8ISC03YV79VKK247,4RXK0,4RXK0,3KXIR214I5JRJW8ISC03YV79VKK247,3KXIR214I5JRJW8ISC03YV79VKK247,271100,271100,,,,,,,,,,
,,,,2,11.481635,0,24,24,714,1,a hotel room with two beds and a plug next to each bed.,a hotel room with two beds and a plug next to one of the beds,wolfe2,093_L_switch,2,33,AAC9DJ81ZXUE7,2021-01-25_13h00.32.563,MetaAwareness,2020.1.2,Win32,60,33TGB4G0LQK9FDSB50H28AI9YDCXTL,AAC9DJ81ZXUE7,3KXIR214I5JRJW8ISC03YV79VKK247,4RXK0,4RXK0,3KXIR214I5JRJW8ISC03YV79VKK247,3KXIR214I5JRJW8ISC03YV79VKK247,271100,271100,,,,,,,,,,
,,,,3,5.76699,0,25,25,394,1,a large bathroom lined in stone with a cabinet containing one drawer on the bottom.,a large bathroom lined in stone with a cabinet containing two drawers on the bottom.,wolfe2,053_L_handle,1,33,AAC9DJ81ZXUE7,2021-01-25_13h00.32.563,MetaAwareness,2020.1.2,Win32,60,33TGB4G0LQK9FDSB50H28AI9YDCXTL,AAC9DJ81ZXUE7,3KXIR214I5JRJW8ISC03YV79VKK247,4RXK0,4RXK0,3KXIR214I5JRJW8ISC03YV79VKK247,3KXIR214I5JRJW8ISC03YV79VKK247,271100,271100,,,,,,,,,,
,,,,4,7.415885,0,26,26,721,1,there is an outlet in the wall next to the headboard in this hotel room.,there is nothing on the well next to the headboard in this hotel room.,wolfe2,093_R_switch,3,33,AAC9DJ81ZXUE7,2021-01-25_13h00.32.563,MetaAwareness,2020.1.2,Win32,60,33TGB4G0LQK9FDSB50H28AI9YDCXTL,AAC9DJ81ZXUE7,3KXIR214I5JRJW8ISC03YV79VKK247,4RXK0,4RXK0,3KXIR214I5JRJW8ISC03YV79VKK247,3KXIR214I5JRJW8ISC03YV79VKK247,271100,271100,,,,,,,,,,
,,,,1,7.66477,0,27,27,612,1,there are 3 lights hanging from the ceiling. the counter has shelving with books. there are cabinets on the wall. there is a bowl missing from the top middle cabinet.,there are 3 lights hanging from the ceiling. the counter has shelving with books. there are cabinets on the wall with a white bowl in the top middle.,wolfe2,079_R_bowl,4,33,AAC9DJ81ZXUE7,2021-01-25_13h00.32.563,MetaAwareness,2020.1.2,Win32,60,33TGB4G0LQK9FDSB50H28AI9YDCXTL,AAC9DJ81ZXUE7,3KXIR214I5JRJW8ISC03YV79VKK247,4RXK0,4RXK0,3KXIR214I5JRJW8ISC03YV79VKK247,3KXIR214I5JRJW8ISC03YV79VKK247,271100,271100,,,,,,,,,,
,,,,3,6.034,0,28,28,293,1,"a dining room that contains a table and chairs, and several plates are displayed.","a dining room with a table, chairs and plates displayed behind  it. there is artwork hanging on the wall.",wolfe2,038_L_art,1,33,AAC9DJ81ZXUE7,2021-01-25_13h00.32.563,MetaAwareness,2020.1.2,Win32,60,33TGB4G0LQK9FDSB50H28AI9YDCXTL,AAC9DJ81ZXUE7,3KXIR214I5JRJW8ISC03YV79VKK247,4RXK0,4RXK0,3KXIR214I5JRJW8ISC03YV79VKK247,3KXIR214I5JRJW8ISC03YV79VKK247,271100,271100,,,,,,,,,,
,,,,2,10.722115,0,29,29,373,1,"a european contemporary style bedroom that has a wall of closets and shelves. on the left set of shelves, all but one contain books.","a european contemporary style bedroom that has a wall of closets and shelves. on the left set of shelves, all of them are holding books.",wolfe2,050_L_book,3,33,AAC9DJ81ZXUE7,2021-01-25_13h00.32.563,MetaAwareness,2020.1.2,Win32,60,33TGB4G0LQK9FDSB50H28AI9YDCXTL,AAC9DJ81ZXUE7,3KXIR214I5JRJW8ISC03YV79VKK247,4RXK0,4RXK0,3KXIR214I5JRJW8ISC03YV79VKK247,3KXIR214I5JRJW8ISC03YV79VKK247,271100,271100,,,,,,,,,,
,,,,,,,,,,,,,,,,33,AAC9DJ81ZXUE7,2021-01-25_13h00.32.563,MetaAwareness,2020.1.2,Win32,60,33TGB4G0LQK9FDSB50H28AI9YDCXTL,AAC9DJ81ZXUE7,3KXIR214I5JRJW8ISC03YV79VKK247,4RXK0,4RXK0,3KXIR214I5JRJW8ISC03YV79VKK247,3KXIR214I5JRJW8ISC03YV79VKK247,271100,271100,5,8.9876,someone laying underneath a blue beach umbrella on a crowded beach,someone laying underneath a blue beach umbrella on a crowded beach,same,1,7.471925,members of a marching band crossing a track that all have feather plumes at the front of their hats,a cluttered and rustic looking cafe with 10 hanging lights,different
