consent_response.keys,consent_response.rt,key_resp_2.keys,key_resp_2.rt,user_resp.keys,user_resp.rt,trials.thisRepN,trials.thisTrialN,trials.thisN,trials.thisIndex,trials.ran,image_1_text,image_2_text,database,image,number,age,worker_ID,date,expName,psychopyVersion,OS,frameRate,hitId,workerId,assignmentId,a,tp_a,b,tp_b,c,tp_c,catch_same_resp.keys,catch_same_resp.rt,image_1_text_catch_same,image_2_text_catch_same,image_catch_same,catch_different_resp.keys,catch_different_resp.rt,image_1_text_catch_different,image_2_text_catch_different,image_catch_different
space,12.07767,space,65.04768,6,6.461715,0,0,0,137,1,backyard patio with two chairs and plants,backyard patio with two chairs and plants,wolfe2,018_L_plant,4,36,ACSS93E03ZUGX,2021-01-25_08h17.15.386,MetaAwareness,2020.1.2,Win32,60,3HA5ODM5KBVGWOA1GLBUAKP2GJFSVD,ACSS93E03ZUGX,3VD82FOHKRR8L7A28P4IO6M0O10CO1,H2DV0,H2DV0,3VD82FOHKRR8L7A28P4IO6M0O10CO1,3VD82FOHKRR8L7A28P4IO6M0O10CO1,271100,271100,,,,,,,,,,
,,,,2,6.725325,0,1,1,91,1,this bathtub is missing an overflow drain,this bathtub has all the necessary pieces,wolfe2,012_R_tubaccesory,2,36,ACSS93E03ZUGX,2021-01-25_08h17.15.386,MetaAwareness,2020.1.2,Win32,60,3HA5ODM5KBVGWOA1GLBUAKP2GJFSVD,ACSS93E03ZUGX,3VD82FOHKRR8L7A28P4IO6M0O10CO1,H2DV0,H2DV0,3VD82FOHKRR8L7A28P4IO6M0O10CO1,3VD82FOHKRR8L7A28P4IO6M0O10CO1,271100,271100,,,,,,,,,,
,,,,4,7.826915,0,2,2,375,1,a college dorm with a shelf of five levels of books near the window,a college dorm with a shelf of six levels of books near the window,wolfe2,050_R_book,1,36,ACSS93E03ZUGX,2021-01-25_08h17.15.386,MetaAwareness,2020.1.2,Win32,60,3HA5ODM5KBVGWOA1GLBUAKP2GJFSVD,ACSS93E03ZUGX,3VD82FOHKRR8L7A28P4IO6M0O10CO1,H2DV0,H2DV0,3VD82FOHKRR8L7A28P4IO6M0O10CO1,3VD82FOHKRR8L7A28P4IO6M0O10CO1,271100,271100,,,,,,,,,,
,,,,5,7.017645,0,3,3,387,1,an old fashioned living room with a lot of decor,"an old fashioned living room with a lot of decor, including a bird on the mantle",wolfe2,051_R_owl,6,36,ACSS93E03ZUGX,2021-01-25_08h17.15.386,MetaAwareness,2020.1.2,Win32,60,3HA5ODM5KBVGWOA1GLBUAKP2GJFSVD,ACSS93E03ZUGX,3VD82FOHKRR8L7A28P4IO6M0O10CO1,H2DV0,H2DV0,3VD82FOHKRR8L7A28P4IO6M0O10CO1,3VD82FOHKRR8L7A28P4IO6M0O10CO1,271100,271100,,,,,,,,,,
,,,,2,9.09823,0,4,4,488,1,the knobbed candle holder sits atop the brown wooden shelf,there is a black vase on top of the wooden shelf that sits in the dining room,wolfe2,064_R_bottles,2,36,ACSS93E03ZUGX,2021-01-25_08h17.15.386,MetaAwareness,2020.1.2,Win32,60,3HA5ODM5KBVGWOA1GLBUAKP2GJFSVD,ACSS93E03ZUGX,3VD82FOHKRR8L7A28P4IO6M0O10CO1,H2DV0,H2DV0,3VD82FOHKRR8L7A28P4IO6M0O10CO1,3VD82FOHKRR8L7A28P4IO6M0O10CO1,271100,271100,,,,,,,,,,
,,,,1,2.96305,0,5,5,22,1,clear sky.,a network pole in the woods,wolfe2,004_L_electricalgrid,1,36,ACSS93E03ZUGX,2021-01-25_08h17.15.386,MetaAwareness,2020.1.2,Win32,60,3HA5ODM5KBVGWOA1GLBUAKP2GJFSVD,ACSS93E03ZUGX,3VD82FOHKRR8L7A28P4IO6M0O10CO1,H2DV0,H2DV0,3VD82FOHKRR8L7A28P4IO6M0O10CO1,3VD82FOHKRR8L7A28P4IO6M0O10CO1,271100,271100,,,,,,,,,,
,,,,3,7.178885,0,6,6,588,1,"a very modern looking kitchen with four stools, one without a footrest","a very modern kitchen with four stools, all of which have a foot rest",wolfe2,077_L_footrest,2,36,ACSS93E03ZUGX,2021-01-25_08h17.15.386,MetaAwareness,2020.1.2,Win32,60,3HA5ODM5KBVGWOA1GLBUAKP2GJFSVD,ACSS93E03ZUGX,3VD82FOHKRR8L7A28P4IO6M0O10CO1,H2DV0,H2DV0,3VD82FOHKRR8L7A28P4IO6M0O10CO1,3VD82FOHKRR8L7A28P4IO6M0O10CO1,271100,271100,,,,,,,,,,
,,,,3,16.524975,0,7,7,797,1,there is an object sitting atop a table in this small cafe,there is a table and chairs in this small cafe,wolfe2,104_R_bottle,2,36,ACSS93E03ZUGX,2021-01-25_08h17.15.386,MetaAwareness,2020.1.2,Win32,60,3HA5ODM5KBVGWOA1GLBUAKP2GJFSVD,ACSS93E03ZUGX,3VD82FOHKRR8L7A28P4IO6M0O10CO1,H2DV0,H2DV0,3VD82FOHKRR8L7A28P4IO6M0O10CO1,3VD82FOHKRR8L7A28P4IO6M0O10CO1,271100,271100,,,,,,,,,,
,,,,1,29.93601,0,8,8,604,1,there is no water handle,a water handle is installed,wolfe2,078_R_faucet,4,36,ACSS93E03ZUGX,2021-01-25_08h17.15.386,MetaAwareness,2020.1.2,Win32,60,3HA5ODM5KBVGWOA1GLBUAKP2GJFSVD,ACSS93E03ZUGX,3VD82FOHKRR8L7A28P4IO6M0O10CO1,H2DV0,H2DV0,3VD82FOHKRR8L7A28P4IO6M0O10CO1,3VD82FOHKRR8L7A28P4IO6M0O10CO1,271100,271100,,,,,,,,,,
,,,,6,5.16851,0,9,9,78,1,a fully furnished bedroom with two candles,a fully furnised bedroom with three candles,wolfe2,010_R_candle,5,36,ACSS93E03ZUGX,2021-01-25_08h17.15.386,MetaAwareness,2020.1.2,Win32,60,3HA5ODM5KBVGWOA1GLBUAKP2GJFSVD,ACSS93E03ZUGX,3VD82FOHKRR8L7A28P4IO6M0O10CO1,H2DV0,H2DV0,3VD82FOHKRR8L7A28P4IO6M0O10CO1,3VD82FOHKRR8L7A28P4IO6M0O10CO1,271100,271100,,,,,,,,,,
,,,,5,8.166385,0,10,10,755,1,a bright modern dining room that has 3 candles on the wall,a bright modern dining room that has 2 candles on the wall,wolfe2,099_L_sconce,2,36,ACSS93E03ZUGX,2021-01-25_08h17.15.386,MetaAwareness,2020.1.2,Win32,60,3HA5ODM5KBVGWOA1GLBUAKP2GJFSVD,ACSS93E03ZUGX,3VD82FOHKRR8L7A28P4IO6M0O10CO1,H2DV0,H2DV0,3VD82FOHKRR8L7A28P4IO6M0O10CO1,3VD82FOHKRR8L7A28P4IO6M0O10CO1,271100,271100,,,,,,,,,,
,,,,5,7.653845,0,11,11,464,1,"a traditional dining room with a chandelier, floral accent pillows, dark wood furniture, and a set table with several goblets","a traditional dining room with a chandelier, floral accent pillows, dark wood furniture, and a set table with with about half a dozen goblets",wolfe2,061_R_glass,3,36,ACSS93E03ZUGX,2021-01-25_08h17.15.386,MetaAwareness,2020.1.2,Win32,60,3HA5ODM5KBVGWOA1GLBUAKP2GJFSVD,ACSS93E03ZUGX,3VD82FOHKRR8L7A28P4IO6M0O10CO1,H2DV0,H2DV0,3VD82FOHKRR8L7A28P4IO6M0O10CO1,3VD82FOHKRR8L7A28P4IO6M0O10CO1,271100,271100,,,,,,,,,,
,,,,3,6.39052,0,12,12,724,1,a white living room with a red candle on the fireplace,a whiteliving room without a red candle on the fireplace,wolfe2,095_L_candle,4,36,ACSS93E03ZUGX,2021-01-25_08h17.15.386,MetaAwareness,2020.1.2,Win32,60,3HA5ODM5KBVGWOA1GLBUAKP2GJFSVD,ACSS93E03ZUGX,3VD82FOHKRR8L7A28P4IO6M0O10CO1,H2DV0,H2DV0,3VD82FOHKRR8L7A28P4IO6M0O10CO1,3VD82FOHKRR8L7A28P4IO6M0O10CO1,271100,271100,,,,,,,,,,
,,,,5,27.20141,0,13,13,609,1,a country kitcjen with many open shelves.one of the shelves has a bowl.,a country kitchen with many open shelves all of which haves bowls and other things.,wolfe2,079_L_bowl,3,36,ACSS93E03ZUGX,2021-01-25_08h17.15.386,MetaAwareness,2020.1.2,Win32,60,3HA5ODM5KBVGWOA1GLBUAKP2GJFSVD,ACSS93E03ZUGX,3VD82FOHKRR8L7A28P4IO6M0O10CO1,H2DV0,H2DV0,3VD82FOHKRR8L7A28P4IO6M0O10CO1,3VD82FOHKRR8L7A28P4IO6M0O10CO1,271100,271100,,,,,,,,,,
,,,,5,52.2479,0,14,14,168,1,"a large, well furnished kitchen with two hanging lights","a large, well furnished kitchen with trhee hanging lights",wolfe2,022_R_lamp,4,36,ACSS93E03ZUGX,2021-01-25_08h17.15.386,MetaAwareness,2020.1.2,Win32,60,3HA5ODM5KBVGWOA1GLBUAKP2GJFSVD,ACSS93E03ZUGX,3VD82FOHKRR8L7A28P4IO6M0O10CO1,H2DV0,H2DV0,3VD82FOHKRR8L7A28P4IO6M0O10CO1,3VD82FOHKRR8L7A28P4IO6M0O10CO1,271100,271100,,,,,,,,,,
,,,,3,6.800835,0,15,15,42,1,the living room with king bed and table top on the left handside without a vessel as decoration,the living room with king bed and table top on the left handside with a vessel as decoration,wolfe2,006_L_vase,6,36,ACSS93E03ZUGX,2021-01-25_08h17.15.386,MetaAwareness,2020.1.2,Win32,60,3HA5ODM5KBVGWOA1GLBUAKP2GJFSVD,ACSS93E03ZUGX,3VD82FOHKRR8L7A28P4IO6M0O10CO1,H2DV0,H2DV0,3VD82FOHKRR8L7A28P4IO6M0O10CO1,3VD82FOHKRR8L7A28P4IO6M0O10CO1,271100,271100,,,,,,,,,,
,,,,5,12.232315,0,16,16,680,1,an empty barber salon with three posters between the mirrors.,an empty barbar salon with two posters between the mirrors.,wolfe2,089_L_poster,1,36,ACSS93E03ZUGX,2021-01-25_08h17.15.386,MetaAwareness,2020.1.2,Win32,60,3HA5ODM5KBVGWOA1GLBUAKP2GJFSVD,ACSS93E03ZUGX,3VD82FOHKRR8L7A28P4IO6M0O10CO1,H2DV0,H2DV0,3VD82FOHKRR8L7A28P4IO6M0O10CO1,3VD82FOHKRR8L7A28P4IO6M0O10CO1,271100,271100,,,,,,,,,,
,,,,5,27.376035,0,17,17,637,1,"a bright and colorful childrens room that contains a bunk bed, a window, a table, and a storage dresser with 5 handles","a bright and colorful childrens room that contains a bunk bed, a window, a table, and a storage dresser with 6 handles",wolfe2,083_L_knob,3,36,ACSS93E03ZUGX,2021-01-25_08h17.15.386,MetaAwareness,2020.1.2,Win32,60,3HA5ODM5KBVGWOA1GLBUAKP2GJFSVD,ACSS93E03ZUGX,3VD82FOHKRR8L7A28P4IO6M0O10CO1,H2DV0,H2DV0,3VD82FOHKRR8L7A28P4IO6M0O10CO1,3VD82FOHKRR8L7A28P4IO6M0O10CO1,271100,271100,,,,,,,,,,
,,,,5,9.43463,0,18,18,191,1,a living room with huge windows looking outside with a bookcase that has one item in the bottom left space,a living room with huge windows looking outside with a bookcase that has two items in the bottom left space,wolfe2,025_L_vase,3,36,ACSS93E03ZUGX,2021-01-25_08h17.15.386,MetaAwareness,2020.1.2,Win32,60,3HA5ODM5KBVGWOA1GLBUAKP2GJFSVD,ACSS93E03ZUGX,3VD82FOHKRR8L7A28P4IO6M0O10CO1,H2DV0,H2DV0,3VD82FOHKRR8L7A28P4IO6M0O10CO1,3VD82FOHKRR8L7A28P4IO6M0O10CO1,271100,271100,,,,,,,,,,
,,,,5,5.72526,0,19,19,710,1,a nice living room with large couch and soft cusions,a nice living room with large sofa and soft cushions and missig object under the table,wolfe2,092_L_candles,4,36,ACSS93E03ZUGX,2021-01-25_08h17.15.386,MetaAwareness,2020.1.2,Win32,60,3HA5ODM5KBVGWOA1GLBUAKP2GJFSVD,ACSS93E03ZUGX,3VD82FOHKRR8L7A28P4IO6M0O10CO1,H2DV0,H2DV0,3VD82FOHKRR8L7A28P4IO6M0O10CO1,3VD82FOHKRR8L7A28P4IO6M0O10CO1,271100,271100,,,,,,,,,,
,,,,5,4.835015,0,20,20,924,1,a contemporary family living room with a beige decoration and a pink plant on top of the fireplace.,a contemporary family living room with a pink plant on top of the fireplace,wolfe2,120_R_art,2,36,ACSS93E03ZUGX,2021-01-25_08h17.15.386,MetaAwareness,2020.1.2,Win32,60,3HA5ODM5KBVGWOA1GLBUAKP2GJFSVD,ACSS93E03ZUGX,3VD82FOHKRR8L7A28P4IO6M0O10CO1,H2DV0,H2DV0,3VD82FOHKRR8L7A28P4IO6M0O10CO1,3VD82FOHKRR8L7A28P4IO6M0O10CO1,271100,271100,,,,,,,,,,
,,,,5,31.135875,0,21,21,748,1,a nice bedroom with a large bed and chair with a pillow on the floor between them,a nice bedroom with a large bed and chair,wolfe2,098_L_slippers,2,36,ACSS93E03ZUGX,2021-01-25_08h17.15.386,MetaAwareness,2020.1.2,Win32,60,3HA5ODM5KBVGWOA1GLBUAKP2GJFSVD,ACSS93E03ZUGX,3VD82FOHKRR8L7A28P4IO6M0O10CO1,H2DV0,H2DV0,3VD82FOHKRR8L7A28P4IO6M0O10CO1,3VD82FOHKRR8L7A28P4IO6M0O10CO1,271100,271100,,,,,,,,,,
,,,,1,48.98717,0,22,22,266,1,push and puller not  in this,push and puller has available,wolfe2,034_R_handle,3,36,ACSS93E03ZUGX,2021-01-25_08h17.15.386,MetaAwareness,2020.1.2,Win32,60,3HA5ODM5KBVGWOA1GLBUAKP2GJFSVD,ACSS93E03ZUGX,3VD82FOHKRR8L7A28P4IO6M0O10CO1,H2DV0,H2DV0,3VD82FOHKRR8L7A28P4IO6M0O10CO1,3VD82FOHKRR8L7A28P4IO6M0O10CO1,271100,271100,,,,,,,,,,
,,,,5,4.058535,0,23,23,70,1,a bedroom with a metal framed-bed and one candle on the left nightstand,a bedroom with metal framed bed and two candles on the left nightstand.,wolfe2,010_L_candle,2,36,ACSS93E03ZUGX,2021-01-25_08h17.15.386,MetaAwareness,2020.1.2,Win32,60,3HA5ODM5KBVGWOA1GLBUAKP2GJFSVD,ACSS93E03ZUGX,3VD82FOHKRR8L7A28P4IO6M0O10CO1,H2DV0,H2DV0,3VD82FOHKRR8L7A28P4IO6M0O10CO1,3VD82FOHKRR8L7A28P4IO6M0O10CO1,271100,271100,,,,,,,,,,
,,,,1,3.77677,0,24,24,596,1,a chiar without leg support,a chair with leg support,wolfe2,077_R_footrest,4,36,ACSS93E03ZUGX,2021-01-25_08h17.15.386,MetaAwareness,2020.1.2,Win32,60,3HA5ODM5KBVGWOA1GLBUAKP2GJFSVD,ACSS93E03ZUGX,3VD82FOHKRR8L7A28P4IO6M0O10CO1,H2DV0,H2DV0,3VD82FOHKRR8L7A28P4IO6M0O10CO1,3VD82FOHKRR8L7A28P4IO6M0O10CO1,271100,271100,,,,,,,,,,
,,,,4,9.57004,0,25,25,240,1,a furnished living room with a l shaped couch.  the ceiling has a single beam going across it,a furnished living room with a l shaped couch.  the ceiling has two beams going across it,wolfe2,031_R_log,2,36,ACSS93E03ZUGX,2021-01-25_08h17.15.386,MetaAwareness,2020.1.2,Win32,60,3HA5ODM5KBVGWOA1GLBUAKP2GJFSVD,ACSS93E03ZUGX,3VD82FOHKRR8L7A28P4IO6M0O10CO1,H2DV0,H2DV0,3VD82FOHKRR8L7A28P4IO6M0O10CO1,3VD82FOHKRR8L7A28P4IO6M0O10CO1,271100,271100,,,,,,,,,,
,,,,5,5.39699,0,26,26,903,1,a rustic looking living room area that looks outside onto a patio with a pair of shoes in front of the planter,a rustic looking living room area that looks outside onto a patio,wolfe2,118_L_shoes,2,36,ACSS93E03ZUGX,2021-01-25_08h17.15.386,MetaAwareness,2020.1.2,Win32,60,3HA5ODM5KBVGWOA1GLBUAKP2GJFSVD,ACSS93E03ZUGX,3VD82FOHKRR8L7A28P4IO6M0O10CO1,H2DV0,H2DV0,3VD82FOHKRR8L7A28P4IO6M0O10CO1,3VD82FOHKRR8L7A28P4IO6M0O10CO1,271100,271100,,,,,,,,,,
,,,,5,5.004825,0,27,27,785,1,a bathroom with dual sinks with mohagany drawers and cabinets  and also a coat hook at the left hand side,a bathroom with dual sinks with mohagany drawers and cabinets,wolfe2,103_L_hook,2,36,ACSS93E03ZUGX,2021-01-25_08h17.15.386,MetaAwareness,2020.1.2,Win32,60,3HA5ODM5KBVGWOA1GLBUAKP2GJFSVD,ACSS93E03ZUGX,3VD82FOHKRR8L7A28P4IO6M0O10CO1,H2DV0,H2DV0,3VD82FOHKRR8L7A28P4IO6M0O10CO1,3VD82FOHKRR8L7A28P4IO6M0O10CO1,271100,271100,,,,,,,,,,
,,,,1,2.853865,0,28,28,65,1,a bedroom without an area rug,a bedroom with an area rug,wolfe2,009_L_carpet,3,36,ACSS93E03ZUGX,2021-01-25_08h17.15.386,MetaAwareness,2020.1.2,Win32,60,3HA5ODM5KBVGWOA1GLBUAKP2GJFSVD,ACSS93E03ZUGX,3VD82FOHKRR8L7A28P4IO6M0O10CO1,H2DV0,H2DV0,3VD82FOHKRR8L7A28P4IO6M0O10CO1,3VD82FOHKRR8L7A28P4IO6M0O10CO1,271100,271100,,,,,,,,,,
,,,,4,36.85774,0,29,29,918,1,a large living area with modern looking furniture and a picture on the wall,a large living room filled with modern furniture and white walls.,wolfe2,119_R_painting,4,36,ACSS93E03ZUGX,2021-01-25_08h17.15.386,MetaAwareness,2020.1.2,Win32,60,3HA5ODM5KBVGWOA1GLBUAKP2GJFSVD,ACSS93E03ZUGX,3VD82FOHKRR8L7A28P4IO6M0O10CO1,H2DV0,H2DV0,3VD82FOHKRR8L7A28P4IO6M0O10CO1,3VD82FOHKRR8L7A28P4IO6M0O10CO1,271100,271100,,,,,,,,,,
,,,,,,,,,,,,,,,,36,ACSS93E03ZUGX,2021-01-25_08h17.15.386,MetaAwareness,2020.1.2,Win32,60,3HA5ODM5KBVGWOA1GLBUAKP2GJFSVD,ACSS93E03ZUGX,3VD82FOHKRR8L7A28P4IO6M0O10CO1,H2DV0,H2DV0,3VD82FOHKRR8L7A28P4IO6M0O10CO1,3VD82FOHKRR8L7A28P4IO6M0O10CO1,271100,271100,6,7.66656,someone laying underneath a blue beach umbrella on a crowded beach,someone laying underneath a blue beach umbrella on a crowded beach,same,1,18.29044,members of a marching band crossing a track that all have feather plumes at the front of their hats,a cluttered and rustic looking cafe with 10 hanging lights,different
