consent_response.keys,consent_response.rt,key_resp_2.keys,key_resp_2.rt,user_resp.keys,user_resp.rt,trials.thisRepN,trials.thisTrialN,trials.thisN,trials.thisIndex,trials.ran,image_1_text,image_2_text,database,image,number,age,worker_ID,date,expName,psychopyVersion,OS,frameRate,hitId,workerId,assignmentId,a,tp_a,b,tp_b,c,tp_c,catch_same_resp.keys,catch_same_resp.rt,image_1_text_catch_same,image_2_text_catch_same,image_catch_same,catch_different_resp.keys,catch_different_resp.rt,image_1_text_catch_different,image_2_text_catch_different,image_catch_different
space,3.949465,space,0.746895,4,3.43513,0,0,0,448,1,an empty wardrobe top in the chilren room,a toy car placed on the wardrobe in te children room.,wolfe2,059_R_car,4,35,AD94YUQE36ZOD,2021-01-25_09h50.00.992,MetaAwareness,2020.1.2,Win32,60,34R3P23QHT44L4WQV14RS81EEH3HWU,AD94YUQE36ZOD,3LBXNTKX0SYTHIHRXWHN5TCLUK8X9G,XNBL0,XNBL0,3LBXNTKX0SYTHIHRXWHN5TCLUK8X9G,3LBXNTKX0SYTHIHRXWHN5TCLUK8X9G,271100,271100,,,,,,,,,,
,,,,5,0.014935,0,1,1,358,1,the drawer does not have a handle,there is a handle on the drawer,wolfe2,047_R_handle,4,35,AD94YUQE36ZOD,2021-01-25_09h50.00.992,MetaAwareness,2020.1.2,Win32,60,34R3P23QHT44L4WQV14RS81EEH3HWU,AD94YUQE36ZOD,3LBXNTKX0SYTHIHRXWHN5TCLUK8X9G,XNBL0,XNBL0,3LBXNTKX0SYTHIHRXWHN5TCLUK8X9G,3LBXNTKX0SYTHIHRXWHN5TCLUK8X9G,271100,271100,,,,,,,,,,
,,,,5,0.19333,0,2,2,902,1,a room with furniture looking out at table on patio and shoes next to plant,a room with furniture looking out at table on patio with a plant,wolfe2,118_L_shoes,1,35,AD94YUQE36ZOD,2021-01-25_09h50.00.992,MetaAwareness,2020.1.2,Win32,60,34R3P23QHT44L4WQV14RS81EEH3HWU,AD94YUQE36ZOD,3LBXNTKX0SYTHIHRXWHN5TCLUK8X9G,XNBL0,XNBL0,3LBXNTKX0SYTHIHRXWHN5TCLUK8X9G,3LBXNTKX0SYTHIHRXWHN5TCLUK8X9G,271100,271100,,,,,,,,,,
,,,,3,0.17822,0,3,3,230,1,a sunny bathroom with two counter and sink units,a sunny bathroom with one long counter and two sinks,wolfe2,030_L_drawer,6,35,AD94YUQE36ZOD,2021-01-25_09h50.00.992,MetaAwareness,2020.1.2,Win32,60,34R3P23QHT44L4WQV14RS81EEH3HWU,AD94YUQE36ZOD,3LBXNTKX0SYTHIHRXWHN5TCLUK8X9G,XNBL0,XNBL0,3LBXNTKX0SYTHIHRXWHN5TCLUK8X9G,3LBXNTKX0SYTHIHRXWHN5TCLUK8X9G,271100,271100,,,,,,,,,,
,,,,4,0.091125,0,4,4,924,1,a contemporary family living room with a beige decoration and a pink plant on top of the fireplace.,a contemporary family living room with a pink plant on top of the fireplace,wolfe2,120_R_art,2,35,AD94YUQE36ZOD,2021-01-25_09h50.00.992,MetaAwareness,2020.1.2,Win32,60,34R3P23QHT44L4WQV14RS81EEH3HWU,AD94YUQE36ZOD,3LBXNTKX0SYTHIHRXWHN5TCLUK8X9G,XNBL0,XNBL0,3LBXNTKX0SYTHIHRXWHN5TCLUK8X9G,3LBXNTKX0SYTHIHRXWHN5TCLUK8X9G,271100,271100,,,,,,,,,,
,,,,5,0.143155,0,5,5,474,1,a soft living room with an empty fireplace,a soft living room with a decorative item inthe fireplace,wolfe2,062_R_flowers,4,35,AD94YUQE36ZOD,2021-01-25_09h50.00.992,MetaAwareness,2020.1.2,Win32,60,34R3P23QHT44L4WQV14RS81EEH3HWU,AD94YUQE36ZOD,3LBXNTKX0SYTHIHRXWHN5TCLUK8X9G,XNBL0,XNBL0,3LBXNTKX0SYTHIHRXWHN5TCLUK8X9G,3LBXNTKX0SYTHIHRXWHN5TCLUK8X9G,271100,271100,,,,,,,,,,
,,,,3,0.063755,0,6,6,152,1,"a small office space with a desk that has a laptop and monitor sitting on it, with a wall sculpture that has only two discs aligned vertically","a small office space with a desk that has a laptop and monitor sitting on it, with a wall sculpture that has three discs aligned vertically",wolfe2,020_R_walldeco,1,35,AD94YUQE36ZOD,2021-01-25_09h50.00.992,MetaAwareness,2020.1.2,Win32,60,34R3P23QHT44L4WQV14RS81EEH3HWU,AD94YUQE36ZOD,3LBXNTKX0SYTHIHRXWHN5TCLUK8X9G,XNBL0,XNBL0,3LBXNTKX0SYTHIHRXWHN5TCLUK8X9G,3LBXNTKX0SYTHIHRXWHN5TCLUK8X9G,271100,271100,,,,,,,,,,
,,,,5,0.10844,0,7,7,573,1,an antique kitchen with three hanging lights,an antique kitchen with three hanging lights and a ceiling light is missing.,wolfe2,075_L_light,4,35,AD94YUQE36ZOD,2021-01-25_09h50.00.992,MetaAwareness,2020.1.2,Win32,60,34R3P23QHT44L4WQV14RS81EEH3HWU,AD94YUQE36ZOD,3LBXNTKX0SYTHIHRXWHN5TCLUK8X9G,XNBL0,XNBL0,3LBXNTKX0SYTHIHRXWHN5TCLUK8X9G,3LBXNTKX0SYTHIHRXWHN5TCLUK8X9G,271100,271100,,,,,,,,,,
,,,,3,0.13304,0,8,8,356,1,a bedroom with a black and white desk with three handles,a bedroom with a black and white desk with four handles,wolfe2,047_R_handle,1,35,AD94YUQE36ZOD,2021-01-25_09h50.00.992,MetaAwareness,2020.1.2,Win32,60,34R3P23QHT44L4WQV14RS81EEH3HWU,AD94YUQE36ZOD,3LBXNTKX0SYTHIHRXWHN5TCLUK8X9G,XNBL0,XNBL0,3LBXNTKX0SYTHIHRXWHN5TCLUK8X9G,3LBXNTKX0SYTHIHRXWHN5TCLUK8X9G,271100,271100,,,,,,,,,,
,,,,4,0.060815,0,9,9,701,1,a burgundy colored bathroom with three sinks and a white box on the back wall.,a burgundy colored bathroom with three sinks and no white box on the back wall,wolfe2,091_L_airfreshener,2,35,AD94YUQE36ZOD,2021-01-25_09h50.00.992,MetaAwareness,2020.1.2,Win32,60,34R3P23QHT44L4WQV14RS81EEH3HWU,AD94YUQE36ZOD,3LBXNTKX0SYTHIHRXWHN5TCLUK8X9G,XNBL0,XNBL0,3LBXNTKX0SYTHIHRXWHN5TCLUK8X9G,3LBXNTKX0SYTHIHRXWHN5TCLUK8X9G,271100,271100,,,,,,,,,,
,,,,5,0.05012,0,10,10,900,1,plant on stand in room with large windows looking out to yard,room with large windows looking out to yard,wolfe2,117_R_plant_sized,2,35,AD94YUQE36ZOD,2021-01-25_09h50.00.992,MetaAwareness,2020.1.2,Win32,60,34R3P23QHT44L4WQV14RS81EEH3HWU,AD94YUQE36ZOD,3LBXNTKX0SYTHIHRXWHN5TCLUK8X9G,XNBL0,XNBL0,3LBXNTKX0SYTHIHRXWHN5TCLUK8X9G,3LBXNTKX0SYTHIHRXWHN5TCLUK8X9G,271100,271100,,,,,,,,,,
,,,,3,0.164435,0,11,11,272,1,nice hotel room with pillows on the bed and two vases on the table,nice hotel room with pillows on the bed and two vases and a bowle on the table,wolfe2,035_L_fruit,5,35,AD94YUQE36ZOD,2021-01-25_09h50.00.992,MetaAwareness,2020.1.2,Win32,60,34R3P23QHT44L4WQV14RS81EEH3HWU,AD94YUQE36ZOD,3LBXNTKX0SYTHIHRXWHN5TCLUK8X9G,XNBL0,XNBL0,3LBXNTKX0SYTHIHRXWHN5TCLUK8X9G,3LBXNTKX0SYTHIHRXWHN5TCLUK8X9G,271100,271100,,,,,,,,,,
,,,,4,0.01812,0,12,12,93,1,"a large, open bathroom overlooking a beautiful yard. the bathroom includes a soaking tub that has no drain","a large, open bathroom overlooking a beautiful yard. the bathroom includes a soaking tub with a drain at the top",wolfe2,012_R_tubaccesory,4,35,AD94YUQE36ZOD,2021-01-25_09h50.00.992,MetaAwareness,2020.1.2,Win32,60,34R3P23QHT44L4WQV14RS81EEH3HWU,AD94YUQE36ZOD,3LBXNTKX0SYTHIHRXWHN5TCLUK8X9G,XNBL0,XNBL0,3LBXNTKX0SYTHIHRXWHN5TCLUK8X9G,3LBXNTKX0SYTHIHRXWHN5TCLUK8X9G,271100,271100,,,,,,,,,,
,,,,5,0.179375,0,13,13,226,1,a countertop,a clean kitchen counter,wolfe2,030_L_drawer,1,35,AD94YUQE36ZOD,2021-01-25_09h50.00.992,MetaAwareness,2020.1.2,Win32,60,34R3P23QHT44L4WQV14RS81EEH3HWU,AD94YUQE36ZOD,3LBXNTKX0SYTHIHRXWHN5TCLUK8X9G,XNBL0,XNBL0,3LBXNTKX0SYTHIHRXWHN5TCLUK8X9G,3LBXNTKX0SYTHIHRXWHN5TCLUK8X9G,271100,271100,,,,,,,,,,
,,,,3,0.24131,0,14,14,512,1,an empty board room decorated well with 10 chairs but missing a framed picture on the table.,"and empty board room decorated well with 10 chairs, with a framed picture on the table",wolfe2,067_L_painting,2,35,AD94YUQE36ZOD,2021-01-25_09h50.00.992,MetaAwareness,2020.1.2,Win32,60,34R3P23QHT44L4WQV14RS81EEH3HWU,AD94YUQE36ZOD,3LBXNTKX0SYTHIHRXWHN5TCLUK8X9G,XNBL0,XNBL0,3LBXNTKX0SYTHIHRXWHN5TCLUK8X9G,3LBXNTKX0SYTHIHRXWHN5TCLUK8X9G,271100,271100,,,,,,,,,,
,,,,5,0.173255,0,15,15,546,1,a living room nothing on the lamp table,i living room with flower plant on the lamp table,wolfe2,071_R_art,3,35,AD94YUQE36ZOD,2021-01-25_09h50.00.992,MetaAwareness,2020.1.2,Win32,60,34R3P23QHT44L4WQV14RS81EEH3HWU,AD94YUQE36ZOD,3LBXNTKX0SYTHIHRXWHN5TCLUK8X9G,XNBL0,XNBL0,3LBXNTKX0SYTHIHRXWHN5TCLUK8X9G,3LBXNTKX0SYTHIHRXWHN5TCLUK8X9G,271100,271100,,,,,,,,,,
,,,,4,0.084175,0,16,16,198,1,"bathroom wit wood toilet, shower, and 4 decrative soaps","bathroom with wood toilet, shower, 4 decrative soaps under a shelf",wolfe2,026_L_rack,2,35,AD94YUQE36ZOD,2021-01-25_09h50.00.992,MetaAwareness,2020.1.2,Win32,60,34R3P23QHT44L4WQV14RS81EEH3HWU,AD94YUQE36ZOD,3LBXNTKX0SYTHIHRXWHN5TCLUK8X9G,XNBL0,XNBL0,3LBXNTKX0SYTHIHRXWHN5TCLUK8X9G,3LBXNTKX0SYTHIHRXWHN5TCLUK8X9G,271100,271100,,,,,,,,,,
,,,,3,0.084615,0,17,17,233,1,a bathroom with seperate sinks.,"a bathroom with seperate sinks, the sinks are ajoined by a small counter top and drawer",wolfe2,030_R_drawer,3,35,AD94YUQE36ZOD,2021-01-25_09h50.00.992,MetaAwareness,2020.1.2,Win32,60,34R3P23QHT44L4WQV14RS81EEH3HWU,AD94YUQE36ZOD,3LBXNTKX0SYTHIHRXWHN5TCLUK8X9G,XNBL0,XNBL0,3LBXNTKX0SYTHIHRXWHN5TCLUK8X9G,3LBXNTKX0SYTHIHRXWHN5TCLUK8X9G,271100,271100,,,,,,,,,,
,,,,2,0.075395,0,18,18,562,1,a large morden kitchen with white cabintry and a large island in the middle as well as some flowers by the appliances,a large modern kitchen with white cabintry and a large island in the middle as well as some flowers by the appliances.,wolfe2,073_R_coffeemug,1,35,AD94YUQE36ZOD,2021-01-25_09h50.00.992,MetaAwareness,2020.1.2,Win32,60,34R3P23QHT44L4WQV14RS81EEH3HWU,AD94YUQE36ZOD,3LBXNTKX0SYTHIHRXWHN5TCLUK8X9G,XNBL0,XNBL0,3LBXNTKX0SYTHIHRXWHN5TCLUK8X9G,3LBXNTKX0SYTHIHRXWHN5TCLUK8X9G,271100,271100,,,,,,,,,,
,,,,4,0.05101,0,19,19,736,1,there is a white plastic container on the pink vanity.,there is nothing sitting on top of the pink vanity.,wolfe2,096_R_painting,2,35,AD94YUQE36ZOD,2021-01-25_09h50.00.992,MetaAwareness,2020.1.2,Win32,60,34R3P23QHT44L4WQV14RS81EEH3HWU,AD94YUQE36ZOD,3LBXNTKX0SYTHIHRXWHN5TCLUK8X9G,XNBL0,XNBL0,3LBXNTKX0SYTHIHRXWHN5TCLUK8X9G,3LBXNTKX0SYTHIHRXWHN5TCLUK8X9G,271100,271100,,,,,,,,,,
,,,,5,0.01799,0,20,20,81,1,in a bathroom there is an empty space to the right of the sink handle,in a bathroom there sits a red dispenser to the right of the sink handle,wolfe2,011_L_parfum,1,35,AD94YUQE36ZOD,2021-01-25_09h50.00.992,MetaAwareness,2020.1.2,Win32,60,34R3P23QHT44L4WQV14RS81EEH3HWU,AD94YUQE36ZOD,3LBXNTKX0SYTHIHRXWHN5TCLUK8X9G,XNBL0,XNBL0,3LBXNTKX0SYTHIHRXWHN5TCLUK8X9G,3LBXNTKX0SYTHIHRXWHN5TCLUK8X9G,271100,271100,,,,,,,,,,
,,,,2,0.644705,0,21,21,173,1,living room with rustic feel,living room with rustic feel and remote control on table between the chairs,wolfe2,023_L_remote,3,35,AD94YUQE36ZOD,2021-01-25_09h50.00.992,MetaAwareness,2020.1.2,Win32,60,34R3P23QHT44L4WQV14RS81EEH3HWU,AD94YUQE36ZOD,3LBXNTKX0SYTHIHRXWHN5TCLUK8X9G,XNBL0,XNBL0,3LBXNTKX0SYTHIHRXWHN5TCLUK8X9G,3LBXNTKX0SYTHIHRXWHN5TCLUK8X9G,271100,271100,,,,,,,,,,
,,,,5,0.017745,0,22,22,124,1,"a minimalistic living room in a modern home, with a pedestal that has nothing on it.","a minimalistic living room in a modern home, with a pedestal that has an artistic object on it.",wolfe2,016_L_art,6,35,AD94YUQE36ZOD,2021-01-25_09h50.00.992,MetaAwareness,2020.1.2,Win32,60,34R3P23QHT44L4WQV14RS81EEH3HWU,AD94YUQE36ZOD,3LBXNTKX0SYTHIHRXWHN5TCLUK8X9G,XNBL0,XNBL0,3LBXNTKX0SYTHIHRXWHN5TCLUK8X9G,3LBXNTKX0SYTHIHRXWHN5TCLUK8X9G,271100,271100,,,,,,,,,,
,,,,2,0.06131,0,23,23,297,1,a bright and neat looking dining room with 3 plates propped up on the wall shelves.,a bright and neat looking dining room with a wall decoration next to 3 plates propped up on the wall shelves.,wolfe2,038_R_art,2,35,AD94YUQE36ZOD,2021-01-25_09h50.00.992,MetaAwareness,2020.1.2,Win32,60,34R3P23QHT44L4WQV14RS81EEH3HWU,AD94YUQE36ZOD,3LBXNTKX0SYTHIHRXWHN5TCLUK8X9G,XNBL0,XNBL0,3LBXNTKX0SYTHIHRXWHN5TCLUK8X9G,3LBXNTKX0SYTHIHRXWHN5TCLUK8X9G,271100,271100,,,,,,,,,,
,,,,4,0.05131,0,24,24,922,1,a living room with a screen door to the outside and a flower and two gold statues on the mantle,a living room with a screen door to the outside and a flower and one gold statue on the mantle,wolfe2,120_L_art,4,35,AD94YUQE36ZOD,2021-01-25_09h50.00.992,MetaAwareness,2020.1.2,Win32,60,34R3P23QHT44L4WQV14RS81EEH3HWU,AD94YUQE36ZOD,3LBXNTKX0SYTHIHRXWHN5TCLUK8X9G,XNBL0,XNBL0,3LBXNTKX0SYTHIHRXWHN5TCLUK8X9G,3LBXNTKX0SYTHIHRXWHN5TCLUK8X9G,271100,271100,,,,,,,,,,
,,,,5,0.062005,0,25,25,21,1,a view of a lake out a window in someone's study with no ducks on the lake,a view of a lake out a window in someone's study with three ducks swimming on the lake,wolfe2,003_R_ducks,4,35,AD94YUQE36ZOD,2021-01-25_09h50.00.992,MetaAwareness,2020.1.2,Win32,60,34R3P23QHT44L4WQV14RS81EEH3HWU,AD94YUQE36ZOD,3LBXNTKX0SYTHIHRXWHN5TCLUK8X9G,XNBL0,XNBL0,3LBXNTKX0SYTHIHRXWHN5TCLUK8X9G,3LBXNTKX0SYTHIHRXWHN5TCLUK8X9G,271100,271100,,,,,,,,,,
,,,,3,0.09942,0,26,26,957,1,an office space in a home with a vase on the floor,an office space in a home,wolfe2,124_R_vase,3,35,AD94YUQE36ZOD,2021-01-25_09h50.00.992,MetaAwareness,2020.1.2,Win32,60,34R3P23QHT44L4WQV14RS81EEH3HWU,AD94YUQE36ZOD,3LBXNTKX0SYTHIHRXWHN5TCLUK8X9G,XNBL0,XNBL0,3LBXNTKX0SYTHIHRXWHN5TCLUK8X9G,3LBXNTKX0SYTHIHRXWHN5TCLUK8X9G,271100,271100,,,,,,,,,,
,,,,2,0.01667,0,27,27,7,1,"a fancy bedroom with dark teal walls, a lacy bed spread, white curtains and a picture of a swan","a fancy bedroom with dark teal walls, a lacy bed spread, white curtains, a picture of a swan and a small mirror.",wolfe2,001_R_mirror,4,35,AD94YUQE36ZOD,2021-01-25_09h50.00.992,MetaAwareness,2020.1.2,Win32,60,34R3P23QHT44L4WQV14RS81EEH3HWU,AD94YUQE36ZOD,3LBXNTKX0SYTHIHRXWHN5TCLUK8X9G,XNBL0,XNBL0,3LBXNTKX0SYTHIHRXWHN5TCLUK8X9G,3LBXNTKX0SYTHIHRXWHN5TCLUK8X9G,271100,271100,,,,,,,,,,
,,,,4,0.0585,0,28,28,47,1,a spot where an object sits on nightstand,a pot sitting on a nightstand,wolfe2,006_R_vase,6,35,AD94YUQE36ZOD,2021-01-25_09h50.00.992,MetaAwareness,2020.1.2,Win32,60,34R3P23QHT44L4WQV14RS81EEH3HWU,AD94YUQE36ZOD,3LBXNTKX0SYTHIHRXWHN5TCLUK8X9G,XNBL0,XNBL0,3LBXNTKX0SYTHIHRXWHN5TCLUK8X9G,3LBXNTKX0SYTHIHRXWHN5TCLUK8X9G,271100,271100,,,,,,,,,,
,,,,5,0.09032,0,29,29,568,1,a living roomwith a table with plants,a living room with plants and a book on the table,wolfe2,074_R_book,2,35,AD94YUQE36ZOD,2021-01-25_09h50.00.992,MetaAwareness,2020.1.2,Win32,60,34R3P23QHT44L4WQV14RS81EEH3HWU,AD94YUQE36ZOD,3LBXNTKX0SYTHIHRXWHN5TCLUK8X9G,XNBL0,XNBL0,3LBXNTKX0SYTHIHRXWHN5TCLUK8X9G,3LBXNTKX0SYTHIHRXWHN5TCLUK8X9G,271100,271100,,,,,,,,,,
,,,,,,,,,,,,,,,,35,AD94YUQE36ZOD,2021-01-25_09h50.00.992,MetaAwareness,2020.1.2,Win32,60,34R3P23QHT44L4WQV14RS81EEH3HWU,AD94YUQE36ZOD,3LBXNTKX0SYTHIHRXWHN5TCLUK8X9G,XNBL0,XNBL0,3LBXNTKX0SYTHIHRXWHN5TCLUK8X9G,3LBXNTKX0SYTHIHRXWHN5TCLUK8X9G,271100,271100,3,0.07084,someone laying underneath a blue beach umbrella on a crowded beach,someone laying underneath a blue beach umbrella on a crowded beach,same,4,0.06001,members of a marching band crossing a track that all have feather plumes at the front of their hats,a cluttered and rustic looking cafe with 10 hanging lights,different
