consent_response.keys,consent_response.rt,key_resp_2.keys,key_resp_2.rt,user_resp.keys,user_resp.rt,trials.thisRepN,trials.thisTrialN,trials.thisN,trials.thisIndex,trials.ran,image_1_text,image_2_text,database,image,number,age,worker_ID,date,expName,psychopyVersion,OS,frameRate,hitId,workerId,assignmentId,a,tp_a,b,tp_b,c,tp_c,catch_same_resp.keys,catch_same_resp.rt,image_1_text_catch_same,image_2_text_catch_same,image_catch_same,catch_different_resp.keys,catch_different_resp.rt,image_1_text_catch_different,image_2_text_catch_different,image_catch_different
space,13.4429,space,27.672275,5,25.24,0,0,0,587,1,a modern kitchen with bar seating at an island. there are three black seat stools with footrest and on black seat stool with no footrest.,a modern kitchen with bar seating at an island. there are four black seat stools with footrests.,wolfe2,077_L_footrest,1,35,AIEKCWYZTS41V,2021-01-25_08h41.25.902,MetaAwareness,2020.1.2,Win32,60,3PMR2DOWOP4GW9TBKTXZ8JFXPF945A,AIEKCWYZTS41V,3RGU30DZTBB7TIVW516RJ6AQJLPJM2,Z3GR0,Z3GR0,3RGU30DZTBB7TIVW516RJ6AQJLPJM2,3RGU30DZTBB7TIVW516RJ6AQJLPJM2,271100,271100,,,,,,,,,,
,,,,6,10.18314,0,1,1,625,1,a child's looking room with childrens toys on the floor. there is no toy in the corner by the shelf with the radio on it.,a child's looking room with childrens toys on the floor. there is a toy in the corner by the shelf with the radio on it.,wolfe2,081_R_football,2,35,AIEKCWYZTS41V,2021-01-25_08h41.25.902,MetaAwareness,2020.1.2,Win32,60,3PMR2DOWOP4GW9TBKTXZ8JFXPF945A,AIEKCWYZTS41V,3RGU30DZTBB7TIVW516RJ6AQJLPJM2,Z3GR0,Z3GR0,3RGU30DZTBB7TIVW516RJ6AQJLPJM2,3RGU30DZTBB7TIVW516RJ6AQJLPJM2,271100,271100,,,,,,,,,,
,,,,1,5.79348,0,2,2,659,1,there is a light switch,the light switch is missing,wolfe2,085_R_switchboard,4,35,AIEKCWYZTS41V,2021-01-25_08h41.25.902,MetaAwareness,2020.1.2,Win32,60,3PMR2DOWOP4GW9TBKTXZ8JFXPF945A,AIEKCWYZTS41V,3RGU30DZTBB7TIVW516RJ6AQJLPJM2,Z3GR0,Z3GR0,3RGU30DZTBB7TIVW516RJ6AQJLPJM2,3RGU30DZTBB7TIVW516RJ6AQJLPJM2,271100,271100,,,,,,,,,,
,,,,4,12.710465,0,3,3,595,1,"it's a home kitchen next to the backyard with four seets at the counter, very modern and clean","still a home kitchen thats very modern and clean, but the four seats all have foot pedals now, while the other kitchen only three seats did.",wolfe2,077_R_footrest,3,35,AIEKCWYZTS41V,2021-01-25_08h41.25.902,MetaAwareness,2020.1.2,Win32,60,3PMR2DOWOP4GW9TBKTXZ8JFXPF945A,AIEKCWYZTS41V,3RGU30DZTBB7TIVW516RJ6AQJLPJM2,Z3GR0,Z3GR0,3RGU30DZTBB7TIVW516RJ6AQJLPJM2,3RGU30DZTBB7TIVW516RJ6AQJLPJM2,271100,271100,,,,,,,,,,
,,,,1,5.00775,0,4,4,63,1,white blinds in the bathroom,a bottle sitting on the window sill,wolfe2,008_R_bottle,7,35,AIEKCWYZTS41V,2021-01-25_08h41.25.902,MetaAwareness,2020.1.2,Win32,60,3PMR2DOWOP4GW9TBKTXZ8JFXPF945A,AIEKCWYZTS41V,3RGU30DZTBB7TIVW516RJ6AQJLPJM2,Z3GR0,Z3GR0,3RGU30DZTBB7TIVW516RJ6AQJLPJM2,3RGU30DZTBB7TIVW516RJ6AQJLPJM2,271100,271100,,,,,,,,,,
,,,,5,6.508495,0,5,5,199,1,a bathroom with a wood commode top,a bathroom with a wood commode top and a shelf,wolfe2,026_L_rack,4,35,AIEKCWYZTS41V,2021-01-25_08h41.25.902,MetaAwareness,2020.1.2,Win32,60,3PMR2DOWOP4GW9TBKTXZ8JFXPF945A,AIEKCWYZTS41V,3RGU30DZTBB7TIVW516RJ6AQJLPJM2,Z3GR0,Z3GR0,3RGU30DZTBB7TIVW516RJ6AQJLPJM2,3RGU30DZTBB7TIVW516RJ6AQJLPJM2,271100,271100,,,,,,,,,,
,,,,3,8.810325,0,6,6,252,1,a bottle sitting on a circular structure and shelf,two bottles sitting on a floating shelf,wolfe2,032_R_bottle,6,35,AIEKCWYZTS41V,2021-01-25_08h41.25.902,MetaAwareness,2020.1.2,Win32,60,3PMR2DOWOP4GW9TBKTXZ8JFXPF945A,AIEKCWYZTS41V,3RGU30DZTBB7TIVW516RJ6AQJLPJM2,Z3GR0,Z3GR0,3RGU30DZTBB7TIVW516RJ6AQJLPJM2,3RGU30DZTBB7TIVW516RJ6AQJLPJM2,271100,271100,,,,,,,,,,
,,,,3,8.45636,0,7,7,389,1,a modern living room with painted white walls,flat speakers hung against the wall in a living room,wolfe2,052_L_speaker,3,35,AIEKCWYZTS41V,2021-01-25_08h41.25.902,MetaAwareness,2020.1.2,Win32,60,3PMR2DOWOP4GW9TBKTXZ8JFXPF945A,AIEKCWYZTS41V,3RGU30DZTBB7TIVW516RJ6AQJLPJM2,Z3GR0,Z3GR0,3RGU30DZTBB7TIVW516RJ6AQJLPJM2,3RGU30DZTBB7TIVW516RJ6AQJLPJM2,271100,271100,,,,,,,,,,
,,,,4,8.553325,0,8,8,972,1,a cozy living room setting with decorative vases on the wall shelves,a cozy living room setting with some wall shelves,wolfe2,126_R_candles,4,35,AIEKCWYZTS41V,2021-01-25_08h41.25.902,MetaAwareness,2020.1.2,Win32,60,3PMR2DOWOP4GW9TBKTXZ8JFXPF945A,AIEKCWYZTS41V,3RGU30DZTBB7TIVW516RJ6AQJLPJM2,Z3GR0,Z3GR0,3RGU30DZTBB7TIVW516RJ6AQJLPJM2,3RGU30DZTBB7TIVW516RJ6AQJLPJM2,271100,271100,,,,,,,,,,
,,,,5,9.34583,0,9,9,67,1,a modern bedroom with a settee sitting on the hard floor,a modern bedroom with a settee sitting on a rug on the hard floor,wolfe2,009_R_carpet,2,35,AIEKCWYZTS41V,2021-01-25_08h41.25.902,MetaAwareness,2020.1.2,Win32,60,3PMR2DOWOP4GW9TBKTXZ8JFXPF945A,AIEKCWYZTS41V,3RGU30DZTBB7TIVW516RJ6AQJLPJM2,Z3GR0,Z3GR0,3RGU30DZTBB7TIVW516RJ6AQJLPJM2,3RGU30DZTBB7TIVW516RJ6AQJLPJM2,271100,271100,,,,,,,,,,
,,,,5,8.630995,0,10,10,893,1,a black and white based modern dining room with a plant on the floor with a silver basket next to it.,a black and white based modern dining room with a plant on the floor,wolfe2,116_R_basket,3,35,AIEKCWYZTS41V,2021-01-25_08h41.25.902,MetaAwareness,2020.1.2,Win32,60,3PMR2DOWOP4GW9TBKTXZ8JFXPF945A,AIEKCWYZTS41V,3RGU30DZTBB7TIVW516RJ6AQJLPJM2,Z3GR0,Z3GR0,3RGU30DZTBB7TIVW516RJ6AQJLPJM2,3RGU30DZTBB7TIVW516RJ6AQJLPJM2,271100,271100,,,,,,,,,,
,,,,6,9.731755,0,11,11,38,1,a clean and well kept master bedroom that has a night stand with a lamp on it.,a clean and well kept master bedroom that has a night stand with a lamp and vase on it,wolfe2,006_L_vase,1,35,AIEKCWYZTS41V,2021-01-25_08h41.25.902,MetaAwareness,2020.1.2,Win32,60,3PMR2DOWOP4GW9TBKTXZ8JFXPF945A,AIEKCWYZTS41V,3RGU30DZTBB7TIVW516RJ6AQJLPJM2,Z3GR0,Z3GR0,3RGU30DZTBB7TIVW516RJ6AQJLPJM2,3RGU30DZTBB7TIVW516RJ6AQJLPJM2,271100,271100,,,,,,,,,,
,,,,4,6.30527,0,12,12,831,1,a closet with a dresser at the end with a blue thing on top,a closet with a dresser and many clothes,wolfe2,108_L_boa,4,35,AIEKCWYZTS41V,2021-01-25_08h41.25.902,MetaAwareness,2020.1.2,Win32,60,3PMR2DOWOP4GW9TBKTXZ8JFXPF945A,AIEKCWYZTS41V,3RGU30DZTBB7TIVW516RJ6AQJLPJM2,Z3GR0,Z3GR0,3RGU30DZTBB7TIVW516RJ6AQJLPJM2,3RGU30DZTBB7TIVW516RJ6AQJLPJM2,271100,271100,,,,,,,,,,
,,,,4,9.18782,0,13,13,978,1,a huge living room with two lights on the walls,a huge living room with only one wall light on the right pillar,wolfe2,127_L_light,5,35,AIEKCWYZTS41V,2021-01-25_08h41.25.902,MetaAwareness,2020.1.2,Win32,60,3PMR2DOWOP4GW9TBKTXZ8JFXPF945A,AIEKCWYZTS41V,3RGU30DZTBB7TIVW516RJ6AQJLPJM2,Z3GR0,Z3GR0,3RGU30DZTBB7TIVW516RJ6AQJLPJM2,3RGU30DZTBB7TIVW516RJ6AQJLPJM2,271100,271100,,,,,,,,,,
,,,,3,8.26064,0,14,14,586,1,a bathroom without a towel hook by the bathroom mirror,a bathroom with a towel hook by the bathroom mirror,wolfe2,076_R_hook,4,35,AIEKCWYZTS41V,2021-01-25_08h41.25.902,MetaAwareness,2020.1.2,Win32,60,3PMR2DOWOP4GW9TBKTXZ8JFXPF945A,AIEKCWYZTS41V,3RGU30DZTBB7TIVW516RJ6AQJLPJM2,Z3GR0,Z3GR0,3RGU30DZTBB7TIVW516RJ6AQJLPJM2,3RGU30DZTBB7TIVW516RJ6AQJLPJM2,271100,271100,,,,,,,,,,
,,,,3,3.95025,0,15,15,850,1,a living room with a decorative pot,a living room without a decrative pot,wolfe2,111_L_pot,1,35,AIEKCWYZTS41V,2021-01-25_08h41.25.902,MetaAwareness,2020.1.2,Win32,60,3PMR2DOWOP4GW9TBKTXZ8JFXPF945A,AIEKCWYZTS41V,3RGU30DZTBB7TIVW516RJ6AQJLPJM2,Z3GR0,Z3GR0,3RGU30DZTBB7TIVW516RJ6AQJLPJM2,3RGU30DZTBB7TIVW516RJ6AQJLPJM2,271100,271100,,,,,,,,,,
,,,,3,5.351645,0,16,16,667,1,a living room with a box on the table,a living room without a box on the table,wolfe2,086_R_book,1,35,AIEKCWYZTS41V,2021-01-25_08h41.25.902,MetaAwareness,2020.1.2,Win32,60,3PMR2DOWOP4GW9TBKTXZ8JFXPF945A,AIEKCWYZTS41V,3RGU30DZTBB7TIVW516RJ6AQJLPJM2,Z3GR0,Z3GR0,3RGU30DZTBB7TIVW516RJ6AQJLPJM2,3RGU30DZTBB7TIVW516RJ6AQJLPJM2,271100,271100,,,,,,,,,,
,,,,5,8.16484,0,17,17,503,1,modern looking space with black white and red furniture,"modern living space with black, white and red furniture including a pole",wolfe2,066_L_vase,1,35,AIEKCWYZTS41V,2021-01-25_08h41.25.902,MetaAwareness,2020.1.2,Win32,60,3PMR2DOWOP4GW9TBKTXZ8JFXPF945A,AIEKCWYZTS41V,3RGU30DZTBB7TIVW516RJ6AQJLPJM2,Z3GR0,Z3GR0,3RGU30DZTBB7TIVW516RJ6AQJLPJM2,3RGU30DZTBB7TIVW516RJ6AQJLPJM2,271100,271100,,,,,,,,,,
,,,,5,6.36156,0,18,18,226,1,a countertop,a clean kitchen counter,wolfe2,030_L_drawer,1,35,AIEKCWYZTS41V,2021-01-25_08h41.25.902,MetaAwareness,2020.1.2,Win32,60,3PMR2DOWOP4GW9TBKTXZ8JFXPF945A,AIEKCWYZTS41V,3RGU30DZTBB7TIVW516RJ6AQJLPJM2,Z3GR0,Z3GR0,3RGU30DZTBB7TIVW516RJ6AQJLPJM2,3RGU30DZTBB7TIVW516RJ6AQJLPJM2,271100,271100,,,,,,,,,,
,,,,4,7.98853,0,19,19,33,1,a white and red living area with a blank wall above the futon,a white and red living area with a mirror above the futon,wolfe2,005_L_mirror,6,35,AIEKCWYZTS41V,2021-01-25_08h41.25.902,MetaAwareness,2020.1.2,Win32,60,3PMR2DOWOP4GW9TBKTXZ8JFXPF945A,AIEKCWYZTS41V,3RGU30DZTBB7TIVW516RJ6AQJLPJM2,Z3GR0,Z3GR0,3RGU30DZTBB7TIVW516RJ6AQJLPJM2,3RGU30DZTBB7TIVW516RJ6AQJLPJM2,271100,271100,,,,,,,,,,
,,,,1,8.03673,0,20,20,85,1,the white tile color scheme does not mix well with the blue tiles,the hidious bottle of perfume sits on top of the marble sink near a large bottle of pink perfume,wolfe2,011_R_parfum,4,35,AIEKCWYZTS41V,2021-01-25_08h41.25.902,MetaAwareness,2020.1.2,Win32,60,3PMR2DOWOP4GW9TBKTXZ8JFXPF945A,AIEKCWYZTS41V,3RGU30DZTBB7TIVW516RJ6AQJLPJM2,Z3GR0,Z3GR0,3RGU30DZTBB7TIVW516RJ6AQJLPJM2,3RGU30DZTBB7TIVW516RJ6AQJLPJM2,271100,271100,,,,,,,,,,
,,,,5,8.933465,0,21,21,95,1,a room with class and cupboared two sofa present,"a room with class door, cupboard and sofa present",wolfe2,013_L_lamp,1,35,AIEKCWYZTS41V,2021-01-25_08h41.25.902,MetaAwareness,2020.1.2,Win32,60,3PMR2DOWOP4GW9TBKTXZ8JFXPF945A,AIEKCWYZTS41V,3RGU30DZTBB7TIVW516RJ6AQJLPJM2,Z3GR0,Z3GR0,3RGU30DZTBB7TIVW516RJ6AQJLPJM2,3RGU30DZTBB7TIVW516RJ6AQJLPJM2,271100,271100,,,,,,,,,,
,,,,5,8.98851,0,22,22,225,1,"a bathroom with a shower, two sinks and two mirrors with two red cups on a small shelf","a bathroom with a shower, two sinks and two mirrors with three red cups on a small shelf",wolfe2,029_R_glass,4,35,AIEKCWYZTS41V,2021-01-25_08h41.25.902,MetaAwareness,2020.1.2,Win32,60,3PMR2DOWOP4GW9TBKTXZ8JFXPF945A,AIEKCWYZTS41V,3RGU30DZTBB7TIVW516RJ6AQJLPJM2,Z3GR0,Z3GR0,3RGU30DZTBB7TIVW516RJ6AQJLPJM2,3RGU30DZTBB7TIVW516RJ6AQJLPJM2,271100,271100,,,,,,,,,,
,,,,4,5.07803,0,23,23,974,1,in a living room there is a light fixture on a wall next to a window,in a living room there is no light fixture on a wall next to a window,wolfe2,127_L_light,1,35,AIEKCWYZTS41V,2021-01-25_08h41.25.902,MetaAwareness,2020.1.2,Win32,60,3PMR2DOWOP4GW9TBKTXZ8JFXPF945A,AIEKCWYZTS41V,3RGU30DZTBB7TIVW516RJ6AQJLPJM2,Z3GR0,Z3GR0,3RGU30DZTBB7TIVW516RJ6AQJLPJM2,3RGU30DZTBB7TIVW516RJ6AQJLPJM2,271100,271100,,,,,,,,,,
,,,,5,9.165765,0,24,24,554,1,a dresser in a bedroom with a handle missing from the lowest right corner drawer,a dresser in a bedroom with all of it's handles on it,wolfe2,072_R_handle,2,35,AIEKCWYZTS41V,2021-01-25_08h41.25.902,MetaAwareness,2020.1.2,Win32,60,3PMR2DOWOP4GW9TBKTXZ8JFXPF945A,AIEKCWYZTS41V,3RGU30DZTBB7TIVW516RJ6AQJLPJM2,Z3GR0,Z3GR0,3RGU30DZTBB7TIVW516RJ6AQJLPJM2,3RGU30DZTBB7TIVW516RJ6AQJLPJM2,271100,271100,,,,,,,,,,
,,,,3,8.53356,0,25,25,81,1,in a bathroom there is an empty space to the right of the sink handle,in a bathroom there sits a red dispenser to the right of the sink handle,wolfe2,011_L_parfum,1,35,AIEKCWYZTS41V,2021-01-25_08h41.25.902,MetaAwareness,2020.1.2,Win32,60,3PMR2DOWOP4GW9TBKTXZ8JFXPF945A,AIEKCWYZTS41V,3RGU30DZTBB7TIVW516RJ6AQJLPJM2,Z3GR0,Z3GR0,3RGU30DZTBB7TIVW516RJ6AQJLPJM2,3RGU30DZTBB7TIVW516RJ6AQJLPJM2,271100,271100,,,,,,,,,,
,,,,4,9.456635,0,26,26,887,1,a wooden dining room with a wire basket located behind a white planter.,a wooden dining room with a white planter with nothing between it and the wall.,wolfe2,116_L_basket,1,35,AIEKCWYZTS41V,2021-01-25_08h41.25.902,MetaAwareness,2020.1.2,Win32,60,3PMR2DOWOP4GW9TBKTXZ8JFXPF945A,AIEKCWYZTS41V,3RGU30DZTBB7TIVW516RJ6AQJLPJM2,Z3GR0,Z3GR0,3RGU30DZTBB7TIVW516RJ6AQJLPJM2,3RGU30DZTBB7TIVW516RJ6AQJLPJM2,271100,271100,,,,,,,,,,
,,,,5,5.25711,0,27,27,356,1,a bedroom with a black and white desk with three handles,a bedroom with a black and white desk with four handles,wolfe2,047_R_handle,1,35,AIEKCWYZTS41V,2021-01-25_08h41.25.902,MetaAwareness,2020.1.2,Win32,60,3PMR2DOWOP4GW9TBKTXZ8JFXPF945A,AIEKCWYZTS41V,3RGU30DZTBB7TIVW516RJ6AQJLPJM2,Z3GR0,Z3GR0,3RGU30DZTBB7TIVW516RJ6AQJLPJM2,3RGU30DZTBB7TIVW516RJ6AQJLPJM2,271100,271100,,,,,,,,,,
,,,,4,8.570215,0,28,28,414,1,a home studio or bedroom with some nice bright red colors and office,a home studio or bedroom with nice bright red colors and office but it has three rugs instead of two,wolfe2,055_R_carpet,4,35,AIEKCWYZTS41V,2021-01-25_08h41.25.902,MetaAwareness,2020.1.2,Win32,60,3PMR2DOWOP4GW9TBKTXZ8JFXPF945A,AIEKCWYZTS41V,3RGU30DZTBB7TIVW516RJ6AQJLPJM2,Z3GR0,Z3GR0,3RGU30DZTBB7TIVW516RJ6AQJLPJM2,3RGU30DZTBB7TIVW516RJ6AQJLPJM2,271100,271100,,,,,,,,,,
,,,,4,5.237875,0,29,29,581,1,a bathroom with no towel hook on the wall,a bathroom with a towel hook on the wall,wolfe2,076_L_hook,5,35,AIEKCWYZTS41V,2021-01-25_08h41.25.902,MetaAwareness,2020.1.2,Win32,60,3PMR2DOWOP4GW9TBKTXZ8JFXPF945A,AIEKCWYZTS41V,3RGU30DZTBB7TIVW516RJ6AQJLPJM2,Z3GR0,Z3GR0,3RGU30DZTBB7TIVW516RJ6AQJLPJM2,3RGU30DZTBB7TIVW516RJ6AQJLPJM2,271100,271100,,,,,,,,,,
,,,,,,,,,,,,,,,,35,AIEKCWYZTS41V,2021-01-25_08h41.25.902,MetaAwareness,2020.1.2,Win32,60,3PMR2DOWOP4GW9TBKTXZ8JFXPF945A,AIEKCWYZTS41V,3RGU30DZTBB7TIVW516RJ6AQJLPJM2,Z3GR0,Z3GR0,3RGU30DZTBB7TIVW516RJ6AQJLPJM2,3RGU30DZTBB7TIVW516RJ6AQJLPJM2,271100,271100,6,8.852905,someone laying underneath a blue beach umbrella on a crowded beach,someone laying underneath a blue beach umbrella on a crowded beach,same,1,5.102545,members of a marching band crossing a track that all have feather plumes at the front of their hats,a cluttered and rustic looking cafe with 10 hanging lights,different
