consent_response.keys,consent_response.rt,key_resp_2.keys,key_resp_2.rt,user_resp.keys,user_resp.rt,trials.thisRepN,trials.thisTrialN,trials.thisN,trials.thisIndex,trials.ran,image_1_text,image_2_text,database,image,number,age,worker_ID,date,expName,psychopyVersion,OS,frameRate,hitId,workerId,assignmentId,a,tp_a,b,tp_b,c,tp_c,catch_same_resp.keys,catch_same_resp.rt,image_1_text_catch_same,image_2_text_catch_same,image_catch_same,catch_different_resp.keys,catch_different_resp.rt,image_1_text_catch_different,image_2_text_catch_different,image_catch_different
space,120.389775,space,36.41275,5,13.439015,0,0,0,782,1,a spacious hotel room; with a while light theme and lumination,a spacious hotel room; well light missing a bar stool,wolfe2,102_R_shoppingbag,3,35,AU849EHZNGV2Z,2021-01-25_06h42.43.070,MetaAwareness,2020.1.2,Win32,60,3PMR2DOWOP4GW9TBKTXZ8JFXPF945A,AU849EHZNGV2Z,3TK8OJTYM2OM5GS3E6C23YFFJD7VPV,YOKT0,YOKT0,3TK8OJTYM2OM5GS3E6C23YFFJD7VPV,3TK8OJTYM2OM5GS3E6C23YFFJD7VPV,271100,271100,,,,,,,,,,
,,,,5,6.54343,0,1,1,439,1,a frilly bedroom with a fur table,a frilly bedroom with a fur table with something on it,wolfe2,058_L_clutch,4,35,AU849EHZNGV2Z,2021-01-25_06h42.43.070,MetaAwareness,2020.1.2,Win32,60,3PMR2DOWOP4GW9TBKTXZ8JFXPF945A,AU849EHZNGV2Z,3TK8OJTYM2OM5GS3E6C23YFFJD7VPV,YOKT0,YOKT0,3TK8OJTYM2OM5GS3E6C23YFFJD7VPV,3TK8OJTYM2OM5GS3E6C23YFFJD7VPV,271100,271100,,,,,,,,,,
,,,,6,10.99505,0,2,2,464,1,"a traditional dining room with a chandelier, floral accent pillows, dark wood furniture, and a set table with several goblets","a traditional dining room with a chandelier, floral accent pillows, dark wood furniture, and a set table with with about half a dozen goblets",wolfe2,061_R_glass,3,35,AU849EHZNGV2Z,2021-01-25_06h42.43.070,MetaAwareness,2020.1.2,Win32,60,3PMR2DOWOP4GW9TBKTXZ8JFXPF945A,AU849EHZNGV2Z,3TK8OJTYM2OM5GS3E6C23YFFJD7VPV,YOKT0,YOKT0,3TK8OJTYM2OM5GS3E6C23YFFJD7VPV,3TK8OJTYM2OM5GS3E6C23YFFJD7VPV,271100,271100,,,,,,,,,,
,,,,5,14.79248,0,3,3,729,1,a room with four candles displayed by the mirror,a room with three candles displayed by the miror,wolfe2,095_R_candle,7,35,AU849EHZNGV2Z,2021-01-25_06h42.43.070,MetaAwareness,2020.1.2,Win32,60,3PMR2DOWOP4GW9TBKTXZ8JFXPF945A,AU849EHZNGV2Z,3TK8OJTYM2OM5GS3E6C23YFFJD7VPV,YOKT0,YOKT0,3TK8OJTYM2OM5GS3E6C23YFFJD7VPV,3TK8OJTYM2OM5GS3E6C23YFFJD7VPV,271100,271100,,,,,,,,,,
,,,,4,4.64334,0,4,4,703,1,a red public restroom with a window at the reflecting in a wall mirror,a red public restroom with thre sinks and a chair infront of a wall mirror.,wolfe2,091_L_airfreshener,4,35,AU849EHZNGV2Z,2021-01-25_06h42.43.070,MetaAwareness,2020.1.2,Win32,60,3PMR2DOWOP4GW9TBKTXZ8JFXPF945A,AU849EHZNGV2Z,3TK8OJTYM2OM5GS3E6C23YFFJD7VPV,YOKT0,YOKT0,3TK8OJTYM2OM5GS3E6C23YFFJD7VPV,3TK8OJTYM2OM5GS3E6C23YFFJD7VPV,271100,271100,,,,,,,,,,
,,,,5,7.44626,0,5,5,527,1,"a fireplace, table, mirror and bookshelf all wooden","a wooden fireplace, table, mirror and bookshelf with candles",wolfe2,069_L_things,2,35,AU849EHZNGV2Z,2021-01-25_06h42.43.070,MetaAwareness,2020.1.2,Win32,60,3PMR2DOWOP4GW9TBKTXZ8JFXPF945A,AU849EHZNGV2Z,3TK8OJTYM2OM5GS3E6C23YFFJD7VPV,YOKT0,YOKT0,3TK8OJTYM2OM5GS3E6C23YFFJD7VPV,3TK8OJTYM2OM5GS3E6C23YFFJD7VPV,271100,271100,,,,,,,,,,
,,,,5,6.94147,0,6,6,278,1,"a bedroom with some tables and a couple of lamps, and a long table with two vases on it","a bedroom with some tables and a couple of lamps, and a long table with two vases and a small art object on it",wolfe2,035_R_fruit,4,35,AU849EHZNGV2Z,2021-01-25_06h42.43.070,MetaAwareness,2020.1.2,Win32,60,3PMR2DOWOP4GW9TBKTXZ8JFXPF945A,AU849EHZNGV2Z,3TK8OJTYM2OM5GS3E6C23YFFJD7VPV,YOKT0,YOKT0,3TK8OJTYM2OM5GS3E6C23YFFJD7VPV,3TK8OJTYM2OM5GS3E6C23YFFJD7VPV,271100,271100,,,,,,,,,,
,,,,5,25.671855,0,7,7,388,1,a bedroom with a fireplace has a photo of a couple on top with a missing object,a bedroom with a fireplace and a photo of a couple on top. an object appears next to the photo,wolfe2,051_R_owl,7,35,AU849EHZNGV2Z,2021-01-25_06h42.43.070,MetaAwareness,2020.1.2,Win32,60,3PMR2DOWOP4GW9TBKTXZ8JFXPF945A,AU849EHZNGV2Z,3TK8OJTYM2OM5GS3E6C23YFFJD7VPV,YOKT0,YOKT0,3TK8OJTYM2OM5GS3E6C23YFFJD7VPV,3TK8OJTYM2OM5GS3E6C23YFFJD7VPV,271100,271100,,,,,,,,,,
,,,,4,5.316765,0,8,8,661,1,low light beige neutral bathroom setting,a smooth beige bathroom,wolfe2,085_R_switchboard,6,35,AU849EHZNGV2Z,2021-01-25_06h42.43.070,MetaAwareness,2020.1.2,Win32,60,3PMR2DOWOP4GW9TBKTXZ8JFXPF945A,AU849EHZNGV2Z,3TK8OJTYM2OM5GS3E6C23YFFJD7VPV,YOKT0,YOKT0,3TK8OJTYM2OM5GS3E6C23YFFJD7VPV,3TK8OJTYM2OM5GS3E6C23YFFJD7VPV,271100,271100,,,,,,,,,,
,,,,5,9.33526,0,9,9,513,1,a nice looking boardroom with nice white rolling office chairs. there is a cabinet off to the side behind a chair with nothing on it.,a nice looking boardroom with nice white rolling office chairs. there is a cabinet off to the side behind a chair with a picture on top of it.,wolfe2,067_L_painting,3,35,AU849EHZNGV2Z,2021-01-25_06h42.43.070,MetaAwareness,2020.1.2,Win32,60,3PMR2DOWOP4GW9TBKTXZ8JFXPF945A,AU849EHZNGV2Z,3TK8OJTYM2OM5GS3E6C23YFFJD7VPV,YOKT0,YOKT0,3TK8OJTYM2OM5GS3E6C23YFFJD7VPV,3TK8OJTYM2OM5GS3E6C23YFFJD7VPV,271100,271100,,,,,,,,,,
,,,,5,8.61901,0,10,10,68,1,there is a study desk in the bedroom near the window.there are two windows in the background with a fence and trees.,there is a round tan rug under the study desk extending to the first leg of the bed. there are two windows in the background with a fence and trees.,wolfe2,009_R_carpet,4,35,AU849EHZNGV2Z,2021-01-25_06h42.43.070,MetaAwareness,2020.1.2,Win32,60,3PMR2DOWOP4GW9TBKTXZ8JFXPF945A,AU849EHZNGV2Z,3TK8OJTYM2OM5GS3E6C23YFFJD7VPV,YOKT0,YOKT0,3TK8OJTYM2OM5GS3E6C23YFFJD7VPV,3TK8OJTYM2OM5GS3E6C23YFFJD7VPV,271100,271100,,,,,,,,,,
,,,,2,10.71761,0,11,11,382,1,an old and furbished living room without knick-knacks on the fire place,an old and furbished living room with knick-knacks on the fire place,wolfe2,051_L_owl,7,35,AU849EHZNGV2Z,2021-01-25_06h42.43.070,MetaAwareness,2020.1.2,Win32,60,3PMR2DOWOP4GW9TBKTXZ8JFXPF945A,AU849EHZNGV2Z,3TK8OJTYM2OM5GS3E6C23YFFJD7VPV,YOKT0,YOKT0,3TK8OJTYM2OM5GS3E6C23YFFJD7VPV,3TK8OJTYM2OM5GS3E6C23YFFJD7VPV,271100,271100,,,,,,,,,,
,,,,3,4.2338,0,12,12,410,1,a red decorated dorm room with 2 round rugs on the floor,a red decorated dorm room with 3 round rugs on the floor,wolfe2,055_L_carpet,4,35,AU849EHZNGV2Z,2021-01-25_06h42.43.070,MetaAwareness,2020.1.2,Win32,60,3PMR2DOWOP4GW9TBKTXZ8JFXPF945A,AU849EHZNGV2Z,3TK8OJTYM2OM5GS3E6C23YFFJD7VPV,YOKT0,YOKT0,3TK8OJTYM2OM5GS3E6C23YFFJD7VPV,3TK8OJTYM2OM5GS3E6C23YFFJD7VPV,271100,271100,,,,,,,,,,
,,,,3,5.781975,0,13,13,863,1,"it is a picture of a family room with a couch and chair, and there is a pot on the floor next to the chair.","it is a picture of a family room with a couch and chair, and there is nothing next to the chair.",wolfe2,112_R_basket,3,35,AU849EHZNGV2Z,2021-01-25_06h42.43.070,MetaAwareness,2020.1.2,Win32,60,3PMR2DOWOP4GW9TBKTXZ8JFXPF945A,AU849EHZNGV2Z,3TK8OJTYM2OM5GS3E6C23YFFJD7VPV,YOKT0,YOKT0,3TK8OJTYM2OM5GS3E6C23YFFJD7VPV,3TK8OJTYM2OM5GS3E6C23YFFJD7VPV,271100,271100,,,,,,,,,,
,,,,4,9.54791,0,14,14,505,1,a themed living room with red and black decor and a sofa. there is black vases on one side,a themed living room with red and black decor and a sofa. there is black vases on one side and a white one on the other,wolfe2,066_L_vase,3,35,AU849EHZNGV2Z,2021-01-25_06h42.43.070,MetaAwareness,2020.1.2,Win32,60,3PMR2DOWOP4GW9TBKTXZ8JFXPF945A,AU849EHZNGV2Z,3TK8OJTYM2OM5GS3E6C23YFFJD7VPV,YOKT0,YOKT0,3TK8OJTYM2OM5GS3E6C23YFFJD7VPV,3TK8OJTYM2OM5GS3E6C23YFFJD7VPV,271100,271100,,,,,,,,,,
,,,,4,13.053285,0,15,15,195,1,"a room in a house with two sofas, a table, and a shelving unit that has one long, pale art object","a room in a house with two sofas, a table, and a shelving unit that has two long, pale art objects",wolfe2,025_R_vase,4,35,AU849EHZNGV2Z,2021-01-25_06h42.43.070,MetaAwareness,2020.1.2,Win32,60,3PMR2DOWOP4GW9TBKTXZ8JFXPF945A,AU849EHZNGV2Z,3TK8OJTYM2OM5GS3E6C23YFFJD7VPV,YOKT0,YOKT0,3TK8OJTYM2OM5GS3E6C23YFFJD7VPV,3TK8OJTYM2OM5GS3E6C23YFFJD7VPV,271100,271100,,,,,,,,,,
,,,,4,7.365105,0,16,16,466,1,a dark wood dining room with a table set with place settings. the place setting on the left of the table has two glasses,a dark wood dining room with a table set with place settings. the place setting on the left of the table has one glass.,wolfe2,061_R_glass,5,35,AU849EHZNGV2Z,2021-01-25_06h42.43.070,MetaAwareness,2020.1.2,Win32,60,3PMR2DOWOP4GW9TBKTXZ8JFXPF945A,AU849EHZNGV2Z,3TK8OJTYM2OM5GS3E6C23YFFJD7VPV,YOKT0,YOKT0,3TK8OJTYM2OM5GS3E6C23YFFJD7VPV,3TK8OJTYM2OM5GS3E6C23YFFJD7VPV,271100,271100,,,,,,,,,,
,,,,3,6.859105,0,17,17,884,1,it is a picture of a kitchen with a plant next to the oven and under a light.,it is a picture of a kitchen with nothing on the counter next to the oven.,wolfe2,115_R_pot,3,35,AU849EHZNGV2Z,2021-01-25_06h42.43.070,MetaAwareness,2020.1.2,Win32,60,3PMR2DOWOP4GW9TBKTXZ8JFXPF945A,AU849EHZNGV2Z,3TK8OJTYM2OM5GS3E6C23YFFJD7VPV,YOKT0,YOKT0,3TK8OJTYM2OM5GS3E6C23YFFJD7VPV,3TK8OJTYM2OM5GS3E6C23YFFJD7VPV,271100,271100,,,,,,,,,,
,,,,5,6.86951,0,18,18,882,1,"a gorgeous open concept house that shows the kitchen flowing into the living room, their is a plant in front of the kitchen window","a gorgeous open concept house that shows the kitchen flowing into the living room, it appears that there is a perfect window for a plant in the kitchen",wolfe2,115_L_pot,4,35,AU849EHZNGV2Z,2021-01-25_06h42.43.070,MetaAwareness,2020.1.2,Win32,60,3PMR2DOWOP4GW9TBKTXZ8JFXPF945A,AU849EHZNGV2Z,3TK8OJTYM2OM5GS3E6C23YFFJD7VPV,YOKT0,YOKT0,3TK8OJTYM2OM5GS3E6C23YFFJD7VPV,3TK8OJTYM2OM5GS3E6C23YFFJD7VPV,271100,271100,,,,,,,,,,
,,,,6,68.322205,0,19,19,101,1,"an open area with glass doors for a sitting area, hard wood floors, and one hanging light fixture","an open area with glass doors for a sitting area, hard wood floors, and one hanging light fixture",wolfe2,013_L_lamp,8,35,AU849EHZNGV2Z,2021-01-25_06h42.43.070,MetaAwareness,2020.1.2,Win32,60,3PMR2DOWOP4GW9TBKTXZ8JFXPF945A,AU849EHZNGV2Z,3TK8OJTYM2OM5GS3E6C23YFFJD7VPV,YOKT0,YOKT0,3TK8OJTYM2OM5GS3E6C23YFFJD7VPV,3TK8OJTYM2OM5GS3E6C23YFFJD7VPV,271100,271100,,,,,,,,,,
,,,,3,4.767665,0,20,20,698,1,a clean and red-themed bedroom with a vase in the corner,a clean and red-themed bedroom with no vase in the corner,wolfe2,090_R_lamp,5,35,AU849EHZNGV2Z,2021-01-25_06h42.43.070,MetaAwareness,2020.1.2,Win32,60,3PMR2DOWOP4GW9TBKTXZ8JFXPF945A,AU849EHZNGV2Z,3TK8OJTYM2OM5GS3E6C23YFFJD7VPV,YOKT0,YOKT0,3TK8OJTYM2OM5GS3E6C23YFFJD7VPV,3TK8OJTYM2OM5GS3E6C23YFFJD7VPV,271100,271100,,,,,,,,,,
,,,,5,3.945525,0,21,21,211,1,a luxurious and clean bathroom,a luxurious and clean bathroom with paper towels in the shower,wolfe2,027_R_soapdish,4,35,AU849EHZNGV2Z,2021-01-25_06h42.43.070,MetaAwareness,2020.1.2,Win32,60,3PMR2DOWOP4GW9TBKTXZ8JFXPF945A,AU849EHZNGV2Z,3TK8OJTYM2OM5GS3E6C23YFFJD7VPV,YOKT0,YOKT0,3TK8OJTYM2OM5GS3E6C23YFFJD7VPV,3TK8OJTYM2OM5GS3E6C23YFFJD7VPV,271100,271100,,,,,,,,,,
,,,,4,19.59677,0,22,22,116,1,a large living room in neutral tones with no light directly over the coffee table,a large living room in neutral tones with a light directly over the coffee table,wolfe2,015_L_ceilinglight,4,35,AU849EHZNGV2Z,2021-01-25_06h42.43.070,MetaAwareness,2020.1.2,Win32,60,3PMR2DOWOP4GW9TBKTXZ8JFXPF945A,AU849EHZNGV2Z,3TK8OJTYM2OM5GS3E6C23YFFJD7VPV,YOKT0,YOKT0,3TK8OJTYM2OM5GS3E6C23YFFJD7VPV,3TK8OJTYM2OM5GS3E6C23YFFJD7VPV,271100,271100,,,,,,,,,,
,,,,5,88.701285,0,23,23,427,1,"an upscale, modern living room with a gray couch","an upscale, modern living room with a gray couch, a blanket a magazine lays on the couch",wolfe2,056_R_comforter,6,35,AU849EHZNGV2Z,2021-01-25_06h42.43.070,MetaAwareness,2020.1.2,Win32,60,3PMR2DOWOP4GW9TBKTXZ8JFXPF945A,AU849EHZNGV2Z,3TK8OJTYM2OM5GS3E6C23YFFJD7VPV,YOKT0,YOKT0,3TK8OJTYM2OM5GS3E6C23YFFJD7VPV,3TK8OJTYM2OM5GS3E6C23YFFJD7VPV,271100,271100,,,,,,,,,,
,,,,4,3.59435,0,24,24,432,1,a library with 2 circular trash bins.,a library with 3 circular trash bins.,wolfe2,057_R_bin,1,35,AU849EHZNGV2Z,2021-01-25_06h42.43.070,MetaAwareness,2020.1.2,Win32,60,3PMR2DOWOP4GW9TBKTXZ8JFXPF945A,AU849EHZNGV2Z,3TK8OJTYM2OM5GS3E6C23YFFJD7VPV,YOKT0,YOKT0,3TK8OJTYM2OM5GS3E6C23YFFJD7VPV,3TK8OJTYM2OM5GS3E6C23YFFJD7VPV,271100,271100,,,,,,,,,,
,,,,3,4.14472,0,25,25,475,1,there is an empty fireplace in the small living room,there is something inside the fireplace in the small living room,wolfe2,062_R_flowers,5,35,AU849EHZNGV2Z,2021-01-25_06h42.43.070,MetaAwareness,2020.1.2,Win32,60,3PMR2DOWOP4GW9TBKTXZ8JFXPF945A,AU849EHZNGV2Z,3TK8OJTYM2OM5GS3E6C23YFFJD7VPV,YOKT0,YOKT0,3TK8OJTYM2OM5GS3E6C23YFFJD7VPV,3TK8OJTYM2OM5GS3E6C23YFFJD7VPV,271100,271100,,,,,,,,,,
,,,,3,4.962965,0,26,26,220,1,the glass was very nice to see and i like that colour there are 2 glass,the glass are very nice to see and ther are num_3 glass,wolfe2,029_L_glass,2,35,AU849EHZNGV2Z,2021-01-25_06h42.43.070,MetaAwareness,2020.1.2,Win32,60,3PMR2DOWOP4GW9TBKTXZ8JFXPF945A,AU849EHZNGV2Z,3TK8OJTYM2OM5GS3E6C23YFFJD7VPV,YOKT0,YOKT0,3TK8OJTYM2OM5GS3E6C23YFFJD7VPV,3TK8OJTYM2OM5GS3E6C23YFFJD7VPV,271100,271100,,,,,,,,,,
,,,,3,3.924155,0,27,27,739,1,bed room with hot and pillow there is a light in the wall,bed room withpillow and hot .  no light is on the wall,wolfe2,097_L_light,1,35,AU849EHZNGV2Z,2021-01-25_06h42.43.070,MetaAwareness,2020.1.2,Win32,60,3PMR2DOWOP4GW9TBKTXZ8JFXPF945A,AU849EHZNGV2Z,3TK8OJTYM2OM5GS3E6C23YFFJD7VPV,YOKT0,YOKT0,3TK8OJTYM2OM5GS3E6C23YFFJD7VPV,3TK8OJTYM2OM5GS3E6C23YFFJD7VPV,271100,271100,,,,,,,,,,
,,,,2,5.646705,0,28,28,705,1,a large bathroom with three sinks and an object displayed from the mirrors reflection,a large bathroom with three sinks with an object not being reflected from the mirror.,wolfe2,091_R_airfreshener,3,35,AU849EHZNGV2Z,2021-01-25_06h42.43.070,MetaAwareness,2020.1.2,Win32,60,3PMR2DOWOP4GW9TBKTXZ8JFXPF945A,AU849EHZNGV2Z,3TK8OJTYM2OM5GS3E6C23YFFJD7VPV,YOKT0,YOKT0,3TK8OJTYM2OM5GS3E6C23YFFJD7VPV,3TK8OJTYM2OM5GS3E6C23YFFJD7VPV,271100,271100,,,,,,,,,,
,,,,5,5.66504,0,29,29,847,1,a sun room near a pool wih a plant in the corner near window,a sun room near a pool with bright windows looking outside,wolfe2,110_R_plant,3,35,AU849EHZNGV2Z,2021-01-25_06h42.43.070,MetaAwareness,2020.1.2,Win32,60,3PMR2DOWOP4GW9TBKTXZ8JFXPF945A,AU849EHZNGV2Z,3TK8OJTYM2OM5GS3E6C23YFFJD7VPV,YOKT0,YOKT0,3TK8OJTYM2OM5GS3E6C23YFFJD7VPV,3TK8OJTYM2OM5GS3E6C23YFFJD7VPV,271100,271100,,,,,,,,,,
,,,,,,,,,,,,,,,,35,AU849EHZNGV2Z,2021-01-25_06h42.43.070,MetaAwareness,2020.1.2,Win32,60,3PMR2DOWOP4GW9TBKTXZ8JFXPF945A,AU849EHZNGV2Z,3TK8OJTYM2OM5GS3E6C23YFFJD7VPV,YOKT0,YOKT0,3TK8OJTYM2OM5GS3E6C23YFFJD7VPV,3TK8OJTYM2OM5GS3E6C23YFFJD7VPV,271100,271100,6,4.824405,someone laying underneath a blue beach umbrella on a crowded beach,someone laying underneath a blue beach umbrella on a crowded beach,same,2,4.206725,members of a marching band crossing a track that all have feather plumes at the front of their hats,a cluttered and rustic looking cafe with 10 hanging lights,different
