consent_response.keys,consent_response.rt,key_resp_2.keys,key_resp_2.rt,user_resp.keys,user_resp.rt,trials.thisRepN,trials.thisTrialN,trials.thisN,trials.thisIndex,trials.ran,image_1_text,image_2_text,database,image,number,age,worker_ID,date,expName,psychopyVersion,OS,frameRate,hitId,workerId,assignmentId,a,tp_a,b,tp_b,c,tp_c,catch_same_resp.keys,catch_same_resp.rt,image_1_text_catch_same,image_2_text_catch_same,image_catch_same,catch_different_resp.keys,catch_different_resp.rt,image_1_text_catch_different,image_2_text_catch_different,image_catch_different
space,15.666995,space,9.55204,6,9.17371,0,0,0,9,1,a very contemporary living room with a flat screen tv against the wall.,a very contmporary living room with a flat screen tv against the wall that is a newer movel.,wolfe2,017_L_wood,1,71,A3NK3VPYRHZBW8,2021-02-18_14h33.54.617,MetaAwareness,2020.1.2,Win32,60,3QGHA0EA0K3UURT4V9UV6XYGK6HWBH,A3NK3VPYRHZBW8,31T4R4OBOTJ101I3R3NGDK051NS7CX,BRT11,BRT11,31T4R4OBOTJ101I3R3NGDK051NS7CX,31T4R4OBOTJ101I3R3NGDK051NS7CX,276411,276411,,,,,,,,,,
,,,,5,11.33478,0,1,1,50,1,a dining room with dark brown furniture and a table against the wall with a white bowl on it,a dining room with dark brown furniture and a table against the wall with a white bowl and liquer bottle on it,wolfe2,064_R_bottles,4,71,A3NK3VPYRHZBW8,2021-02-18_14h33.54.617,MetaAwareness,2020.1.2,Win32,60,3QGHA0EA0K3UURT4V9UV6XYGK6HWBH,A3NK3VPYRHZBW8,31T4R4OBOTJ101I3R3NGDK051NS7CX,BRT11,BRT11,31T4R4OBOTJ101I3R3NGDK051NS7CX,31T4R4OBOTJ101I3R3NGDK051NS7CX,276411,276411,,,,,,,,,,
,,,,4,7.500535,0,2,2,42,1,theres a fireplace in the living room with nothing in it,theres a fireplace in the living room with wood in it,wolfe2,054_L_firewood,3,71,A3NK3VPYRHZBW8,2021-02-18_14h33.54.617,MetaAwareness,2020.1.2,Win32,60,3QGHA0EA0K3UURT4V9UV6XYGK6HWBH,A3NK3VPYRHZBW8,31T4R4OBOTJ101I3R3NGDK051NS7CX,BRT11,BRT11,31T4R4OBOTJ101I3R3NGDK051NS7CX,31T4R4OBOTJ101I3R3NGDK051NS7CX,276411,276411,,,,,,,,,,
,,,,4,4.982975,0,3,3,19,1,a bathroom where you can walk to the window,a bathroom with a counter in front of the window,wolfe2,030_L_drawer,4,71,A3NK3VPYRHZBW8,2021-02-18_14h33.54.617,MetaAwareness,2020.1.2,Win32,60,3QGHA0EA0K3UURT4V9UV6XYGK6HWBH,A3NK3VPYRHZBW8,31T4R4OBOTJ101I3R3NGDK051NS7CX,BRT11,BRT11,31T4R4OBOTJ101I3R3NGDK051NS7CX,31T4R4OBOTJ101I3R3NGDK051NS7CX,276411,276411,,,,,,,,,,
,,,,1,5.808315,0,4,4,97,1,a living room with a decorative piece of art below the tv.,a living room with no items underneath the tv.,wolfe2,126_R_candles,2,71,A3NK3VPYRHZBW8,2021-02-18_14h33.54.617,MetaAwareness,2020.1.2,Win32,60,3QGHA0EA0K3UURT4V9UV6XYGK6HWBH,A3NK3VPYRHZBW8,31T4R4OBOTJ101I3R3NGDK051NS7CX,BRT11,BRT11,31T4R4OBOTJ101I3R3NGDK051NS7CX,31T4R4OBOTJ101I3R3NGDK051NS7CX,276411,276411,,,,,,,,,,
,,,,2,5.370855,0,5,5,39,1,theres a tv mounted to the wall with nothing underneath it,theres a tv mounted to the wall with a soundbar underneath it,wolfe2,052_L_speaker,4,71,A3NK3VPYRHZBW8,2021-02-18_14h33.54.617,MetaAwareness,2020.1.2,Win32,60,3QGHA0EA0K3UURT4V9UV6XYGK6HWBH,A3NK3VPYRHZBW8,31T4R4OBOTJ101I3R3NGDK051NS7CX,BRT11,BRT11,31T4R4OBOTJ101I3R3NGDK051NS7CX,31T4R4OBOTJ101I3R3NGDK051NS7CX,276411,276411,,,,,,,,,,
,,,,4,10.700485,0,6,6,13,1,a sink and counter in a room.,a sink and counter in a room with handtowels add the the bottom shelf.num_enter,wolfe2,024_R_towels,1,71,A3NK3VPYRHZBW8,2021-02-18_14h33.54.617,MetaAwareness,2020.1.2,Win32,60,3QGHA0EA0K3UURT4V9UV6XYGK6HWBH,A3NK3VPYRHZBW8,31T4R4OBOTJ101I3R3NGDK051NS7CX,BRT11,BRT11,31T4R4OBOTJ101I3R3NGDK051NS7CX,31T4R4OBOTJ101I3R3NGDK051NS7CX,276411,276411,,,,,,,,,,
,,,,5,11.95517,0,7,7,49,1,a modern living room,a modern living room with something missing from the desk.,wolfe2,063_R_laptop,1,71,A3NK3VPYRHZBW8,2021-02-18_14h33.54.617,MetaAwareness,2020.1.2,Win32,60,3QGHA0EA0K3UURT4V9UV6XYGK6HWBH,A3NK3VPYRHZBW8,31T4R4OBOTJ101I3R3NGDK051NS7CX,BRT11,BRT11,31T4R4OBOTJ101I3R3NGDK051NS7CX,31T4R4OBOTJ101I3R3NGDK051NS7CX,276411,276411,,,,,,,,,,
,,,,1,4.466705,0,8,8,7,1,there is only one chanlier  in the room,there is two chanlier in the room,wolfe2,013_R_lamp,1,71,A3NK3VPYRHZBW8,2021-02-18_14h33.54.617,MetaAwareness,2020.1.2,Win32,60,3QGHA0EA0K3UURT4V9UV6XYGK6HWBH,A3NK3VPYRHZBW8,31T4R4OBOTJ101I3R3NGDK051NS7CX,BRT11,BRT11,31T4R4OBOTJ101I3R3NGDK051NS7CX,31T4R4OBOTJ101I3R3NGDK051NS7CX,276411,276411,,,,,,,,,,
,,,,2,9.11691,0,9,9,95,1,a large black and white living room with a small stool next to the windows,a large black and white living room without a small stool next to the windows,wolfe2,125_L_sofa,5,71,A3NK3VPYRHZBW8,2021-02-18_14h33.54.617,MetaAwareness,2020.1.2,Win32,60,3QGHA0EA0K3UURT4V9UV6XYGK6HWBH,A3NK3VPYRHZBW8,31T4R4OBOTJ101I3R3NGDK051NS7CX,BRT11,BRT11,31T4R4OBOTJ101I3R3NGDK051NS7CX,31T4R4OBOTJ101I3R3NGDK051NS7CX,276411,276411,,,,,,,,,,
,,,,6,11.0985,0,10,10,54,1,"a living room painted black and white with white and black chair, as well as some black, white and red decorations.","a living room painted black and white, with a white and black chair, as well as  some black, white and red decorations.",wolfe2,066_R_vase,2,71,A3NK3VPYRHZBW8,2021-02-18_14h33.54.617,MetaAwareness,2020.1.2,Win32,60,3QGHA0EA0K3UURT4V9UV6XYGK6HWBH,A3NK3VPYRHZBW8,31T4R4OBOTJ101I3R3NGDK051NS7CX,BRT11,BRT11,31T4R4OBOTJ101I3R3NGDK051NS7CX,31T4R4OBOTJ101I3R3NGDK051NS7CX,276411,276411,,,,,,,,,,
,,,,5,11.72124,0,11,11,98,1,"a contemporary sitting room with glass walls, sofas, an occupied dog bed, and two light sconces","a contemporary sitting room with glass walls, sofas, an occupied dog bed, and one light sconce",wolfe2,127_L_light,4,71,A3NK3VPYRHZBW8,2021-02-18_14h33.54.617,MetaAwareness,2020.1.2,Win32,60,3QGHA0EA0K3UURT4V9UV6XYGK6HWBH,A3NK3VPYRHZBW8,31T4R4OBOTJ101I3R3NGDK051NS7CX,BRT11,BRT11,31T4R4OBOTJ101I3R3NGDK051NS7CX,31T4R4OBOTJ101I3R3NGDK051NS7CX,276411,276411,,,,,,,,,,
,,,,5,7.547345,0,12,12,41,1,stone feeling bathroom with a cabinet and drawer missing a pull,stone feeling bathroom with a cabinet and drawer,wolfe2,053_R_handle,1,71,A3NK3VPYRHZBW8,2021-02-18_14h33.54.617,MetaAwareness,2020.1.2,Win32,60,3QGHA0EA0K3UURT4V9UV6XYGK6HWBH,A3NK3VPYRHZBW8,31T4R4OBOTJ101I3R3NGDK051NS7CX,BRT11,BRT11,31T4R4OBOTJ101I3R3NGDK051NS7CX,31T4R4OBOTJ101I3R3NGDK051NS7CX,276411,276411,,,,,,,,,,
,,,,4,5.538625,0,13,13,47,1,a dining room with two wine glasses on the table,a dining room with three wine glasses on the table,wolfe2,061_L_glass,5,71,A3NK3VPYRHZBW8,2021-02-18_14h33.54.617,MetaAwareness,2020.1.2,Win32,60,3QGHA0EA0K3UURT4V9UV6XYGK6HWBH,A3NK3VPYRHZBW8,31T4R4OBOTJ101I3R3NGDK051NS7CX,BRT11,BRT11,31T4R4OBOTJ101I3R3NGDK051NS7CX,31T4R4OBOTJ101I3R3NGDK051NS7CX,276411,276411,,,,,,,,,,
,,,,4,4.17747,0,14,14,38,1,white living room with fake fireplace,white living room with perfume sitting on fake fireplace,wolfe2,051_L_owl,5,71,A3NK3VPYRHZBW8,2021-02-18_14h33.54.617,MetaAwareness,2020.1.2,Win32,60,3QGHA0EA0K3UURT4V9UV6XYGK6HWBH,A3NK3VPYRHZBW8,31T4R4OBOTJ101I3R3NGDK051NS7CX,BRT11,BRT11,31T4R4OBOTJ101I3R3NGDK051NS7CX,31T4R4OBOTJ101I3R3NGDK051NS7CX,276411,276411,,,,,,,,,,
,,,,2,10.483315,0,15,15,52,1,theres a book shelf in an office with nothing in the middle,theres a bookshelf in an office with books in the middle,wolfe2,065_L_cd,5,71,A3NK3VPYRHZBW8,2021-02-18_14h33.54.617,MetaAwareness,2020.1.2,Win32,60,3QGHA0EA0K3UURT4V9UV6XYGK6HWBH,A3NK3VPYRHZBW8,31T4R4OBOTJ101I3R3NGDK051NS7CX,BRT11,BRT11,31T4R4OBOTJ101I3R3NGDK051NS7CX,31T4R4OBOTJ101I3R3NGDK051NS7CX,276411,276411,,,,,,,,,,
,,,,3,7.28219,0,16,16,93,1,a well lit bedroom with a car and a lamp on the left end table,a well lit bedroom with a lamp on the left end table.,wolfe2,121_L_car,1,71,A3NK3VPYRHZBW8,2021-02-18_14h33.54.617,MetaAwareness,2020.1.2,Win32,60,3QGHA0EA0K3UURT4V9UV6XYGK6HWBH,A3NK3VPYRHZBW8,31T4R4OBOTJ101I3R3NGDK051NS7CX,BRT11,BRT11,31T4R4OBOTJ101I3R3NGDK051NS7CX,31T4R4OBOTJ101I3R3NGDK051NS7CX,276411,276411,,,,,,,,,,
,,,,4,10.589215,0,17,17,84,1,"a store changing room with three mirrors, changing cabins and a rack with clothing items extending beyond the end pole.","a store changing room with three mirrors, changing cabins and a rack with clothing items.",wolfe2,107_L_shirts,2,71,A3NK3VPYRHZBW8,2021-02-18_14h33.54.617,MetaAwareness,2020.1.2,Win32,60,3QGHA0EA0K3UURT4V9UV6XYGK6HWBH,A3NK3VPYRHZBW8,31T4R4OBOTJ101I3R3NGDK051NS7CX,BRT11,BRT11,31T4R4OBOTJ101I3R3NGDK051NS7CX,31T4R4OBOTJ101I3R3NGDK051NS7CX,276411,276411,,,,,,,,,,
,,,,3,18.033045,0,18,18,75,1,"a bright living room set up with a mirror, a coffee table, and candles in light votives and a candle in a dark votive on the fireplace","a bright living room set up with a mirror, a coffee table, and candles in light colored votives on the fireplace",wolfe2,095_R_candle,1,71,A3NK3VPYRHZBW8,2021-02-18_14h33.54.617,MetaAwareness,2020.1.2,Win32,60,3QGHA0EA0K3UURT4V9UV6XYGK6HWBH,A3NK3VPYRHZBW8,31T4R4OBOTJ101I3R3NGDK051NS7CX,BRT11,BRT11,31T4R4OBOTJ101I3R3NGDK051NS7CX,31T4R4OBOTJ101I3R3NGDK051NS7CX,276411,276411,,,,,,,,,,
,,,,4,11.391915,0,19,19,36,1,a modern red and beige bedroom with a narrow black bookshelf that has one empty shelf,a modern red and beige bedroom with a narrow black bookshelf that has no empty shelves,wolfe2,050_L_book,2,71,A3NK3VPYRHZBW8,2021-02-18_14h33.54.617,MetaAwareness,2020.1.2,Win32,60,3QGHA0EA0K3UURT4V9UV6XYGK6HWBH,A3NK3VPYRHZBW8,31T4R4OBOTJ101I3R3NGDK051NS7CX,BRT11,BRT11,31T4R4OBOTJ101I3R3NGDK051NS7CX,31T4R4OBOTJ101I3R3NGDK051NS7CX,276411,276411,,,,,,,,,,
,,,,4,8.500465,0,20,20,24,1,nice hotel room with pillows on the bed and two vases on the table,nice hotel room with pillows on the bed and two vases and a bowle on the table,wolfe2,035_L_fruit,5,71,A3NK3VPYRHZBW8,2021-02-18_14h33.54.617,MetaAwareness,2020.1.2,Win32,60,3QGHA0EA0K3UURT4V9UV6XYGK6HWBH,A3NK3VPYRHZBW8,31T4R4OBOTJ101I3R3NGDK051NS7CX,BRT11,BRT11,31T4R4OBOTJ101I3R3NGDK051NS7CX,31T4R4OBOTJ101I3R3NGDK051NS7CX,276411,276411,,,,,,,,,,
,,,,4,3.69043,0,21,21,56,1,a meeting room with a brown shelf.,a meeting room that has a picture on the brown shelf.,wolfe2,067_R_painting,1,71,A3NK3VPYRHZBW8,2021-02-18_14h33.54.617,MetaAwareness,2020.1.2,Win32,60,3QGHA0EA0K3UURT4V9UV6XYGK6HWBH,A3NK3VPYRHZBW8,31T4R4OBOTJ101I3R3NGDK051NS7CX,BRT11,BRT11,31T4R4OBOTJ101I3R3NGDK051NS7CX,31T4R4OBOTJ101I3R3NGDK051NS7CX,276411,276411,,,,,,,,,,
,,,,5,6.4258,0,22,22,55,1,very modern dining room with large window and no picture on side table,"very modern dining room with large window and small, white frame with a picture on side table",wolfe2,067_L_painting,4,71,A3NK3VPYRHZBW8,2021-02-18_14h33.54.617,MetaAwareness,2020.1.2,Win32,60,3QGHA0EA0K3UURT4V9UV6XYGK6HWBH,A3NK3VPYRHZBW8,31T4R4OBOTJ101I3R3NGDK051NS7CX,BRT11,BRT11,31T4R4OBOTJ101I3R3NGDK051NS7CX,31T4R4OBOTJ101I3R3NGDK051NS7CX,276411,276411,,,,,,,,,,
,,,,4,11.832775,0,23,23,14,1,a clean living room with 5 colorful statues,a clean living room with 6 colorful statues,wolfe2,025_L_vase,1,71,A3NK3VPYRHZBW8,2021-02-18_14h33.54.617,MetaAwareness,2020.1.2,Win32,60,3QGHA0EA0K3UURT4V9UV6XYGK6HWBH,A3NK3VPYRHZBW8,31T4R4OBOTJ101I3R3NGDK051NS7CX,BRT11,BRT11,31T4R4OBOTJ101I3R3NGDK051NS7CX,31T4R4OBOTJ101I3R3NGDK051NS7CX,276411,276411,,,,,,,,,,
,,,,3,7.72205,0,24,24,80,1,a living room that has a plastic box sitting near a window.,a living room that does not have a plastic box on the floor by a window.,wolfe2,102_R_shoppingbag,4,71,A3NK3VPYRHZBW8,2021-02-18_14h33.54.617,MetaAwareness,2020.1.2,Win32,60,3QGHA0EA0K3UURT4V9UV6XYGK6HWBH,A3NK3VPYRHZBW8,31T4R4OBOTJ101I3R3NGDK051NS7CX,BRT11,BRT11,31T4R4OBOTJ101I3R3NGDK051NS7CX,31T4R4OBOTJ101I3R3NGDK051NS7CX,276411,276411,,,,,,,,,,
,,,,6,10.00232,0,25,25,72,1,a disorganized bathroom with a towel holder attached to the wall,a disorganized bathroom without a towel holder on the wall,wolfe2,087_R_towelhandle,1,71,A3NK3VPYRHZBW8,2021-02-18_14h33.54.617,MetaAwareness,2020.1.2,Win32,60,3QGHA0EA0K3UURT4V9UV6XYGK6HWBH,A3NK3VPYRHZBW8,31T4R4OBOTJ101I3R3NGDK051NS7CX,BRT11,BRT11,31T4R4OBOTJ101I3R3NGDK051NS7CX,31T4R4OBOTJ101I3R3NGDK051NS7CX,276411,276411,,,,,,,,,,
,,,,4,12.29957,0,26,26,25,1,a red kitchen with tiled floor with one bowl on a shelf underneath a cabinet door,a red kitchen with tiled floor with two bowls on a shelf underneath a cabinet door,wolfe2,036_R_bowl,3,71,A3NK3VPYRHZBW8,2021-02-18_14h33.54.617,MetaAwareness,2020.1.2,Win32,60,3QGHA0EA0K3UURT4V9UV6XYGK6HWBH,A3NK3VPYRHZBW8,31T4R4OBOTJ101I3R3NGDK051NS7CX,BRT11,BRT11,31T4R4OBOTJ101I3R3NGDK051NS7CX,31T4R4OBOTJ101I3R3NGDK051NS7CX,276411,276411,,,,,,,,,,
,,,,4,7.904895,0,27,27,33,1,"a bedroom with a large window, mustard-yellow accents, and a dark bedside table","a bedroom with a large window, mustard-yellow accents, and a dark bedside tablewith and electronic device on it.",wolfe2,045_R_musicdock,3,71,A3NK3VPYRHZBW8,2021-02-18_14h33.54.617,MetaAwareness,2020.1.2,Win32,60,3QGHA0EA0K3UURT4V9UV6XYGK6HWBH,A3NK3VPYRHZBW8,31T4R4OBOTJ101I3R3NGDK051NS7CX,BRT11,BRT11,31T4R4OBOTJ101I3R3NGDK051NS7CX,31T4R4OBOTJ101I3R3NGDK051NS7CX,276411,276411,,,,,,,,,,
,,,,4,7.7256,0,28,28,59,1,a comfortable living area with a large mirror above the fireplace and a light sconce on the right side of the mirror,a comfortable living area with a large mirror above the fireplace and a set of light sconces on either side of the mirror,wolfe2,070_L_lamp,2,71,A3NK3VPYRHZBW8,2021-02-18_14h33.54.617,MetaAwareness,2020.1.2,Win32,60,3QGHA0EA0K3UURT4V9UV6XYGK6HWBH,A3NK3VPYRHZBW8,31T4R4OBOTJ101I3R3NGDK051NS7CX,BRT11,BRT11,31T4R4OBOTJ101I3R3NGDK051NS7CX,31T4R4OBOTJ101I3R3NGDK051NS7CX,276411,276411,,,,,,,,,,
,,,,5,14.421685,0,29,29,0,1,"a restaurant dining room with the tables set with cups, plates, silverware and folded orange towels at almost every seat.","a restaurant dining room with table set, containing plates, cups, silverware, and folded orange towels at every seat.",wolfe2,002_L_napkin,1,71,A3NK3VPYRHZBW8,2021-02-18_14h33.54.617,MetaAwareness,2020.1.2,Win32,60,3QGHA0EA0K3UURT4V9UV6XYGK6HWBH,A3NK3VPYRHZBW8,31T4R4OBOTJ101I3R3NGDK051NS7CX,BRT11,BRT11,31T4R4OBOTJ101I3R3NGDK051NS7CX,31T4R4OBOTJ101I3R3NGDK051NS7CX,276411,276411,,,,,,,,,,
,,,,,,,,,,,,,,,,71,A3NK3VPYRHZBW8,2021-02-18_14h33.54.617,MetaAwareness,2020.1.2,Win32,60,3QGHA0EA0K3UURT4V9UV6XYGK6HWBH,A3NK3VPYRHZBW8,31T4R4OBOTJ101I3R3NGDK051NS7CX,BRT11,BRT11,31T4R4OBOTJ101I3R3NGDK051NS7CX,31T4R4OBOTJ101I3R3NGDK051NS7CX,276411,276411,6,5.921585,someone laying underneath a blue beach umbrella on a crowded beach,someone laying underneath a blue beach umbrella on a crowded beach,same,1,12.26522,members of a marching band crossing a track that all have feather plumes at the front of their hats,a cluttered and rustic looking cafe with 10 hanging lights,different
