consent_response.keys,consent_response.rt,key_resp_2.keys,key_resp_2.rt,user_resp.keys,user_resp.rt,trials.thisRepN,trials.thisTrialN,trials.thisN,trials.thisIndex,trials.ran,image_1_text,image_2_text,database,image,number,age,worker_ID,date,expName,psychopyVersion,OS,frameRate,hitId,workerId,assignmentId,a,tp_a,b,tp_b,c,tp_c,catch_same_resp.keys,catch_same_resp.rt,image_1_text_catch_same,image_2_text_catch_same,image_catch_same,catch_different_resp.keys,catch_different_resp.rt,image_1_text_catch_different,image_2_text_catch_different,image_catch_different
space,6.525,space,0.187,5,18.603,0,0,0,43,1,a master bedroom and office space with two pieces of circle rugs on the floor,a master bedroom and office space with three pieces of circle rugs on the floor,wolfe2,055_R_carpet,2,35,ACS9OP9KSUO5E,2021-02-18_12h57.43.596,MetaAwareness,2020.1.2,Win32,60,37ZQELHEQ110QOONUXTHOUWJ3TFNM4,ACS9OP9KSUO5E,3GS6S824SR0ZHKGVO146LBTYTI4WNV,4SSG1,4SSG1,3GS6S824SR0ZHKGVO146LBTYTI4WNV,3GS6S824SR0ZHKGVO146LBTYTI4WNV,276411,276411,,,,,,,,,,
,,,,6,3.772,0,1,1,45,1,"the library features large chandeliers, wide hallways, and five trash cans","the library features large chandeliers, wide hallways, and six trash cans",wolfe2,057_R_bin,4,35,ACS9OP9KSUO5E,2021-02-18_12h57.43.596,MetaAwareness,2020.1.2,Win32,60,37ZQELHEQ110QOONUXTHOUWJ3TFNM4,ACS9OP9KSUO5E,3GS6S824SR0ZHKGVO146LBTYTI4WNV,4SSG1,4SSG1,3GS6S824SR0ZHKGVO146LBTYTI4WNV,3GS6S824SR0ZHKGVO146LBTYTI4WNV,276411,276411,,,,,,,,,,
,,,,4,1.589,0,2,2,80,1,a living room that has a plastic box sitting near a window.,a living room that does not have a plastic box on the floor by a window.,wolfe2,102_R_shoppingbag,4,35,ACS9OP9KSUO5E,2021-02-18_12h57.43.596,MetaAwareness,2020.1.2,Win32,60,37ZQELHEQ110QOONUXTHOUWJ3TFNM4,ACS9OP9KSUO5E,3GS6S824SR0ZHKGVO146LBTYTI4WNV,4SSG1,4SSG1,3GS6S824SR0ZHKGVO146LBTYTI4WNV,3GS6S824SR0ZHKGVO146LBTYTI4WNV,276411,276411,,,,,,,,,,
,,,,6,1.794,0,3,3,24,1,nice hotel room with pillows on the bed and two vases on the table,nice hotel room with pillows on the bed and two vases and a bowle on the table,wolfe2,035_L_fruit,5,35,ACS9OP9KSUO5E,2021-02-18_12h57.43.596,MetaAwareness,2020.1.2,Win32,60,37ZQELHEQ110QOONUXTHOUWJ3TFNM4,ACS9OP9KSUO5E,3GS6S824SR0ZHKGVO146LBTYTI4WNV,4SSG1,4SSG1,3GS6S824SR0ZHKGVO146LBTYTI4WNV,3GS6S824SR0ZHKGVO146LBTYTI4WNV,276411,276411,,,,,,,,,,
,,,,5,1.467,0,4,4,13,1,a sink and counter in a room.,a sink and counter in a room with handtowels add the the bottom shelf.num_enter,wolfe2,024_R_towels,1,35,ACS9OP9KSUO5E,2021-02-18_12h57.43.596,MetaAwareness,2020.1.2,Win32,60,37ZQELHEQ110QOONUXTHOUWJ3TFNM4,ACS9OP9KSUO5E,3GS6S824SR0ZHKGVO146LBTYTI4WNV,4SSG1,4SSG1,3GS6S824SR0ZHKGVO146LBTYTI4WNV,3GS6S824SR0ZHKGVO146LBTYTI4WNV,276411,276411,,,,,,,,,,
,,,,6,1.307,0,5,5,22,1,an open living room with beige couch and one visible roof beam,an open living room with beige couch and two visible roof beams,wolfe2,031_L_log,4,35,ACS9OP9KSUO5E,2021-02-18_12h57.43.596,MetaAwareness,2020.1.2,Win32,60,37ZQELHEQ110QOONUXTHOUWJ3TFNM4,ACS9OP9KSUO5E,3GS6S824SR0ZHKGVO146LBTYTI4WNV,4SSG1,4SSG1,3GS6S824SR0ZHKGVO146LBTYTI4WNV,3GS6S824SR0ZHKGVO146LBTYTI4WNV,276411,276411,,,,,,,,,,
,,,,4,3.537,0,6,6,2,1,a room with  a light and towel hanging . there is no object in the box,a room with a light and towel hanging .  there is a box in the box,wolfe2,007_L_soap,2,35,ACS9OP9KSUO5E,2021-02-18_12h57.43.596,MetaAwareness,2020.1.2,Win32,60,37ZQELHEQ110QOONUXTHOUWJ3TFNM4,ACS9OP9KSUO5E,3GS6S824SR0ZHKGVO146LBTYTI4WNV,4SSG1,4SSG1,3GS6S824SR0ZHKGVO146LBTYTI4WNV,3GS6S824SR0ZHKGVO146LBTYTI4WNV,276411,276411,,,,,,,,,,
,,,,5,1.154,0,7,7,44,1,"an upscale, modern living room with a gray couch","an upscale, modern living room with a gray couch, a blanket a magazine lays on the couch",wolfe2,056_R_comforter,6,35,ACS9OP9KSUO5E,2021-02-18_12h57.43.596,MetaAwareness,2020.1.2,Win32,60,37ZQELHEQ110QOONUXTHOUWJ3TFNM4,ACS9OP9KSUO5E,3GS6S824SR0ZHKGVO146LBTYTI4WNV,4SSG1,4SSG1,3GS6S824SR0ZHKGVO146LBTYTI4WNV,3GS6S824SR0ZHKGVO146LBTYTI4WNV,276411,276411,,,,,,,,,,
,,,,5,1.211,0,8,8,48,1,"a modern dining room set for four, with a wine glass missing from one setting",a modern dining room set for four,wolfe2,061_R_glass,1,35,ACS9OP9KSUO5E,2021-02-18_12h57.43.596,MetaAwareness,2020.1.2,Win32,60,37ZQELHEQ110QOONUXTHOUWJ3TFNM4,ACS9OP9KSUO5E,3GS6S824SR0ZHKGVO146LBTYTI4WNV,4SSG1,4SSG1,3GS6S824SR0ZHKGVO146LBTYTI4WNV,3GS6S824SR0ZHKGVO146LBTYTI4WNV,276411,276411,,,,,,,,,,
,,,,6,1.199,0,9,9,97,1,a living room with a decorative piece of art below the tv.,a living room with no items underneath the tv.,wolfe2,126_R_candles,2,35,ACS9OP9KSUO5E,2021-02-18_12h57.43.596,MetaAwareness,2020.1.2,Win32,60,37ZQELHEQ110QOONUXTHOUWJ3TFNM4,ACS9OP9KSUO5E,3GS6S824SR0ZHKGVO146LBTYTI4WNV,4SSG1,4SSG1,3GS6S824SR0ZHKGVO146LBTYTI4WNV,3GS6S824SR0ZHKGVO146LBTYTI4WNV,276411,276411,,,,,,,,,,
,,,,4,1.188,0,10,10,77,1,a nice bedroom with a large bed and chair with a pillow on the floor between them,a nice bedroom with a large bed and chair,wolfe2,098_L_slippers,2,35,ACS9OP9KSUO5E,2021-02-18_12h57.43.596,MetaAwareness,2020.1.2,Win32,60,37ZQELHEQ110QOONUXTHOUWJ3TFNM4,ACS9OP9KSUO5E,3GS6S824SR0ZHKGVO146LBTYTI4WNV,4SSG1,4SSG1,3GS6S824SR0ZHKGVO146LBTYTI4WNV,3GS6S824SR0ZHKGVO146LBTYTI4WNV,276411,276411,,,,,,,,,,
,,,,5,1.299,0,11,11,8,1,"a minimalistic living room in a modern home, with a pedestal that has nothing on it.","a minimalistic living room in a modern home, with a pedestal that has an artistic object on it.",wolfe2,016_L_art,6,35,ACS9OP9KSUO5E,2021-02-18_12h57.43.596,MetaAwareness,2020.1.2,Win32,60,37ZQELHEQ110QOONUXTHOUWJ3TFNM4,ACS9OP9KSUO5E,3GS6S824SR0ZHKGVO146LBTYTI4WNV,4SSG1,4SSG1,3GS6S824SR0ZHKGVO146LBTYTI4WNV,3GS6S824SR0ZHKGVO146LBTYTI4WNV,276411,276411,,,,,,,,,,
,,,,6,1.176,0,12,12,95,1,a large black and white living room with a small stool next to the windows,a large black and white living room without a small stool next to the windows,wolfe2,125_L_sofa,5,35,ACS9OP9KSUO5E,2021-02-18_12h57.43.596,MetaAwareness,2020.1.2,Win32,60,37ZQELHEQ110QOONUXTHOUWJ3TFNM4,ACS9OP9KSUO5E,3GS6S824SR0ZHKGVO146LBTYTI4WNV,4SSG1,4SSG1,3GS6S824SR0ZHKGVO146LBTYTI4WNV,3GS6S824SR0ZHKGVO146LBTYTI4WNV,276411,276411,,,,,,,,,,
,,,,4,1.046,0,13,13,47,1,a dining room with two wine glasses on the table,a dining room with three wine glasses on the table,wolfe2,061_L_glass,5,35,ACS9OP9KSUO5E,2021-02-18_12h57.43.596,MetaAwareness,2020.1.2,Win32,60,37ZQELHEQ110QOONUXTHOUWJ3TFNM4,ACS9OP9KSUO5E,3GS6S824SR0ZHKGVO146LBTYTI4WNV,4SSG1,4SSG1,3GS6S824SR0ZHKGVO146LBTYTI4WNV,3GS6S824SR0ZHKGVO146LBTYTI4WNV,276411,276411,,,,,,,,,,
,,,,5,1.125,0,14,14,92,1,it is a picture of a grand room with art photos to the left and right of the glass door.,it is a picture of a grand room with an art photo to the left of the glass doors.,wolfe2,119_R_painting,1,35,ACS9OP9KSUO5E,2021-02-18_12h57.43.596,MetaAwareness,2020.1.2,Win32,60,37ZQELHEQ110QOONUXTHOUWJ3TFNM4,ACS9OP9KSUO5E,3GS6S824SR0ZHKGVO146LBTYTI4WNV,4SSG1,4SSG1,3GS6S824SR0ZHKGVO146LBTYTI4WNV,3GS6S824SR0ZHKGVO146LBTYTI4WNV,276411,276411,,,,,,,,,,
,,,,6,1.022,0,15,15,9,1,a very contemporary living room with a flat screen tv against the wall.,a very contmporary living room with a flat screen tv against the wall that is a newer movel.,wolfe2,017_L_wood,1,35,ACS9OP9KSUO5E,2021-02-18_12h57.43.596,MetaAwareness,2020.1.2,Win32,60,37ZQELHEQ110QOONUXTHOUWJ3TFNM4,ACS9OP9KSUO5E,3GS6S824SR0ZHKGVO146LBTYTI4WNV,4SSG1,4SSG1,3GS6S824SR0ZHKGVO146LBTYTI4WNV,3GS6S824SR0ZHKGVO146LBTYTI4WNV,276411,276411,,,,,,,,,,
,,,,4,1.062,0,16,16,90,1,a room with double glass doors and windows down one side with a house plant sitting on a small table just inside the door.,a room with double glass doors and windows down one side with a small table just inside the door,wolfe2,117_L_plant_sized,4,35,ACS9OP9KSUO5E,2021-02-18_12h57.43.596,MetaAwareness,2020.1.2,Win32,60,37ZQELHEQ110QOONUXTHOUWJ3TFNM4,ACS9OP9KSUO5E,3GS6S824SR0ZHKGVO146LBTYTI4WNV,4SSG1,4SSG1,3GS6S824SR0ZHKGVO146LBTYTI4WNV,3GS6S824SR0ZHKGVO146LBTYTI4WNV,276411,276411,,,,,,,,,,
,,,,5,0.022,0,17,17,61,1,bright and inviting living area. has a coffe table with plants on it.,bright and inviting living area. has a coffee table with plants and a book on it,wolfe2,074_R_book,3,35,ACS9OP9KSUO5E,2021-02-18_12h57.43.596,MetaAwareness,2020.1.2,Win32,60,37ZQELHEQ110QOONUXTHOUWJ3TFNM4,ACS9OP9KSUO5E,3GS6S824SR0ZHKGVO146LBTYTI4WNV,4SSG1,4SSG1,3GS6S824SR0ZHKGVO146LBTYTI4WNV,3GS6S824SR0ZHKGVO146LBTYTI4WNV,276411,276411,,,,,,,,,,
,,,,4,1.086,0,18,18,75,1,"a bright living room set up with a mirror, a coffee table, and candles in light votives and a candle in a dark votive on the fireplace","a bright living room set up with a mirror, a coffee table, and candles in light colored votives on the fireplace",wolfe2,095_R_candle,1,35,ACS9OP9KSUO5E,2021-02-18_12h57.43.596,MetaAwareness,2020.1.2,Win32,60,37ZQELHEQ110QOONUXTHOUWJ3TFNM4,ACS9OP9KSUO5E,3GS6S824SR0ZHKGVO146LBTYTI4WNV,4SSG1,4SSG1,3GS6S824SR0ZHKGVO146LBTYTI4WNV,3GS6S824SR0ZHKGVO146LBTYTI4WNV,276411,276411,,,,,,,,,,
,,,,6,1.3,0,19,19,23,1,a bathroom with a single dispenser,a bathroom with two dispenser,wolfe2,032_R_bottle,4,35,ACS9OP9KSUO5E,2021-02-18_12h57.43.596,MetaAwareness,2020.1.2,Win32,60,37ZQELHEQ110QOONUXTHOUWJ3TFNM4,ACS9OP9KSUO5E,3GS6S824SR0ZHKGVO146LBTYTI4WNV,4SSG1,4SSG1,3GS6S824SR0ZHKGVO146LBTYTI4WNV,3GS6S824SR0ZHKGVO146LBTYTI4WNV,276411,276411,,,,,,,,,,
,,,,4,1.365,0,20,20,96,1,a living room with an unknown item on the floor near the window.,a living room with nothing on the floor or near the windows.,wolfe2,125_R_sofa,2,35,ACS9OP9KSUO5E,2021-02-18_12h57.43.596,MetaAwareness,2020.1.2,Win32,60,37ZQELHEQ110QOONUXTHOUWJ3TFNM4,ACS9OP9KSUO5E,3GS6S824SR0ZHKGVO146LBTYTI4WNV,4SSG1,4SSG1,3GS6S824SR0ZHKGVO146LBTYTI4WNV,3GS6S824SR0ZHKGVO146LBTYTI4WNV,276411,276411,,,,,,,,,,
,,,,5,1.016,0,21,21,69,1,a stylish apartment with a table holding a book.,a stylish apartment with a table without a book.,wolfe2,086_L_book,4,35,ACS9OP9KSUO5E,2021-02-18_12h57.43.596,MetaAwareness,2020.1.2,Win32,60,37ZQELHEQ110QOONUXTHOUWJ3TFNM4,ACS9OP9KSUO5E,3GS6S824SR0ZHKGVO146LBTYTI4WNV,4SSG1,4SSG1,3GS6S824SR0ZHKGVO146LBTYTI4WNV,3GS6S824SR0ZHKGVO146LBTYTI4WNV,276411,276411,,,,,,,,,,
,,,,4,1.205,0,22,22,65,1,a child's bedroom that is very colorful with a knob missing on the blue drawer,a child's bedroom that is very colorful with all the knobs intact on the dresser,wolfe2,083_L_knob,1,35,ACS9OP9KSUO5E,2021-02-18_12h57.43.596,MetaAwareness,2020.1.2,Win32,60,37ZQELHEQ110QOONUXTHOUWJ3TFNM4,ACS9OP9KSUO5E,3GS6S824SR0ZHKGVO146LBTYTI4WNV,4SSG1,4SSG1,3GS6S824SR0ZHKGVO146LBTYTI4WNV,3GS6S824SR0ZHKGVO146LBTYTI4WNV,276411,276411,,,,,,,,,,
,,,,6,1.056,0,23,23,20,1,a sunny bathroom with two counter and sink units,a sunny bathroom with one long counter and two sinks,wolfe2,030_L_drawer,6,35,ACS9OP9KSUO5E,2021-02-18_12h57.43.596,MetaAwareness,2020.1.2,Win32,60,37ZQELHEQ110QOONUXTHOUWJ3TFNM4,ACS9OP9KSUO5E,3GS6S824SR0ZHKGVO146LBTYTI4WNV,4SSG1,4SSG1,3GS6S824SR0ZHKGVO146LBTYTI4WNV,3GS6S824SR0ZHKGVO146LBTYTI4WNV,276411,276411,,,,,,,,,,
,,,,6,1.7,0,24,24,10,1,"a small, but cozy, office space with grass garden and 2 plates on the wall","a small, but cozy, office space with grass garden and 3 plates on the wall",wolfe2,020_L_walldeco,1,35,ACS9OP9KSUO5E,2021-02-18_12h57.43.596,MetaAwareness,2020.1.2,Win32,60,37ZQELHEQ110QOONUXTHOUWJ3TFNM4,ACS9OP9KSUO5E,3GS6S824SR0ZHKGVO146LBTYTI4WNV,4SSG1,4SSG1,3GS6S824SR0ZHKGVO146LBTYTI4WNV,3GS6S824SR0ZHKGVO146LBTYTI4WNV,276411,276411,,,,,,,,,,
,,,,5,1.157,0,25,25,55,1,very modern dining room with large window and no picture on side table,"very modern dining room with large window and small, white frame with a picture on side table",wolfe2,067_L_painting,4,35,ACS9OP9KSUO5E,2021-02-18_12h57.43.596,MetaAwareness,2020.1.2,Win32,60,37ZQELHEQ110QOONUXTHOUWJ3TFNM4,ACS9OP9KSUO5E,3GS6S824SR0ZHKGVO146LBTYTI4WNV,4SSG1,4SSG1,3GS6S824SR0ZHKGVO146LBTYTI4WNV,3GS6S824SR0ZHKGVO146LBTYTI4WNV,276411,276411,,,,,,,,,,
,,,,4,1.257,0,26,26,14,1,a clean living room with 5 colorful statues,a clean living room with 6 colorful statues,wolfe2,025_L_vase,1,35,ACS9OP9KSUO5E,2021-02-18_12h57.43.596,MetaAwareness,2020.1.2,Win32,60,37ZQELHEQ110QOONUXTHOUWJ3TFNM4,ACS9OP9KSUO5E,3GS6S824SR0ZHKGVO146LBTYTI4WNV,4SSG1,4SSG1,3GS6S824SR0ZHKGVO146LBTYTI4WNV,3GS6S824SR0ZHKGVO146LBTYTI4WNV,276411,276411,,,,,,,,,,
,,,,5,1.344,0,27,27,42,1,theres a fireplace in the living room with nothing in it,theres a fireplace in the living room with wood in it,wolfe2,054_L_firewood,3,35,ACS9OP9KSUO5E,2021-02-18_12h57.43.596,MetaAwareness,2020.1.2,Win32,60,37ZQELHEQ110QOONUXTHOUWJ3TFNM4,ACS9OP9KSUO5E,3GS6S824SR0ZHKGVO146LBTYTI4WNV,4SSG1,4SSG1,3GS6S824SR0ZHKGVO146LBTYTI4WNV,3GS6S824SR0ZHKGVO146LBTYTI4WNV,276411,276411,,,,,,,,,,
,,,,6,1.215,0,28,28,3,1,a bedroom with a sitting area near the bed,a bedroom with a sitting area on top of a circular rug,wolfe2,009_L_carpet,2,35,ACS9OP9KSUO5E,2021-02-18_12h57.43.596,MetaAwareness,2020.1.2,Win32,60,37ZQELHEQ110QOONUXTHOUWJ3TFNM4,ACS9OP9KSUO5E,3GS6S824SR0ZHKGVO146LBTYTI4WNV,4SSG1,4SSG1,3GS6S824SR0ZHKGVO146LBTYTI4WNV,3GS6S824SR0ZHKGVO146LBTYTI4WNV,276411,276411,,,,,,,,,,
,,,,5,1.437,0,29,29,59,1,a comfortable living area with a large mirror above the fireplace and a light sconce on the right side of the mirror,a comfortable living area with a large mirror above the fireplace and a set of light sconces on either side of the mirror,wolfe2,070_L_lamp,2,35,ACS9OP9KSUO5E,2021-02-18_12h57.43.596,MetaAwareness,2020.1.2,Win32,60,37ZQELHEQ110QOONUXTHOUWJ3TFNM4,ACS9OP9KSUO5E,3GS6S824SR0ZHKGVO146LBTYTI4WNV,4SSG1,4SSG1,3GS6S824SR0ZHKGVO146LBTYTI4WNV,3GS6S824SR0ZHKGVO146LBTYTI4WNV,276411,276411,,,,,,,,,,
,,,,,,,,,,,,,,,,35,ACS9OP9KSUO5E,2021-02-18_12h57.43.596,MetaAwareness,2020.1.2,Win32,60,37ZQELHEQ110QOONUXTHOUWJ3TFNM4,ACS9OP9KSUO5E,3GS6S824SR0ZHKGVO146LBTYTI4WNV,4SSG1,4SSG1,3GS6S824SR0ZHKGVO146LBTYTI4WNV,3GS6S824SR0ZHKGVO146LBTYTI4WNV,276411,276411,4,1.105,someone laying underneath a blue beach umbrella on a crowded beach,someone laying underneath a blue beach umbrella on a crowded beach,same,5,1.23,members of a marching band crossing a track that all have feather plumes at the front of their hats,a cluttered and rustic looking cafe with 10 hanging lights,different
