consent_response.keys,consent_response.rt,key_resp_2.keys,key_resp_2.rt,user_resp.keys,user_resp.rt,trials.thisRepN,trials.thisTrialN,trials.thisN,trials.thisIndex,trials.ran,image_1_text,image_2_text,database,image,number,age,worker_ID,date,expName,psychopyVersion,OS,frameRate,hitId,workerId,assignmentId,a,tp_a,b,tp_b,c,tp_c,catch_same_resp.keys,catch_same_resp.rt,image_1_text_catch_same,image_2_text_catch_same,image_catch_same,catch_different_resp.keys,catch_different_resp.rt,image_1_text_catch_different,image_2_text_catch_different,image_catch_different
space,21.725015,space,12.40833,6,22.346185,0,0,0,182,1,aa window display showing a scenic country backround wih a lantern and a vase on its side,a window display showing a scenic country backround with a lantern in the display,rensink,Window,3,32,A157L6Z8QU3SDE,2021-01-08_14h38.28.765,MetaAwareness,2020.1.2,Win32,60,3BC9H1KCYVFQ7ZMF518FE8WH3V5WYW,A157L6Z8QU3SDE,3M0BCWMB8WZXGBRYLBZXUGT48ZQBWT,BC0M5,BC0M5,3M0BCWMB8WZXGBRYLBZXUGT48ZQBWT,3M0BCWMB8WZXGBRYLBZXUGT48ZQBWT,268035,268035,,,,,,,,,,
,,,,4,7.67679,0,1,1,146,1,there has a large tree and small tree,there has a small tree,rensink,Obelisk,2,32,A157L6Z8QU3SDE,2021-01-08_14h38.28.765,MetaAwareness,2020.1.2,Win32,60,3BC9H1KCYVFQ7ZMF518FE8WH3V5WYW,A157L6Z8QU3SDE,3M0BCWMB8WZXGBRYLBZXUGT48ZQBWT,BC0M5,BC0M5,3M0BCWMB8WZXGBRYLBZXUGT48ZQBWT,3M0BCWMB8WZXGBRYLBZXUGT48ZQBWT,268035,268035,,,,,,,,,,
,,,,5,13.54378,0,2,2,76,1,an ancient egyptian sculpture of a pharoah in front of pillars,an ancient egyptian sculpture of a pharoah with a large gap between pillars,rensink,Egypt,4,32,A157L6Z8QU3SDE,2021-01-08_14h38.28.765,MetaAwareness,2020.1.2,Win32,60,3BC9H1KCYVFQ7ZMF518FE8WH3V5WYW,A157L6Z8QU3SDE,3M0BCWMB8WZXGBRYLBZXUGT48ZQBWT,BC0M5,BC0M5,3M0BCWMB8WZXGBRYLBZXUGT48ZQBWT,3M0BCWMB8WZXGBRYLBZXUGT48ZQBWT,268035,268035,,,,,,,,,,
,,,,3,10.201745,0,3,3,61,1,three people are standing in front of a brown post,three people are standing in front of a yellow post,rensink,Description,2,32,A157L6Z8QU3SDE,2021-01-08_14h38.28.765,MetaAwareness,2020.1.2,Win32,60,3BC9H1KCYVFQ7ZMF518FE8WH3V5WYW,A157L6Z8QU3SDE,3M0BCWMB8WZXGBRYLBZXUGT48ZQBWT,BC0M5,BC0M5,3M0BCWMB8WZXGBRYLBZXUGT48ZQBWT,3M0BCWMB8WZXGBRYLBZXUGT48ZQBWT,268035,268035,,,,,,,,,,
,,,,5,7.55238,0,4,4,149,1,underwater photo of a scuba diver,underwater photo of a scuba diver with plants behind him,rensink,OtherDiver,2,32,A157L6Z8QU3SDE,2021-01-08_14h38.28.765,MetaAwareness,2020.1.2,Win32,60,3BC9H1KCYVFQ7ZMF518FE8WH3V5WYW,A157L6Z8QU3SDE,3M0BCWMB8WZXGBRYLBZXUGT48ZQBWT,BC0M5,BC0M5,3M0BCWMB8WZXGBRYLBZXUGT48ZQBWT,3M0BCWMB8WZXGBRYLBZXUGT48ZQBWT,268035,268035,,,,,,,,,,
,,,,3,8.651545,0,5,5,52,1,vehicle  shadow show the big shadow,vehicle shadow show small,rensink,Chopper,2,32,A157L6Z8QU3SDE,2021-01-08_14h38.28.765,MetaAwareness,2020.1.2,Win32,60,3BC9H1KCYVFQ7ZMF518FE8WH3V5WYW,A157L6Z8QU3SDE,3M0BCWMB8WZXGBRYLBZXUGT48ZQBWT,BC0M5,BC0M5,3M0BCWMB8WZXGBRYLBZXUGT48ZQBWT,3M0BCWMB8WZXGBRYLBZXUGT48ZQBWT,268035,268035,,,,,,,,,,
,,,,1,6.002675,0,6,6,123,1,a man looking into the lake with binoculars on a foggy day.,a foggy day on the lake with no one in sight.,rensink,Lake,3,32,A157L6Z8QU3SDE,2021-01-08_14h38.28.765,MetaAwareness,2020.1.2,Win32,60,3BC9H1KCYVFQ7ZMF518FE8WH3V5WYW,A157L6Z8QU3SDE,3M0BCWMB8WZXGBRYLBZXUGT48ZQBWT,BC0M5,BC0M5,3M0BCWMB8WZXGBRYLBZXUGT48ZQBWT,3M0BCWMB8WZXGBRYLBZXUGT48ZQBWT,268035,268035,,,,,,,,,,
,,,,3,5.436495,0,7,7,18,1,the boat is blue color,the boat is green color,rensink,Beach,1,32,A157L6Z8QU3SDE,2021-01-08_14h38.28.765,MetaAwareness,2020.1.2,Win32,60,3BC9H1KCYVFQ7ZMF518FE8WH3V5WYW,A157L6Z8QU3SDE,3M0BCWMB8WZXGBRYLBZXUGT48ZQBWT,BC0M5,BC0M5,3M0BCWMB8WZXGBRYLBZXUGT48ZQBWT,3M0BCWMB8WZXGBRYLBZXUGT48ZQBWT,268035,268035,,,,,,,,,,
,,,,5,12.5745,0,8,8,26,1,two odd looking birds with blue flippers looking at each other and sky in the back,two odd looking birds with blue flippers looking at each other and minimal sky in the back,rensink,Birds,7,32,A157L6Z8QU3SDE,2021-01-08_14h38.28.765,MetaAwareness,2020.1.2,Win32,60,3BC9H1KCYVFQ7ZMF518FE8WH3V5WYW,A157L6Z8QU3SDE,3M0BCWMB8WZXGBRYLBZXUGT48ZQBWT,BC0M5,BC0M5,3M0BCWMB8WZXGBRYLBZXUGT48ZQBWT,3M0BCWMB8WZXGBRYLBZXUGT48ZQBWT,268035,268035,,,,,,,,,,
,,,,4,9.015945,0,9,9,119,1,four children sit outside. the boy's chair is yellow.,four children sit outside. the boy's chair is pink.,rensink,Kids,7,32,A157L6Z8QU3SDE,2021-01-08_14h38.28.765,MetaAwareness,2020.1.2,Win32,60,3BC9H1KCYVFQ7ZMF518FE8WH3V5WYW,A157L6Z8QU3SDE,3M0BCWMB8WZXGBRYLBZXUGT48ZQBWT,BC0M5,BC0M5,3M0BCWMB8WZXGBRYLBZXUGT48ZQBWT,3M0BCWMB8WZXGBRYLBZXUGT48ZQBWT,268035,268035,,,,,,,,,,
,,,,4,6.7744,0,10,10,21,1,a blue boat overturned on a rocky shore,a green boat overturned on a rocky shore,rensink,Beach,5,32,A157L6Z8QU3SDE,2021-01-08_14h38.28.765,MetaAwareness,2020.1.2,Win32,60,3BC9H1KCYVFQ7ZMF518FE8WH3V5WYW,A157L6Z8QU3SDE,3M0BCWMB8WZXGBRYLBZXUGT48ZQBWT,BC0M5,BC0M5,3M0BCWMB8WZXGBRYLBZXUGT48ZQBWT,3M0BCWMB8WZXGBRYLBZXUGT48ZQBWT,268035,268035,,,,,,,,,,
,,,,4,11.066015,0,11,11,175,1,a turtle on a beach with a man and the sky is blue,a turtle on a beach with a man and the sky is pink,rensink,Turtle,2,32,A157L6Z8QU3SDE,2021-01-08_14h38.28.765,MetaAwareness,2020.1.2,Win32,60,3BC9H1KCYVFQ7ZMF518FE8WH3V5WYW,A157L6Z8QU3SDE,3M0BCWMB8WZXGBRYLBZXUGT48ZQBWT,BC0M5,BC0M5,3M0BCWMB8WZXGBRYLBZXUGT48ZQBWT,3M0BCWMB8WZXGBRYLBZXUGT48ZQBWT,268035,268035,,,,,,,,,,
,,,,6,10.387755,0,12,12,24,1,a flock of birds sits behind two bgger bird that sit on rcks,a flock of birds sits behind two bigger birds that sit on rocks,rensink,Birds,3,32,A157L6Z8QU3SDE,2021-01-08_14h38.28.765,MetaAwareness,2020.1.2,Win32,60,3BC9H1KCYVFQ7ZMF518FE8WH3V5WYW,A157L6Z8QU3SDE,3M0BCWMB8WZXGBRYLBZXUGT48ZQBWT,BC0M5,BC0M5,3M0BCWMB8WZXGBRYLBZXUGT48ZQBWT,3M0BCWMB8WZXGBRYLBZXUGT48ZQBWT,268035,268035,,,,,,,,,,
,,,,4,11.131285,0,13,13,17,1,a floral arrangment in front of multiple barrels with green grass on the ground.,a floral arrangment in front of multiple barrels with gray grass on the ground.,rensink,Barrels,6,32,A157L6Z8QU3SDE,2021-01-08_14h38.28.765,MetaAwareness,2020.1.2,Win32,60,3BC9H1KCYVFQ7ZMF518FE8WH3V5WYW,A157L6Z8QU3SDE,3M0BCWMB8WZXGBRYLBZXUGT48ZQBWT,BC0M5,BC0M5,3M0BCWMB8WZXGBRYLBZXUGT48ZQBWT,3M0BCWMB8WZXGBRYLBZXUGT48ZQBWT,268035,268035,,,,,,,,,,
,,,,2,8.507805,0,14,14,121,1,"a man stands with a boat on the edge of a lake, looking out and possibly having  drink",a boat sits on the edge of a lake with no humans pictures,rensink,Lake,1,32,A157L6Z8QU3SDE,2021-01-08_14h38.28.765,MetaAwareness,2020.1.2,Win32,60,3BC9H1KCYVFQ7ZMF518FE8WH3V5WYW,A157L6Z8QU3SDE,3M0BCWMB8WZXGBRYLBZXUGT48ZQBWT,BC0M5,BC0M5,3M0BCWMB8WZXGBRYLBZXUGT48ZQBWT,3M0BCWMB8WZXGBRYLBZXUGT48ZQBWT,268035,268035,,,,,,,,,,
,,,,3,12.93402,0,15,15,187,1,a spread of food and wine with  giant wedge of swiss cheese,a spread of food and wine with no cheese,rensink,Wine,2,32,A157L6Z8QU3SDE,2021-01-08_14h38.28.765,MetaAwareness,2020.1.2,Win32,60,3BC9H1KCYVFQ7ZMF518FE8WH3V5WYW,A157L6Z8QU3SDE,3M0BCWMB8WZXGBRYLBZXUGT48ZQBWT,BC0M5,BC0M5,3M0BCWMB8WZXGBRYLBZXUGT48ZQBWT,3M0BCWMB8WZXGBRYLBZXUGT48ZQBWT,268035,268035,,,,,,,,,,
,,,,4,6.29935,0,16,16,69,1,a deepa diver next to a brown sea creature,a deep sea diver next to a red sea creature,rensink,Diver,3,32,A157L6Z8QU3SDE,2021-01-08_14h38.28.765,MetaAwareness,2020.1.2,Win32,60,3BC9H1KCYVFQ7ZMF518FE8WH3V5WYW,A157L6Z8QU3SDE,3M0BCWMB8WZXGBRYLBZXUGT48ZQBWT,BC0M5,BC0M5,3M0BCWMB8WZXGBRYLBZXUGT48ZQBWT,3M0BCWMB8WZXGBRYLBZXUGT48ZQBWT,268035,268035,,,,,,,,,,
,,,,5,9.27163,0,17,17,66,1,a dinner table by a fireplace with a wine glass next to a wine bottle,a dinner table by a fireplace with a wine glass next to a full plate,rensink,Dinner,4,32,A157L6Z8QU3SDE,2021-01-08_14h38.28.765,MetaAwareness,2020.1.2,Win32,60,3BC9H1KCYVFQ7ZMF518FE8WH3V5WYW,A157L6Z8QU3SDE,3M0BCWMB8WZXGBRYLBZXUGT48ZQBWT,BC0M5,BC0M5,3M0BCWMB8WZXGBRYLBZXUGT48ZQBWT,3M0BCWMB8WZXGBRYLBZXUGT48ZQBWT,268035,268035,,,,,,,,,,
,,,,2,5.1861,0,18,18,167,1,there is  a ceiling in the station,there is no ceiling  in the station,rensink,Station,4,32,A157L6Z8QU3SDE,2021-01-08_14h38.28.765,MetaAwareness,2020.1.2,Win32,60,3BC9H1KCYVFQ7ZMF518FE8WH3V5WYW,A157L6Z8QU3SDE,3M0BCWMB8WZXGBRYLBZXUGT48ZQBWT,BC0M5,BC0M5,3M0BCWMB8WZXGBRYLBZXUGT48ZQBWT,3M0BCWMB8WZXGBRYLBZXUGT48ZQBWT,268035,268035,,,,,,,,,,
,,,,4,8.90157,0,19,19,176,1,two people stand on the sand near a turtle during midday,two people stand on the sand near a turtle during dusk,rensink,Turtle,4,32,A157L6Z8QU3SDE,2021-01-08_14h38.28.765,MetaAwareness,2020.1.2,Win32,60,3BC9H1KCYVFQ7ZMF518FE8WH3V5WYW,A157L6Z8QU3SDE,3M0BCWMB8WZXGBRYLBZXUGT48ZQBWT,BC0M5,BC0M5,3M0BCWMB8WZXGBRYLBZXUGT48ZQBWT,3M0BCWMB8WZXGBRYLBZXUGT48ZQBWT,268035,268035,,,,,,,,,,
,,,,3,9.185665,0,20,20,99,1,grey helicopter flies over ocean near city,red helicopter flies over ocean near city,rensink,Harbor,2,32,A157L6Z8QU3SDE,2021-01-08_14h38.28.765,MetaAwareness,2020.1.2,Win32,60,3BC9H1KCYVFQ7ZMF518FE8WH3V5WYW,A157L6Z8QU3SDE,3M0BCWMB8WZXGBRYLBZXUGT48ZQBWT,BC0M5,BC0M5,3M0BCWMB8WZXGBRYLBZXUGT48ZQBWT,3M0BCWMB8WZXGBRYLBZXUGT48ZQBWT,268035,268035,,,,,,,,,,
,,,,4,5.003095,0,21,21,101,1,a grey military helicopter over a body of water by a city,a red military helicopter over a body of water by a city,rensink,Harbor,5,32,A157L6Z8QU3SDE,2021-01-08_14h38.28.765,MetaAwareness,2020.1.2,Win32,60,3BC9H1KCYVFQ7ZMF518FE8WH3V5WYW,A157L6Z8QU3SDE,3M0BCWMB8WZXGBRYLBZXUGT48ZQBWT,BC0M5,BC0M5,3M0BCWMB8WZXGBRYLBZXUGT48ZQBWT,3M0BCWMB8WZXGBRYLBZXUGT48ZQBWT,268035,268035,,,,,,,,,,
,,,,4,7.649115,0,22,22,16,1,flowers in the foregroud with a patch of grass to its side and barrels stacked in the background,flowers in the foreground with no patch of grass to its side and barrels stacked in the background,rensink,Barrels,5,32,A157L6Z8QU3SDE,2021-01-08_14h38.28.765,MetaAwareness,2020.1.2,Win32,60,3BC9H1KCYVFQ7ZMF518FE8WH3V5WYW,A157L6Z8QU3SDE,3M0BCWMB8WZXGBRYLBZXUGT48ZQBWT,BC0M5,BC0M5,3M0BCWMB8WZXGBRYLBZXUGT48ZQBWT,3M0BCWMB8WZXGBRYLBZXUGT48ZQBWT,268035,268035,,,,,,,,,,
,,,,3,16.652075,0,23,23,67,1,a glass of wine sits next to the bottle in front of aplate of food,"a glass of wine sits behind a plate of food, a little far away from the bottle",rensink,Dinner,5,32,A157L6Z8QU3SDE,2021-01-08_14h38.28.765,MetaAwareness,2020.1.2,Win32,60,3BC9H1KCYVFQ7ZMF518FE8WH3V5WYW,A157L6Z8QU3SDE,3M0BCWMB8WZXGBRYLBZXUGT48ZQBWT,BC0M5,BC0M5,3M0BCWMB8WZXGBRYLBZXUGT48ZQBWT,3M0BCWMB8WZXGBRYLBZXUGT48ZQBWT,268035,268035,,,,,,,,,,
,,,,4,7.13785,0,24,24,133,1,3 men on a boat holding a fish with a yellow chair in front of them,3 men on a boat holding a fish with no yellow chair in front of them,rensink,Marling,4,32,A157L6Z8QU3SDE,2021-01-08_14h38.28.765,MetaAwareness,2020.1.2,Win32,60,3BC9H1KCYVFQ7ZMF518FE8WH3V5WYW,A157L6Z8QU3SDE,3M0BCWMB8WZXGBRYLBZXUGT48ZQBWT,BC0M5,BC0M5,3M0BCWMB8WZXGBRYLBZXUGT48ZQBWT,3M0BCWMB8WZXGBRYLBZXUGT48ZQBWT,268035,268035,,,,,,,,,,
,,,,4,7.58977,0,25,25,142,1,two people are holding fruit in front of the corner of a white building,two people are holding fruit in front of the corner of a pink building,rensink,Nurses,3,32,A157L6Z8QU3SDE,2021-01-08_14h38.28.765,MetaAwareness,2020.1.2,Win32,60,3BC9H1KCYVFQ7ZMF518FE8WH3V5WYW,A157L6Z8QU3SDE,3M0BCWMB8WZXGBRYLBZXUGT48ZQBWT,BC0M5,BC0M5,3M0BCWMB8WZXGBRYLBZXUGT48ZQBWT,3M0BCWMB8WZXGBRYLBZXUGT48ZQBWT,268035,268035,,,,,,,,,,
,,,,5,14.0404,0,26,26,90,1,a man in waders casts a fishing line into a river in front of mountains on a partly cloudy day,a man in waders casts a fishing line into a river while standing further to the right in front of mountains on a partly cloudy day,rensink,Fishing,1,32,A157L6Z8QU3SDE,2021-01-08_14h38.28.765,MetaAwareness,2020.1.2,Win32,60,3BC9H1KCYVFQ7ZMF518FE8WH3V5WYW,A157L6Z8QU3SDE,3M0BCWMB8WZXGBRYLBZXUGT48ZQBWT,BC0M5,BC0M5,3M0BCWMB8WZXGBRYLBZXUGT48ZQBWT,3M0BCWMB8WZXGBRYLBZXUGT48ZQBWT,268035,268035,,,,,,,,,,
,,,,6,14.95154,0,27,27,48,1,a big castle which has half of its front door hidden by a wall,a big castle which has most of its front door hidden by a wall,rensink,Castle,2,32,A157L6Z8QU3SDE,2021-01-08_14h38.28.765,MetaAwareness,2020.1.2,Win32,60,3BC9H1KCYVFQ7ZMF518FE8WH3V5WYW,A157L6Z8QU3SDE,3M0BCWMB8WZXGBRYLBZXUGT48ZQBWT,BC0M5,BC0M5,3M0BCWMB8WZXGBRYLBZXUGT48ZQBWT,3M0BCWMB8WZXGBRYLBZXUGT48ZQBWT,268035,268035,,,,,,,,,,
,,,,5,7.097095,0,28,28,29,1,"four men on top of a bus, attempting to unload cargo.",three men on top of a bus unloading cargo.,rensink,Bus,1,32,A157L6Z8QU3SDE,2021-01-08_14h38.28.765,MetaAwareness,2020.1.2,Win32,60,3BC9H1KCYVFQ7ZMF518FE8WH3V5WYW,A157L6Z8QU3SDE,3M0BCWMB8WZXGBRYLBZXUGT48ZQBWT,BC0M5,BC0M5,3M0BCWMB8WZXGBRYLBZXUGT48ZQBWT,3M0BCWMB8WZXGBRYLBZXUGT48ZQBWT,268035,268035,,,,,,,,,,
,,,,4,4.266665,0,29,29,71,1,an underwater green corral rock,an underwater red corral rock,rensink,Diver,6,32,A157L6Z8QU3SDE,2021-01-08_14h38.28.765,MetaAwareness,2020.1.2,Win32,60,3BC9H1KCYVFQ7ZMF518FE8WH3V5WYW,A157L6Z8QU3SDE,3M0BCWMB8WZXGBRYLBZXUGT48ZQBWT,BC0M5,BC0M5,3M0BCWMB8WZXGBRYLBZXUGT48ZQBWT,3M0BCWMB8WZXGBRYLBZXUGT48ZQBWT,268035,268035,,,,,,,,,,
,,,,,,,,,,,,,,,,32,A157L6Z8QU3SDE,2021-01-08_14h38.28.765,MetaAwareness,2020.1.2,Win32,60,3BC9H1KCYVFQ7ZMF518FE8WH3V5WYW,A157L6Z8QU3SDE,3M0BCWMB8WZXGBRYLBZXUGT48ZQBWT,BC0M5,BC0M5,3M0BCWMB8WZXGBRYLBZXUGT48ZQBWT,3M0BCWMB8WZXGBRYLBZXUGT48ZQBWT,268035,268035,6,11.868745,someone laying underneath a blue beach umbrella on a crowded beach,someone laying underneath a blue beach umbrella on a crowded beach,same,1,14.430325,members of a marching band crossing a track that all have feather plumes at the front of their hats,a cluttered and rustic looking cafe with 10 hanging lights,different
