consent_response.keys,consent_response.rt,key_resp_2.keys,key_resp_2.rt,user_resp.keys,user_resp.rt,trials.thisRepN,trials.thisTrialN,trials.thisN,trials.thisIndex,trials.ran,image_1_text,image_2_text,database,image,number,age,worker_ID,date,expName,psychopyVersion,OS,frameRate,hitId,workerId,assignmentId,a,tp_a,b,tp_b,c,tp_c,catch_same_resp.keys,catch_same_resp.rt,image_1_text_catch_same,image_2_text_catch_same,image_catch_same,catch_different_resp.keys,catch_different_resp.rt,image_1_text_catch_different,image_2_text_catch_different,image_catch_different
space,5.40582,space,7.677515,3,31.600625,0,0,0,157,1,several people take pictures on the beach with a seal and a rock formation jutting out int the water,several people take pictures on the beach with a seal but the rock formation doesn't go very far into the water,rensink,Seal,1,56,A1KWC8TW8ANBQ8,2021-01-08_13h43.09.157,MetaAwareness,2020.1.2,Win32,60,3BC9H1KCYVFQ7ZMF518FE8WH3V5WYW,A1KWC8TW8ANBQ8,3OJSZ2ATDTZG1G9OCT08ZEUV5CV75M,TZJO5,TZJO5,3OJSZ2ATDTZG1G9OCT08ZEUV5CV75M,3OJSZ2ATDTZG1G9OCT08ZEUV5CV75M,268035,268035,,,,,,,,,,
,,,,3,20.34168,0,1,1,120,1,children sitting outside facing eachother with one child sitting in a yellow chair,children sitting outside facing eachother with one child sitting in a pink chair,rensink,Kids,8,56,A1KWC8TW8ANBQ8,2021-01-08_13h43.09.157,MetaAwareness,2020.1.2,Win32,60,3BC9H1KCYVFQ7ZMF518FE8WH3V5WYW,A1KWC8TW8ANBQ8,3OJSZ2ATDTZG1G9OCT08ZEUV5CV75M,TZJO5,TZJO5,3OJSZ2ATDTZG1G9OCT08ZEUV5CV75M,3OJSZ2ATDTZG1G9OCT08ZEUV5CV75M,268035,268035,,,,,,,,,,
,,,,3,7.344925,0,2,2,141,1,two women with fruit in front of a white building,two women with fruit in front of an orange building,rensink,Nurses,1,56,A1KWC8TW8ANBQ8,2021-01-08_13h43.09.157,MetaAwareness,2020.1.2,Win32,60,3BC9H1KCYVFQ7ZMF518FE8WH3V5WYW,A1KWC8TW8ANBQ8,3OJSZ2ATDTZG1G9OCT08ZEUV5CV75M,TZJO5,TZJO5,3OJSZ2ATDTZG1G9OCT08ZEUV5CV75M,3OJSZ2ATDTZG1G9OCT08ZEUV5CV75M,268035,268035,,,,,,,,,,
,,,,6,9.20932,0,3,3,178,1,"a man paddles a boat on an island, while two others pull it to shore","a man paddles a boat onto an island, while two others pull it to shore",rensink,Water,4,56,A1KWC8TW8ANBQ8,2021-01-08_13h43.09.157,MetaAwareness,2020.1.2,Win32,60,3BC9H1KCYVFQ7ZMF518FE8WH3V5WYW,A1KWC8TW8ANBQ8,3OJSZ2ATDTZG1G9OCT08ZEUV5CV75M,TZJO5,TZJO5,3OJSZ2ATDTZG1G9OCT08ZEUV5CV75M,3OJSZ2ATDTZG1G9OCT08ZEUV5CV75M,268035,268035,,,,,,,,,,
,,,,2,10.053625,0,4,4,60,1,a lower flying helicopter as viewed by a pilot in another helicopter,a higher flying helicopter as viewed by a pilot in another helicopter,rensink,Cockpit,4,56,A1KWC8TW8ANBQ8,2021-01-08_13h43.09.157,MetaAwareness,2020.1.2,Win32,60,3BC9H1KCYVFQ7ZMF518FE8WH3V5WYW,A1KWC8TW8ANBQ8,3OJSZ2ATDTZG1G9OCT08ZEUV5CV75M,TZJO5,TZJO5,3OJSZ2ATDTZG1G9OCT08ZEUV5CV75M,3OJSZ2ATDTZG1G9OCT08ZEUV5CV75M,268035,268035,,,,,,,,,,
,,,,1,9.86589,0,5,5,54,1,there have a shadow of the  helicopter,there haven't a  shadw of the helicopter,rensink,Chopper,4,56,A1KWC8TW8ANBQ8,2021-01-08_13h43.09.157,MetaAwareness,2020.1.2,Win32,60,3BC9H1KCYVFQ7ZMF518FE8WH3V5WYW,A1KWC8TW8ANBQ8,3OJSZ2ATDTZG1G9OCT08ZEUV5CV75M,TZJO5,TZJO5,3OJSZ2ATDTZG1G9OCT08ZEUV5CV75M,3OJSZ2ATDTZG1G9OCT08ZEUV5CV75M,268035,268035,,,,,,,,,,
,,,,3,8.74329,0,6,6,132,1,"3 fisherman standing on a boat holding a marlin they've caught, with a yellow tarp on the deck","3 fisherman standing on a boat holding a marlin they've caught, with no yellow tarp on the deck",rensink,Marling,3,56,A1KWC8TW8ANBQ8,2021-01-08_13h43.09.157,MetaAwareness,2020.1.2,Win32,60,3BC9H1KCYVFQ7ZMF518FE8WH3V5WYW,A1KWC8TW8ANBQ8,3OJSZ2ATDTZG1G9OCT08ZEUV5CV75M,TZJO5,TZJO5,3OJSZ2ATDTZG1G9OCT08ZEUV5CV75M,3OJSZ2ATDTZG1G9OCT08ZEUV5CV75M,268035,268035,,,,,,,,,,
,,,,2,7.58319,0,7,7,76,1,an ancient egyptian sculpture of a pharoah in front of pillars,an ancient egyptian sculpture of a pharoah with a large gap between pillars,rensink,Egypt,4,56,A1KWC8TW8ANBQ8,2021-01-08_13h43.09.157,MetaAwareness,2020.1.2,Win32,60,3BC9H1KCYVFQ7ZMF518FE8WH3V5WYW,A1KWC8TW8ANBQ8,3OJSZ2ATDTZG1G9OCT08ZEUV5CV75M,TZJO5,TZJO5,3OJSZ2ATDTZG1G9OCT08ZEUV5CV75M,3OJSZ2ATDTZG1G9OCT08ZEUV5CV75M,268035,268035,,,,,,,,,,
,,,,6,10.4617,0,8,8,50,1,stone building with some windows and a flag. theres a mountain in the background with another building on top of it,stone building with multiple windows and a flag there is a mountain or large hill off to the side with a building on top of it,rensink,Castle,4,56,A1KWC8TW8ANBQ8,2021-01-08_13h43.09.157,MetaAwareness,2020.1.2,Win32,60,3BC9H1KCYVFQ7ZMF518FE8WH3V5WYW,A1KWC8TW8ANBQ8,3OJSZ2ATDTZG1G9OCT08ZEUV5CV75M,TZJO5,TZJO5,3OJSZ2ATDTZG1G9OCT08ZEUV5CV75M,3OJSZ2ATDTZG1G9OCT08ZEUV5CV75M,268035,268035,,,,,,,,,,
,,,,3,7.1302,0,9,9,63,1,three people in costumes standing next to a while light,three people in costumes standing next to a yellow light,rensink,Description,4,56,A1KWC8TW8ANBQ8,2021-01-08_13h43.09.157,MetaAwareness,2020.1.2,Win32,60,3BC9H1KCYVFQ7ZMF518FE8WH3V5WYW,A1KWC8TW8ANBQ8,3OJSZ2ATDTZG1G9OCT08ZEUV5CV75M,TZJO5,TZJO5,3OJSZ2ATDTZG1G9OCT08ZEUV5CV75M,3OJSZ2ATDTZG1G9OCT08ZEUV5CV75M,268035,268035,,,,,,,,,,
,,,,6,8.803155,0,10,10,65,1,red wine set inte middle of a table surrounded by a meal and bread.,"red wine set to the righ of the table, surrounded by bread and a meal.",rensink,Dinner,3,56,A1KWC8TW8ANBQ8,2021-01-08_13h43.09.157,MetaAwareness,2020.1.2,Win32,60,3BC9H1KCYVFQ7ZMF518FE8WH3V5WYW,A1KWC8TW8ANBQ8,3OJSZ2ATDTZG1G9OCT08ZEUV5CV75M,TZJO5,TZJO5,3OJSZ2ATDTZG1G9OCT08ZEUV5CV75M,3OJSZ2ATDTZG1G9OCT08ZEUV5CV75M,268035,268035,,,,,,,,,,
,,,,2,10.529,0,11,11,181,1,an old looking window overlooking a field with something that looks like a log amongst leaves on the bottom left,an old-looking window overlooking a field with some leaves on the ledge but no log on the bottom left,rensink,Window,1,56,A1KWC8TW8ANBQ8,2021-01-08_13h43.09.157,MetaAwareness,2020.1.2,Win32,60,3BC9H1KCYVFQ7ZMF518FE8WH3V5WYW,A1KWC8TW8ANBQ8,3OJSZ2ATDTZG1G9OCT08ZEUV5CV75M,TZJO5,TZJO5,3OJSZ2ATDTZG1G9OCT08ZEUV5CV75M,3OJSZ2ATDTZG1G9OCT08ZEUV5CV75M,268035,268035,,,,,,,,,,
,,,,3,11.03553,0,12,12,154,1,three pilots standing in front of a helicoper that is in front of a grey building,three pilots standing in front of a helicopter that is in front of a yellow building,rensink,Pilots,2,56,A1KWC8TW8ANBQ8,2021-01-08_13h43.09.157,MetaAwareness,2020.1.2,Win32,60,3BC9H1KCYVFQ7ZMF518FE8WH3V5WYW,A1KWC8TW8ANBQ8,3OJSZ2ATDTZG1G9OCT08ZEUV5CV75M,TZJO5,TZJO5,3OJSZ2ATDTZG1G9OCT08ZEUV5CV75M,3OJSZ2ATDTZG1G9OCT08ZEUV5CV75M,268035,268035,,,,,,,,,,
,,,,3,0.162295,0,13,13,146,1,there has a large tree and small tree,there has a small tree,rensink,Obelisk,2,56,A1KWC8TW8ANBQ8,2021-01-08_13h43.09.157,MetaAwareness,2020.1.2,Win32,60,3BC9H1KCYVFQ7ZMF518FE8WH3V5WYW,A1KWC8TW8ANBQ8,3OJSZ2ATDTZG1G9OCT08ZEUV5CV75M,TZJO5,TZJO5,3OJSZ2ATDTZG1G9OCT08ZEUV5CV75M,3OJSZ2ATDTZG1G9OCT08ZEUV5CV75M,268035,268035,,,,,,,,,,
,,,,1,5.36321,0,14,14,122,1,prson standing in the yellow box,no person in the box,rensink,Lake,2,56,A1KWC8TW8ANBQ8,2021-01-08_13h43.09.157,MetaAwareness,2020.1.2,Win32,60,3BC9H1KCYVFQ7ZMF518FE8WH3V5WYW,A1KWC8TW8ANBQ8,3OJSZ2ATDTZG1G9OCT08ZEUV5CV75M,TZJO5,TZJO5,3OJSZ2ATDTZG1G9OCT08ZEUV5CV75M,3OJSZ2ATDTZG1G9OCT08ZEUV5CV75M,268035,268035,,,,,,,,,,
,,,,3,10.3441,0,15,15,101,1,a grey military helicopter over a body of water by a city,a red military helicopter over a body of water by a city,rensink,Harbor,5,56,A1KWC8TW8ANBQ8,2021-01-08_13h43.09.157,MetaAwareness,2020.1.2,Win32,60,3BC9H1KCYVFQ7ZMF518FE8WH3V5WYW,A1KWC8TW8ANBQ8,3OJSZ2ATDTZG1G9OCT08ZEUV5CV75M,TZJO5,TZJO5,3OJSZ2ATDTZG1G9OCT08ZEUV5CV75M,3OJSZ2ATDTZG1G9OCT08ZEUV5CV75M,268035,268035,,,,,,,,,,
,,,,3,4.828525,0,16,16,109,1,white water rafter with a purple life saving vest,white water rafter with a blue life saving vest,rensink,Kayak,7,56,A1KWC8TW8ANBQ8,2021-01-08_13h43.09.157,MetaAwareness,2020.1.2,Win32,60,3BC9H1KCYVFQ7ZMF518FE8WH3V5WYW,A1KWC8TW8ANBQ8,3OJSZ2ATDTZG1G9OCT08ZEUV5CV75M,TZJO5,TZJO5,3OJSZ2ATDTZG1G9OCT08ZEUV5CV75M,3OJSZ2ATDTZG1G9OCT08ZEUV5CV75M,268035,268035,,,,,,,,,,
,,,,5,9.77581,0,17,17,158,1,three people and a seal on a rock outcropping,three people and a seal on a shorter rock outcropping,rensink,Seal,2,56,A1KWC8TW8ANBQ8,2021-01-08_13h43.09.157,MetaAwareness,2020.1.2,Win32,60,3BC9H1KCYVFQ7ZMF518FE8WH3V5WYW,A1KWC8TW8ANBQ8,3OJSZ2ATDTZG1G9OCT08ZEUV5CV75M,TZJO5,TZJO5,3OJSZ2ATDTZG1G9OCT08ZEUV5CV75M,3OJSZ2ATDTZG1G9OCT08ZEUV5CV75M,268035,268035,,,,,,,,,,
,,,,2,9.187815,0,18,18,184,1,a piece of wood were kept in front of the window near dry leaves.,dry leaves were  near the windows.,rensink,Window,5,56,A1KWC8TW8ANBQ8,2021-01-08_13h43.09.157,MetaAwareness,2020.1.2,Win32,60,3BC9H1KCYVFQ7ZMF518FE8WH3V5WYW,A1KWC8TW8ANBQ8,3OJSZ2ATDTZG1G9OCT08ZEUV5CV75M,TZJO5,TZJO5,3OJSZ2ATDTZG1G9OCT08ZEUV5CV75M,3OJSZ2ATDTZG1G9OCT08ZEUV5CV75M,268035,268035,,,,,,,,,,
,,,,2,11.15801,0,19,19,113,1,a female kayaker with a rocky and forest filled background at her side,a female kayaker with a rocky but no forest filled background at her side,rensink,Kayaker,5,56,A1KWC8TW8ANBQ8,2021-01-08_13h43.09.157,MetaAwareness,2020.1.2,Win32,60,3BC9H1KCYVFQ7ZMF518FE8WH3V5WYW,A1KWC8TW8ANBQ8,3OJSZ2ATDTZG1G9OCT08ZEUV5CV75M,TZJO5,TZJO5,3OJSZ2ATDTZG1G9OCT08ZEUV5CV75M,3OJSZ2ATDTZG1G9OCT08ZEUV5CV75M,268035,268035,,,,,,,,,,
,,,,2,9.060395,0,20,20,41,1,a man and camel in front of a structure with the sky in the background,a man and camel in front of a structure with mountains in the background,rensink,Camel,5,56,A1KWC8TW8ANBQ8,2021-01-08_13h43.09.157,MetaAwareness,2020.1.2,Win32,60,3BC9H1KCYVFQ7ZMF518FE8WH3V5WYW,A1KWC8TW8ANBQ8,3OJSZ2ATDTZG1G9OCT08ZEUV5CV75M,TZJO5,TZJO5,3OJSZ2ATDTZG1G9OCT08ZEUV5CV75M,3OJSZ2ATDTZG1G9OCT08ZEUV5CV75M,268035,268035,,,,,,,,,,
,,,,2,18.55305,0,21,21,44,1,theres water with a hint of algae a few boats docked many people in the background there's a few cars and buildings as well,"water a few boats to the side buildings, cars, and people in the background as well as a light pole",rensink,CanalBridge,4,56,A1KWC8TW8ANBQ8,2021-01-08_13h43.09.157,MetaAwareness,2020.1.2,Win32,60,3BC9H1KCYVFQ7ZMF518FE8WH3V5WYW,A1KWC8TW8ANBQ8,3OJSZ2ATDTZG1G9OCT08ZEUV5CV75M,TZJO5,TZJO5,3OJSZ2ATDTZG1G9OCT08ZEUV5CV75M,3OJSZ2ATDTZG1G9OCT08ZEUV5CV75M,268035,268035,,,,,,,,,,
,,,,2,11.48223,0,22,22,147,1,side of an egyptian temple with statues and a cluster of trees inthe background,side of an egyptian temple with statues and low-lying buildings in the background,rensink,Obelisk,4,56,A1KWC8TW8ANBQ8,2021-01-08_13h43.09.157,MetaAwareness,2020.1.2,Win32,60,3BC9H1KCYVFQ7ZMF518FE8WH3V5WYW,A1KWC8TW8ANBQ8,3OJSZ2ATDTZG1G9OCT08ZEUV5CV75M,TZJO5,TZJO5,3OJSZ2ATDTZG1G9OCT08ZEUV5CV75M,3OJSZ2ATDTZG1G9OCT08ZEUV5CV75M,268035,268035,,,,,,,,,,
,,,,2,5.702575,0,23,23,91,1,a man fishing in a river with long shoals of sand around him.,a man fishing in a river with smaller shoals of sand around him,rensink,Fishing,2,56,A1KWC8TW8ANBQ8,2021-01-08_13h43.09.157,MetaAwareness,2020.1.2,Win32,60,3BC9H1KCYVFQ7ZMF518FE8WH3V5WYW,A1KWC8TW8ANBQ8,3OJSZ2ATDTZG1G9OCT08ZEUV5CV75M,TZJO5,TZJO5,3OJSZ2ATDTZG1G9OCT08ZEUV5CV75M,3OJSZ2ATDTZG1G9OCT08ZEUV5CV75M,268035,268035,,,,,,,,,,
,,,,5,1.406725,0,24,24,169,1,train tracks in a station with more buildings beyond,train tracks in a station with people,rensink,Station,8,56,A1KWC8TW8ANBQ8,2021-01-08_13h43.09.157,MetaAwareness,2020.1.2,Win32,60,3BC9H1KCYVFQ7ZMF518FE8WH3V5WYW,A1KWC8TW8ANBQ8,3OJSZ2ATDTZG1G9OCT08ZEUV5CV75M,TZJO5,TZJO5,3OJSZ2ATDTZG1G9OCT08ZEUV5CV75M,3OJSZ2ATDTZG1G9OCT08ZEUV5CV75M,268035,268035,,,,,,,,,,
,,,,2,10.2753,0,25,25,38,1,a man standing next to a camel in the middle of the desert with no sand behind the tower,a man standing next to a camel in the midel of the desert with sand behind the tower,rensink,Camel,2,56,A1KWC8TW8ANBQ8,2021-01-08_13h43.09.157,MetaAwareness,2020.1.2,Win32,60,3BC9H1KCYVFQ7ZMF518FE8WH3V5WYW,A1KWC8TW8ANBQ8,3OJSZ2ATDTZG1G9OCT08ZEUV5CV75M,TZJO5,TZJO5,3OJSZ2ATDTZG1G9OCT08ZEUV5CV75M,3OJSZ2ATDTZG1G9OCT08ZEUV5CV75M,268035,268035,,,,,,,,,,
,,,,1,7.322405,0,26,26,27,1,six people on a boat approaching land.,"five people, one outside of the boat, approaching a woman near land.",rensink,Boat,1,56,A1KWC8TW8ANBQ8,2021-01-08_13h43.09.157,MetaAwareness,2020.1.2,Win32,60,3BC9H1KCYVFQ7ZMF518FE8WH3V5WYW,A1KWC8TW8ANBQ8,3OJSZ2ATDTZG1G9OCT08ZEUV5CV75M,TZJO5,TZJO5,3OJSZ2ATDTZG1G9OCT08ZEUV5CV75M,3OJSZ2ATDTZG1G9OCT08ZEUV5CV75M,268035,268035,,,,,,,,,,
,,,,1,5.683485,0,27,27,40,1,a man standing beside his camel with large fence behind him,a man standing beside his canoe with a fence behind him,rensink,Camel,4,56,A1KWC8TW8ANBQ8,2021-01-08_13h43.09.157,MetaAwareness,2020.1.2,Win32,60,3BC9H1KCYVFQ7ZMF518FE8WH3V5WYW,A1KWC8TW8ANBQ8,3OJSZ2ATDTZG1G9OCT08ZEUV5CV75M,TZJO5,TZJO5,3OJSZ2ATDTZG1G9OCT08ZEUV5CV75M,3OJSZ2ATDTZG1G9OCT08ZEUV5CV75M,268035,268035,,,,,,,,,,
,,,,5,5.83567,0,28,28,176,1,two people stand on the sand near a turtle during midday,two people stand on the sand near a turtle during dusk,rensink,Turtle,4,56,A1KWC8TW8ANBQ8,2021-01-08_13h43.09.157,MetaAwareness,2020.1.2,Win32,60,3BC9H1KCYVFQ7ZMF518FE8WH3V5WYW,A1KWC8TW8ANBQ8,3OJSZ2ATDTZG1G9OCT08ZEUV5CV75M,TZJO5,TZJO5,3OJSZ2ATDTZG1G9OCT08ZEUV5CV75M,3OJSZ2ATDTZG1G9OCT08ZEUV5CV75M,268035,268035,,,,,,,,,,
,,,,3,11.135025,0,29,29,15,1,a plant flower with barrels and grass on the ground,a plant flower with barrels and stones on the ground,rensink,Barrels,3,56,A1KWC8TW8ANBQ8,2021-01-08_13h43.09.157,MetaAwareness,2020.1.2,Win32,60,3BC9H1KCYVFQ7ZMF518FE8WH3V5WYW,A1KWC8TW8ANBQ8,3OJSZ2ATDTZG1G9OCT08ZEUV5CV75M,TZJO5,TZJO5,3OJSZ2ATDTZG1G9OCT08ZEUV5CV75M,3OJSZ2ATDTZG1G9OCT08ZEUV5CV75M,268035,268035,,,,,,,,,,
,,,,,,,,,,,,,,,,56,A1KWC8TW8ANBQ8,2021-01-08_13h43.09.157,MetaAwareness,2020.1.2,Win32,60,3BC9H1KCYVFQ7ZMF518FE8WH3V5WYW,A1KWC8TW8ANBQ8,3OJSZ2ATDTZG1G9OCT08ZEUV5CV75M,TZJO5,TZJO5,3OJSZ2ATDTZG1G9OCT08ZEUV5CV75M,3OJSZ2ATDTZG1G9OCT08ZEUV5CV75M,268035,268035,5,6.249025,someone laying underneath a blue beach umbrella on a crowded beach,someone laying underneath a blue beach umbrella on a crowded beach,same,1,8.55981,members of a marching band crossing a track that all have feather plumes at the front of their hats,a cluttered and rustic looking cafe with 10 hanging lights,different
