consent_response.keys,consent_response.rt,key_resp_2.keys,key_resp_2.rt,user_resp.keys,user_resp.rt,trials.thisRepN,trials.thisTrialN,trials.thisN,trials.thisIndex,trials.ran,image_1_text,image_2_text,database,image,number,age,worker_ID,date,expName,psychopyVersion,OS,frameRate,hitId,workerId,assignmentId,a,tp_a,b,tp_b,c,tp_c,catch_same_resp.keys,catch_same_resp.rt,image_1_text_catch_same,image_2_text_catch_same,image_catch_same,catch_different_resp.keys,catch_different_resp.rt,image_1_text_catch_different,image_2_text_catch_different,image_catch_different
space,4.76611,space,9.222385,2,9.445915,0,0,0,94,1,it is a red coloured flight,it is a blue coloured flight,rensink,Floatplane,2,43,A2S64AUN7JI7ZS,2021-01-08_10h24.25.600,MetaAwareness,2020.1.2,Win32,60,30OITAWPBR6T98JI2QUZEOT3FY6H9R,A2S64AUN7JI7ZS,3L2IS5HSFBLMPGRQT1P53N8147JNUJ,SS2L5,SS2L5,3L2IS5HSFBLMPGRQT1P53N8147JNUJ,3L2IS5HSFBLMPGRQT1P53N8147JNUJ,268035,268035,,,,,,,,,,
,,,,4,16.9003,0,1,1,157,1,several people take pictures on the beach with a seal and a rock formation jutting out int the water,several people take pictures on the beach with a seal but the rock formation doesn't go very far into the water,rensink,Seal,1,43,A2S64AUN7JI7ZS,2021-01-08_10h24.25.600,MetaAwareness,2020.1.2,Win32,60,30OITAWPBR6T98JI2QUZEOT3FY6H9R,A2S64AUN7JI7ZS,3L2IS5HSFBLMPGRQT1P53N8147JNUJ,SS2L5,SS2L5,3L2IS5HSFBLMPGRQT1P53N8147JNUJ,3L2IS5HSFBLMPGRQT1P53N8147JNUJ,268035,268035,,,,,,,,,,
,,,,5,11.884005,0,2,2,176,1,two people stand on the sand near a turtle during midday,two people stand on the sand near a turtle during dusk,rensink,Turtle,4,43,A2S64AUN7JI7ZS,2021-01-08_10h24.25.600,MetaAwareness,2020.1.2,Win32,60,30OITAWPBR6T98JI2QUZEOT3FY6H9R,A2S64AUN7JI7ZS,3L2IS5HSFBLMPGRQT1P53N8147JNUJ,SS2L5,SS2L5,3L2IS5HSFBLMPGRQT1P53N8147JNUJ,3L2IS5HSFBLMPGRQT1P53N8147JNUJ,268035,268035,,,,,,,,,,
,,,,2,7.359295,0,3,3,104,1,the boat thread is many,the boat is minimum thread,rensink,Horizon,3,43,A2S64AUN7JI7ZS,2021-01-08_10h24.25.600,MetaAwareness,2020.1.2,Win32,60,30OITAWPBR6T98JI2QUZEOT3FY6H9R,A2S64AUN7JI7ZS,3L2IS5HSFBLMPGRQT1P53N8147JNUJ,SS2L5,SS2L5,3L2IS5HSFBLMPGRQT1P53N8147JNUJ,3L2IS5HSFBLMPGRQT1P53N8147JNUJ,268035,268035,,,,,,,,,,
,,,,3,12.89953,0,4,4,81,1,a farmhouse scene with trees reflected in a lake,a farmhouse scene reflected n a lake without trees,rensink,FarmByPond,2,43,A2S64AUN7JI7ZS,2021-01-08_10h24.25.600,MetaAwareness,2020.1.2,Win32,60,30OITAWPBR6T98JI2QUZEOT3FY6H9R,A2S64AUN7JI7ZS,3L2IS5HSFBLMPGRQT1P53N8147JNUJ,SS2L5,SS2L5,3L2IS5HSFBLMPGRQT1P53N8147JNUJ,3L2IS5HSFBLMPGRQT1P53N8147JNUJ,268035,268035,,,,,,,,,,
,,,,4,13.15045,0,5,5,158,1,three people and a seal on a rock outcropping,three people and a seal on a shorter rock outcropping,rensink,Seal,2,43,A2S64AUN7JI7ZS,2021-01-08_10h24.25.600,MetaAwareness,2020.1.2,Win32,60,30OITAWPBR6T98JI2QUZEOT3FY6H9R,A2S64AUN7JI7ZS,3L2IS5HSFBLMPGRQT1P53N8147JNUJ,SS2L5,SS2L5,3L2IS5HSFBLMPGRQT1P53N8147JNUJ,3L2IS5HSFBLMPGRQT1P53N8147JNUJ,268035,268035,,,,,,,,,,
,,,,4,9.31051,0,6,6,68,1,a dining table in front of a fire place with a glass of red wine next to a wine bottle,a dining table in front of a fire place with a glass of red wine next to a plate of food,rensink,Dinner,6,43,A2S64AUN7JI7ZS,2021-01-08_10h24.25.600,MetaAwareness,2020.1.2,Win32,60,30OITAWPBR6T98JI2QUZEOT3FY6H9R,A2S64AUN7JI7ZS,3L2IS5HSFBLMPGRQT1P53N8147JNUJ,SS2L5,SS2L5,3L2IS5HSFBLMPGRQT1P53N8147JNUJ,3L2IS5HSFBLMPGRQT1P53N8147JNUJ,268035,268035,,,,,,,,,,
,,,,4,11.451285,0,7,7,144,1,a woman in a blue shirt with a purse and a piece of fruit is standing next to another person holding a bag of fruit on the sidewalk with cars in the background,a woman in blue shirt with a purse and piece of fruit is standing next to another person on a street with cars and buildings in the background,rensink,Nurses,5,43,A2S64AUN7JI7ZS,2021-01-08_10h24.25.600,MetaAwareness,2020.1.2,Win32,60,30OITAWPBR6T98JI2QUZEOT3FY6H9R,A2S64AUN7JI7ZS,3L2IS5HSFBLMPGRQT1P53N8147JNUJ,SS2L5,SS2L5,3L2IS5HSFBLMPGRQT1P53N8147JNUJ,3L2IS5HSFBLMPGRQT1P53N8147JNUJ,268035,268035,,,,,,,,,,
,,,,4,16.335645,0,8,8,67,1,a glass of wine sits next to the bottle in front of aplate of food,"a glass of wine sits behind a plate of food, a little far away from the bottle",rensink,Dinner,5,43,A2S64AUN7JI7ZS,2021-01-08_10h24.25.600,MetaAwareness,2020.1.2,Win32,60,30OITAWPBR6T98JI2QUZEOT3FY6H9R,A2S64AUN7JI7ZS,3L2IS5HSFBLMPGRQT1P53N8147JNUJ,SS2L5,SS2L5,3L2IS5HSFBLMPGRQT1P53N8147JNUJ,3L2IS5HSFBLMPGRQT1P53N8147JNUJ,268035,268035,,,,,,,,,,
,,,,2,9.20092,0,9,9,7,1,a country farmhouse with a red barn,a country farmhouse with a green barn,rensink,Barns,1,43,A2S64AUN7JI7ZS,2021-01-08_10h24.25.600,MetaAwareness,2020.1.2,Win32,60,30OITAWPBR6T98JI2QUZEOT3FY6H9R,A2S64AUN7JI7ZS,3L2IS5HSFBLMPGRQT1P53N8147JNUJ,SS2L5,SS2L5,3L2IS5HSFBLMPGRQT1P53N8147JNUJ,3L2IS5HSFBLMPGRQT1P53N8147JNUJ,268035,268035,,,,,,,,,,
,,,,3,16.2848,0,10,10,185,1,"painting of a scene that features a old light, leaves and a canteen with a view outside of a window","painting of a scene that features a old light, leaves, but no canteen with a view outside of a window",rensink,Window,6,43,A2S64AUN7JI7ZS,2021-01-08_10h24.25.600,MetaAwareness,2020.1.2,Win32,60,30OITAWPBR6T98JI2QUZEOT3FY6H9R,A2S64AUN7JI7ZS,3L2IS5HSFBLMPGRQT1P53N8147JNUJ,SS2L5,SS2L5,3L2IS5HSFBLMPGRQT1P53N8147JNUJ,3L2IS5HSFBLMPGRQT1P53N8147JNUJ,268035,268035,,,,,,,,,,
,,,,5,13.606465,0,11,11,86,1,a lot of junk being placed by machinery and a man wearing a green plaid shirt,a lot of junk being placed with machinery and a man wearing a bright green plaid shirt,rensink,Farmer,3,43,A2S64AUN7JI7ZS,2021-01-08_10h24.25.600,MetaAwareness,2020.1.2,Win32,60,30OITAWPBR6T98JI2QUZEOT3FY6H9R,A2S64AUN7JI7ZS,3L2IS5HSFBLMPGRQT1P53N8147JNUJ,SS2L5,SS2L5,3L2IS5HSFBLMPGRQT1P53N8147JNUJ,3L2IS5HSFBLMPGRQT1P53N8147JNUJ,268035,268035,,,,,,,,,,
,,,,3,11.154615,0,12,12,145,1,an ancient egypt structure with a big tree at the background,an ancient egypt structure with no tree at the background,rensink,Obelisk,1,43,A2S64AUN7JI7ZS,2021-01-08_10h24.25.600,MetaAwareness,2020.1.2,Win32,60,30OITAWPBR6T98JI2QUZEOT3FY6H9R,A2S64AUN7JI7ZS,3L2IS5HSFBLMPGRQT1P53N8147JNUJ,SS2L5,SS2L5,3L2IS5HSFBLMPGRQT1P53N8147JNUJ,3L2IS5HSFBLMPGRQT1P53N8147JNUJ,268035,268035,,,,,,,,,,
,,,,3,11.4005,0,13,13,160,1,three people and a seal are near a shore with a rock formation that goes into the water,three people and a seal are near a shore next to a rock formation on the land,rensink,Seal,5,43,A2S64AUN7JI7ZS,2021-01-08_10h24.25.600,MetaAwareness,2020.1.2,Win32,60,30OITAWPBR6T98JI2QUZEOT3FY6H9R,A2S64AUN7JI7ZS,3L2IS5HSFBLMPGRQT1P53N8147JNUJ,SS2L5,SS2L5,3L2IS5HSFBLMPGRQT1P53N8147JNUJ,3L2IS5HSFBLMPGRQT1P53N8147JNUJ,268035,268035,,,,,,,,,,
,,,,2,10.090305,0,14,14,154,1,three pilots standing in front of a helicoper that is in front of a grey building,three pilots standing in front of a helicopter that is in front of a yellow building,rensink,Pilots,2,43,A2S64AUN7JI7ZS,2021-01-08_10h24.25.600,MetaAwareness,2020.1.2,Win32,60,30OITAWPBR6T98JI2QUZEOT3FY6H9R,A2S64AUN7JI7ZS,3L2IS5HSFBLMPGRQT1P53N8147JNUJ,SS2L5,SS2L5,3L2IS5HSFBLMPGRQT1P53N8147JNUJ,3L2IS5HSFBLMPGRQT1P53N8147JNUJ,268035,268035,,,,,,,,,,
,,,,2,10.05116,0,15,15,2,1,a man in a blue shirt sitting on a cart being dragged by a horse,a man in a pink shirt sitting on a cart being dragged by a horse,rensink,Amish,3,43,A2S64AUN7JI7ZS,2021-01-08_10h24.25.600,MetaAwareness,2020.1.2,Win32,60,30OITAWPBR6T98JI2QUZEOT3FY6H9R,A2S64AUN7JI7ZS,3L2IS5HSFBLMPGRQT1P53N8147JNUJ,SS2L5,SS2L5,3L2IS5HSFBLMPGRQT1P53N8147JNUJ,3L2IS5HSFBLMPGRQT1P53N8147JNUJ,268035,268035,,,,,,,,,,
,,,,2,8.62888,0,16,16,28,1,a group of people on a small boat almost at shore.,a group of people on a small boat slightly further away from shore.,rensink,Boat,6,43,A2S64AUN7JI7ZS,2021-01-08_10h24.25.600,MetaAwareness,2020.1.2,Win32,60,30OITAWPBR6T98JI2QUZEOT3FY6H9R,A2S64AUN7JI7ZS,3L2IS5HSFBLMPGRQT1P53N8147JNUJ,SS2L5,SS2L5,3L2IS5HSFBLMPGRQT1P53N8147JNUJ,3L2IS5HSFBLMPGRQT1P53N8147JNUJ,268035,268035,,,,,,,,,,
,,,,4,13.483105,0,17,17,107,1,a family standing floating chunks of broken ice look out to a person in a canoe,a family stand on floating chunks of ice and look out into the water,rensink,Ice,3,43,A2S64AUN7JI7ZS,2021-01-08_10h24.25.600,MetaAwareness,2020.1.2,Win32,60,30OITAWPBR6T98JI2QUZEOT3FY6H9R,A2S64AUN7JI7ZS,3L2IS5HSFBLMPGRQT1P53N8147JNUJ,SS2L5,SS2L5,3L2IS5HSFBLMPGRQT1P53N8147JNUJ,3L2IS5HSFBLMPGRQT1P53N8147JNUJ,268035,268035,,,,,,,,,,
,,,,3,16.69958,0,18,18,126,1,the man wear the blue colour pant,the man wear the light brown colour pant,rensink,Market,1,43,A2S64AUN7JI7ZS,2021-01-08_10h24.25.600,MetaAwareness,2020.1.2,Win32,60,30OITAWPBR6T98JI2QUZEOT3FY6H9R,A2S64AUN7JI7ZS,3L2IS5HSFBLMPGRQT1P53N8147JNUJ,SS2L5,SS2L5,3L2IS5HSFBLMPGRQT1P53N8147JNUJ,3L2IS5HSFBLMPGRQT1P53N8147JNUJ,268035,268035,,,,,,,,,,
,,,,3,10.93962,0,19,19,54,1,there have a shadow of the  helicopter,there haven't a  shadw of the helicopter,rensink,Chopper,4,43,A2S64AUN7JI7ZS,2021-01-08_10h24.25.600,MetaAwareness,2020.1.2,Win32,60,30OITAWPBR6T98JI2QUZEOT3FY6H9R,A2S64AUN7JI7ZS,3L2IS5HSFBLMPGRQT1P53N8147JNUJ,SS2L5,SS2L5,3L2IS5HSFBLMPGRQT1P53N8147JNUJ,3L2IS5HSFBLMPGRQT1P53N8147JNUJ,268035,268035,,,,,,,,,,
,,,,3,10.18463,0,20,20,151,1,man examines fish in reef far above the sea floor,man examines fish in reef close to the sea floor,rensink,OtherDiver,6,43,A2S64AUN7JI7ZS,2021-01-08_10h24.25.600,MetaAwareness,2020.1.2,Win32,60,30OITAWPBR6T98JI2QUZEOT3FY6H9R,A2S64AUN7JI7ZS,3L2IS5HSFBLMPGRQT1P53N8147JNUJ,SS2L5,SS2L5,3L2IS5HSFBLMPGRQT1P53N8147JNUJ,3L2IS5HSFBLMPGRQT1P53N8147JNUJ,268035,268035,,,,,,,,,,
,,,,3,15.501285,0,21,21,140,1,"a crowd of people walk on the sidewalk, a cathedral is pictured in the distance on the next street over","a crowd of people walk onthe sidewalk, a cathedral is pictured in the distance n the same street",rensink,NotreDame,5,43,A2S64AUN7JI7ZS,2021-01-08_10h24.25.600,MetaAwareness,2020.1.2,Win32,60,30OITAWPBR6T98JI2QUZEOT3FY6H9R,A2S64AUN7JI7ZS,3L2IS5HSFBLMPGRQT1P53N8147JNUJ,SS2L5,SS2L5,3L2IS5HSFBLMPGRQT1P53N8147JNUJ,3L2IS5HSFBLMPGRQT1P53N8147JNUJ,268035,268035,,,,,,,,,,
,,,,3,5.61758,0,22,22,120,1,children sitting outside facing eachother with one child sitting in a yellow chair,children sitting outside facing eachother with one child sitting in a pink chair,rensink,Kids,8,43,A2S64AUN7JI7ZS,2021-01-08_10h24.25.600,MetaAwareness,2020.1.2,Win32,60,30OITAWPBR6T98JI2QUZEOT3FY6H9R,A2S64AUN7JI7ZS,3L2IS5HSFBLMPGRQT1P53N8147JNUJ,SS2L5,SS2L5,3L2IS5HSFBLMPGRQT1P53N8147JNUJ,3L2IS5HSFBLMPGRQT1P53N8147JNUJ,268035,268035,,,,,,,,,,
,,,,3,7.438235,0,23,23,152,1,a diver in the sea with blurry images beneath the sea,a diver in the sea wih no image beneath the sea,rensink,OtherDiver,7,43,A2S64AUN7JI7ZS,2021-01-08_10h24.25.600,MetaAwareness,2020.1.2,Win32,60,30OITAWPBR6T98JI2QUZEOT3FY6H9R,A2S64AUN7JI7ZS,3L2IS5HSFBLMPGRQT1P53N8147JNUJ,SS2L5,SS2L5,3L2IS5HSFBLMPGRQT1P53N8147JNUJ,3L2IS5HSFBLMPGRQT1P53N8147JNUJ,268035,268035,,,,,,,,,,
,,,,2,4.2041,0,24,24,125,1,a man standing near the boat,nobody standing near the boat,rensink,Lake,7,43,A2S64AUN7JI7ZS,2021-01-08_10h24.25.600,MetaAwareness,2020.1.2,Win32,60,30OITAWPBR6T98JI2QUZEOT3FY6H9R,A2S64AUN7JI7ZS,3L2IS5HSFBLMPGRQT1P53N8147JNUJ,SS2L5,SS2L5,3L2IS5HSFBLMPGRQT1P53N8147JNUJ,3L2IS5HSFBLMPGRQT1P53N8147JNUJ,268035,268035,,,,,,,,,,
,,,,5,8.467575,0,25,25,149,1,underwater photo of a scuba diver,underwater photo of a scuba diver with plants behind him,rensink,OtherDiver,2,43,A2S64AUN7JI7ZS,2021-01-08_10h24.25.600,MetaAwareness,2020.1.2,Win32,60,30OITAWPBR6T98JI2QUZEOT3FY6H9R,A2S64AUN7JI7ZS,3L2IS5HSFBLMPGRQT1P53N8147JNUJ,SS2L5,SS2L5,3L2IS5HSFBLMPGRQT1P53N8147JNUJ,3L2IS5HSFBLMPGRQT1P53N8147JNUJ,268035,268035,,,,,,,,,,
,,,,4,12.933255,0,26,26,98,1,a fountain appears to emege with low height,a fountain appears to emerge with high height,rensink,Fountain,6,43,A2S64AUN7JI7ZS,2021-01-08_10h24.25.600,MetaAwareness,2020.1.2,Win32,60,30OITAWPBR6T98JI2QUZEOT3FY6H9R,A2S64AUN7JI7ZS,3L2IS5HSFBLMPGRQT1P53N8147JNUJ,SS2L5,SS2L5,3L2IS5HSFBLMPGRQT1P53N8147JNUJ,3L2IS5HSFBLMPGRQT1P53N8147JNUJ,268035,268035,,,,,,,,,,
,,,,3,7.20292,0,27,27,108,1,a person white water rafting while wearing a pink and black shirt,a person white water rafting while wearing a blue and black shirt,rensink,Kayak,1,43,A2S64AUN7JI7ZS,2021-01-08_10h24.25.600,MetaAwareness,2020.1.2,Win32,60,30OITAWPBR6T98JI2QUZEOT3FY6H9R,A2S64AUN7JI7ZS,3L2IS5HSFBLMPGRQT1P53N8147JNUJ,SS2L5,SS2L5,3L2IS5HSFBLMPGRQT1P53N8147JNUJ,3L2IS5HSFBLMPGRQT1P53N8147JNUJ,268035,268035,,,,,,,,,,
,,,,4,13.75187,0,28,28,3,1,a guerilla fighter holds a machine gun as a military jeep approaches through a tree-lined shadowy path,a guerilla figher hold a machine gun as a military jeep approaches through a tree-lined path with fewer shadows on it,rensink,Army,1,43,A2S64AUN7JI7ZS,2021-01-08_10h24.25.600,MetaAwareness,2020.1.2,Win32,60,30OITAWPBR6T98JI2QUZEOT3FY6H9R,A2S64AUN7JI7ZS,3L2IS5HSFBLMPGRQT1P53N8147JNUJ,SS2L5,SS2L5,3L2IS5HSFBLMPGRQT1P53N8147JNUJ,3L2IS5HSFBLMPGRQT1P53N8147JNUJ,268035,268035,,,,,,,,,,
,,,,2,6.19405,0,29,29,11,1,a scenic country road with a grass field in front of a white fence,a scenic country road with a dirt field in front of a white fence,rensink,BarnTrack,2,43,A2S64AUN7JI7ZS,2021-01-08_10h24.25.600,MetaAwareness,2020.1.2,Win32,60,30OITAWPBR6T98JI2QUZEOT3FY6H9R,A2S64AUN7JI7ZS,3L2IS5HSFBLMPGRQT1P53N8147JNUJ,SS2L5,SS2L5,3L2IS5HSFBLMPGRQT1P53N8147JNUJ,3L2IS5HSFBLMPGRQT1P53N8147JNUJ,268035,268035,,,,,,,,,,
,,,,,,,,,,,,,,,,43,A2S64AUN7JI7ZS,2021-01-08_10h24.25.600,MetaAwareness,2020.1.2,Win32,60,30OITAWPBR6T98JI2QUZEOT3FY6H9R,A2S64AUN7JI7ZS,3L2IS5HSFBLMPGRQT1P53N8147JNUJ,SS2L5,SS2L5,3L2IS5HSFBLMPGRQT1P53N8147JNUJ,3L2IS5HSFBLMPGRQT1P53N8147JNUJ,268035,268035,6,14.35438,someone laying underneath a blue beach umbrella on a crowded beach,someone laying underneath a blue beach umbrella on a crowded beach,same,1,8.11756,members of a marching band crossing a track that all have feather plumes at the front of their hats,a cluttered and rustic looking cafe with 10 hanging lights,different
