consent_response.keys,consent_response.rt,key_resp_2.keys,key_resp_2.rt,user_resp.keys,user_resp.rt,trials.thisRepN,trials.thisTrialN,trials.thisN,trials.thisIndex,trials.ran,image_1_text,image_2_text,database,image,number,age,worker_ID,date,expName,psychopyVersion,OS,frameRate,hitId,workerId,assignmentId,a,tp_a,b,tp_b,c,tp_c,catch_same_resp.keys,catch_same_resp.rt,image_1_text_catch_same,image_2_text_catch_same,image_catch_same,catch_different_resp.keys,catch_different_resp.rt,image_1_text_catch_different,image_2_text_catch_different,image_catch_different
space,4.14,space,4.498,4,12.25,0,0,0,64,1,"a meal of some kind of meat, potatoes, and vegetables sits on a red gingham table cloth  with a basket of bread, glass of wine, salt and pepper grinders, and silverware","a meal of some kind of meat, potatoes, and vegetables sits on a red gingham table cloth with a basket of bread, salt and pepper gringers, silverware, and a glass of wine further to the left and closer to the plate",rensink,Dinner,1,30,A3MZE10BTHBYAS,2021-01-08_15h24.00.762,MetaAwareness,2020.1.2,Win32,60,3MDKGGG61RQWWY8F4D8C8X5P0RVT64,A3MZE10BTHBYAS,3KJYX6QCMAEQJ5P5JT7I62T39V0JVF,CXJK5,CXJK5,3KJYX6QCMAEQJ5P5JT7I62T39V0JVF,3KJYX6QCMAEQJ5P5JT7I62T39V0JVF,268035,268035,,,,,,,,,,
,,,,5,5.797,0,1,1,86,1,a lot of junk being placed by machinery and a man wearing a green plaid shirt,a lot of junk being placed with machinery and a man wearing a bright green plaid shirt,rensink,Farmer,3,30,A3MZE10BTHBYAS,2021-01-08_15h24.00.762,MetaAwareness,2020.1.2,Win32,60,3MDKGGG61RQWWY8F4D8C8X5P0RVT64,A3MZE10BTHBYAS,3KJYX6QCMAEQJ5P5JT7I62T39V0JVF,CXJK5,CXJK5,3KJYX6QCMAEQJ5P5JT7I62T39V0JVF,3KJYX6QCMAEQJ5P5JT7I62T39V0JVF,268035,268035,,,,,,,,,,
,,,,6,3.151,0,2,2,58,1,there is a pilot flying a helicopter and there is a white helicopter directly to the righ of him in the sky.,there is a pilot flying a helicopter and there is a white helicopter directly top right of him in the sky.,rensink,Cockpit,2,30,A3MZE10BTHBYAS,2021-01-08_15h24.00.762,MetaAwareness,2020.1.2,Win32,60,3MDKGGG61RQWWY8F4D8C8X5P0RVT64,A3MZE10BTHBYAS,3KJYX6QCMAEQJ5P5JT7I62T39V0JVF,CXJK5,CXJK5,3KJYX6QCMAEQJ5P5JT7I62T39V0JVF,3KJYX6QCMAEQJ5P5JT7I62T39V0JVF,268035,268035,,,,,,,,,,
,,,,4,1.508,0,3,3,4,1,a soldier manning a gun on a tank looking at a street shaded by trees,a soldier manning a gun on a tank looking at a sunny spot on the street,rensink,Army,4,30,A3MZE10BTHBYAS,2021-01-08_15h24.00.762,MetaAwareness,2020.1.2,Win32,60,3MDKGGG61RQWWY8F4D8C8X5P0RVT64,A3MZE10BTHBYAS,3KJYX6QCMAEQJ5P5JT7I62T39V0JVF,CXJK5,CXJK5,3KJYX6QCMAEQJ5P5JT7I62T39V0JVF,3KJYX6QCMAEQJ5P5JT7I62T39V0JVF,268035,268035,,,,,,,,,,
,,,,5,1.238,0,4,4,172,1,people are relaxing on the lake. there are three boats,people are relaxing on the lake. there are two boats,rensink,SummerLake,6,30,A3MZE10BTHBYAS,2021-01-08_15h24.00.762,MetaAwareness,2020.1.2,Win32,60,3MDKGGG61RQWWY8F4D8C8X5P0RVT64,A3MZE10BTHBYAS,3KJYX6QCMAEQJ5P5JT7I62T39V0JVF,CXJK5,CXJK5,3KJYX6QCMAEQJ5P5JT7I62T39V0JVF,3KJYX6QCMAEQJ5P5JT7I62T39V0JVF,268035,268035,,,,,,,,,,
,,,,6,1.027,0,5,5,30,1,four men are on top of a truck loading boxes,three men are on top of a truck loading boxes,rensink,Bus,3,30,A3MZE10BTHBYAS,2021-01-08_15h24.00.762,MetaAwareness,2020.1.2,Win32,60,3MDKGGG61RQWWY8F4D8C8X5P0RVT64,A3MZE10BTHBYAS,3KJYX6QCMAEQJ5P5JT7I62T39V0JVF,CXJK5,CXJK5,3KJYX6QCMAEQJ5P5JT7I62T39V0JVF,3KJYX6QCMAEQJ5P5JT7I62T39V0JVF,268035,268035,,,,,,,,,,
,,,,4,1.185,0,6,6,165,1,4 army fatigue soliders riding in the back of a army truck.,3 army fatifue soliders riding in the back of a army truck.,rensink,Soldiers,7,30,A3MZE10BTHBYAS,2021-01-08_15h24.00.762,MetaAwareness,2020.1.2,Win32,60,3MDKGGG61RQWWY8F4D8C8X5P0RVT64,A3MZE10BTHBYAS,3KJYX6QCMAEQJ5P5JT7I62T39V0JVF,CXJK5,CXJK5,3KJYX6QCMAEQJ5P5JT7I62T39V0JVF,3KJYX6QCMAEQJ5P5JT7I62T39V0JVF,268035,268035,,,,,,,,,,
,,,,3,1.296,0,7,7,133,1,3 men on a boat holding a fish with a yellow chair in front of them,3 men on a boat holding a fish with no yellow chair in front of them,rensink,Marling,4,30,A3MZE10BTHBYAS,2021-01-08_15h24.00.762,MetaAwareness,2020.1.2,Win32,60,3MDKGGG61RQWWY8F4D8C8X5P0RVT64,A3MZE10BTHBYAS,3KJYX6QCMAEQJ5P5JT7I62T39V0JVF,CXJK5,CXJK5,3KJYX6QCMAEQJ5P5JT7I62T39V0JVF,3KJYX6QCMAEQJ5P5JT7I62T39V0JVF,268035,268035,,,,,,,,,,
,,,,4,0.951,0,8,8,53,1,a military plane that has a cord hanging down that looks attached to the truck driving in the grass below-  the shadow of the plane can be seen in the grass,a military plane that has a cord hanging down that looks attached to the truck driving in the grass but in this picture the shadow can only be seen of the truck,rensink,Chopper,3,30,A3MZE10BTHBYAS,2021-01-08_15h24.00.762,MetaAwareness,2020.1.2,Win32,60,3MDKGGG61RQWWY8F4D8C8X5P0RVT64,A3MZE10BTHBYAS,3KJYX6QCMAEQJ5P5JT7I62T39V0JVF,CXJK5,CXJK5,3KJYX6QCMAEQJ5P5JT7I62T39V0JVF,3KJYX6QCMAEQJ5P5JT7I62T39V0JVF,268035,268035,,,,,,,,,,
,,,,5,1.156,0,9,9,10,1,a building in a beautiful meadow that's painted red.,a building in a beautiful meadow that's paited green.,rensink,Barns,7,30,A3MZE10BTHBYAS,2021-01-08_15h24.00.762,MetaAwareness,2020.1.2,Win32,60,3MDKGGG61RQWWY8F4D8C8X5P0RVT64,A3MZE10BTHBYAS,3KJYX6QCMAEQJ5P5JT7I62T39V0JVF,CXJK5,CXJK5,3KJYX6QCMAEQJ5P5JT7I62T39V0JVF,3KJYX6QCMAEQJ5P5JT7I62T39V0JVF,268035,268035,,,,,,,,,,
,,,,6,1.107,0,10,10,148,1,the  sea animal moveing,the sea animal movie aways,rensink,OtherDiver,1,30,A3MZE10BTHBYAS,2021-01-08_15h24.00.762,MetaAwareness,2020.1.2,Win32,60,3MDKGGG61RQWWY8F4D8C8X5P0RVT64,A3MZE10BTHBYAS,3KJYX6QCMAEQJ5P5JT7I62T39V0JVF,CXJK5,CXJK5,3KJYX6QCMAEQJ5P5JT7I62T39V0JVF,3KJYX6QCMAEQJ5P5JT7I62T39V0JVF,268035,268035,,,,,,,,,,
,,,,6,2.552,0,11,11,89,1,a man in a dark green checkered shirt working at a constuction site,a man in an emerald green checkered shirt working at a construction site,rensink,Farmer,6,30,A3MZE10BTHBYAS,2021-01-08_15h24.00.762,MetaAwareness,2020.1.2,Win32,60,3MDKGGG61RQWWY8F4D8C8X5P0RVT64,A3MZE10BTHBYAS,3KJYX6QCMAEQJ5P5JT7I62T39V0JVF,CXJK5,CXJK5,3KJYX6QCMAEQJ5P5JT7I62T39V0JVF,3KJYX6QCMAEQJ5P5JT7I62T39V0JVF,268035,268035,,,,,,,,,,
,,,,4,1.161,0,12,12,152,1,a diver in the sea with blurry images beneath the sea,a diver in the sea wih no image beneath the sea,rensink,OtherDiver,7,30,A3MZE10BTHBYAS,2021-01-08_15h24.00.762,MetaAwareness,2020.1.2,Win32,60,3MDKGGG61RQWWY8F4D8C8X5P0RVT64,A3MZE10BTHBYAS,3KJYX6QCMAEQJ5P5JT7I62T39V0JVF,CXJK5,CXJK5,3KJYX6QCMAEQJ5P5JT7I62T39V0JVF,3KJYX6QCMAEQJ5P5JT7I62T39V0JVF,268035,268035,,,,,,,,,,
,,,,3,1.025,0,13,13,76,1,an ancient egyptian sculpture of a pharoah in front of pillars,an ancient egyptian sculpture of a pharoah with a large gap between pillars,rensink,Egypt,4,30,A3MZE10BTHBYAS,2021-01-08_15h24.00.762,MetaAwareness,2020.1.2,Win32,60,3MDKGGG61RQWWY8F4D8C8X5P0RVT64,A3MZE10BTHBYAS,3KJYX6QCMAEQJ5P5JT7I62T39V0JVF,CXJK5,CXJK5,3KJYX6QCMAEQJ5P5JT7I62T39V0JVF,3KJYX6QCMAEQJ5P5JT7I62T39V0JVF,268035,268035,,,,,,,,,,
,,,,5,1.159,0,14,14,154,1,three pilots standing in front of a helicoper that is in front of a grey building,three pilots standing in front of a helicopter that is in front of a yellow building,rensink,Pilots,2,30,A3MZE10BTHBYAS,2021-01-08_15h24.00.762,MetaAwareness,2020.1.2,Win32,60,3MDKGGG61RQWWY8F4D8C8X5P0RVT64,A3MZE10BTHBYAS,3KJYX6QCMAEQJ5P5JT7I62T39V0JVF,CXJK5,CXJK5,3KJYX6QCMAEQJ5P5JT7I62T39V0JVF,3KJYX6QCMAEQJ5P5JT7I62T39V0JVF,268035,268035,,,,,,,,,,
,,,,6,1.12,0,15,15,73,1,tourists visit an ancient statue in a desert surrounded by old  stone structures,tourists visit ancient statue that is further to the left of the stone structures around it,rensink,Egypt,1,30,A3MZE10BTHBYAS,2021-01-08_15h24.00.762,MetaAwareness,2020.1.2,Win32,60,3MDKGGG61RQWWY8F4D8C8X5P0RVT64,A3MZE10BTHBYAS,3KJYX6QCMAEQJ5P5JT7I62T39V0JVF,CXJK5,CXJK5,3KJYX6QCMAEQJ5P5JT7I62T39V0JVF,3KJYX6QCMAEQJ5P5JT7I62T39V0JVF,268035,268035,,,,,,,,,,
,,,,2,0.88,0,16,16,138,1,a building with with 2 big pillars on it,a building with only a pillar on it,rensink,Mosque,8,30,A3MZE10BTHBYAS,2021-01-08_15h24.00.762,MetaAwareness,2020.1.2,Win32,60,3MDKGGG61RQWWY8F4D8C8X5P0RVT64,A3MZE10BTHBYAS,3KJYX6QCMAEQJ5P5JT7I62T39V0JVF,CXJK5,CXJK5,3KJYX6QCMAEQJ5P5JT7I62T39V0JVF,3KJYX6QCMAEQJ5P5JT7I62T39V0JVF,268035,268035,,,,,,,,,,
,,,,3,1.124,0,17,17,181,1,an old looking window overlooking a field with something that looks like a log amongst leaves on the bottom left,an old-looking window overlooking a field with some leaves on the ledge but no log on the bottom left,rensink,Window,1,30,A3MZE10BTHBYAS,2021-01-08_15h24.00.762,MetaAwareness,2020.1.2,Win32,60,3MDKGGG61RQWWY8F4D8C8X5P0RVT64,A3MZE10BTHBYAS,3KJYX6QCMAEQJ5P5JT7I62T39V0JVF,CXJK5,CXJK5,3KJYX6QCMAEQJ5P5JT7I62T39V0JVF,3KJYX6QCMAEQJ5P5JT7I62T39V0JVF,268035,268035,,,,,,,,,,
,,,,4,1.111,0,18,18,21,1,a blue boat overturned on a rocky shore,a green boat overturned on a rocky shore,rensink,Beach,5,30,A3MZE10BTHBYAS,2021-01-08_15h24.00.762,MetaAwareness,2020.1.2,Win32,60,3MDKGGG61RQWWY8F4D8C8X5P0RVT64,A3MZE10BTHBYAS,3KJYX6QCMAEQJ5P5JT7I62T39V0JVF,CXJK5,CXJK5,3KJYX6QCMAEQJ5P5JT7I62T39V0JVF,3KJYX6QCMAEQJ5P5JT7I62T39V0JVF,268035,268035,,,,,,,,,,
,,,,5,1.074,0,19,19,45,1,"large homes are pictured in front of the marina, the homes are reflected in the water","large homes are pictured in front of the marina, the water is clear and blue",rensink,CanalBridge,6,30,A3MZE10BTHBYAS,2021-01-08_15h24.00.762,MetaAwareness,2020.1.2,Win32,60,3MDKGGG61RQWWY8F4D8C8X5P0RVT64,A3MZE10BTHBYAS,3KJYX6QCMAEQJ5P5JT7I62T39V0JVF,CXJK5,CXJK5,3KJYX6QCMAEQJ5P5JT7I62T39V0JVF,3KJYX6QCMAEQJ5P5JT7I62T39V0JVF,268035,268035,,,,,,,,,,
,,,,6,1.077,0,20,20,120,1,children sitting outside facing eachother with one child sitting in a yellow chair,children sitting outside facing eachother with one child sitting in a pink chair,rensink,Kids,8,30,A3MZE10BTHBYAS,2021-01-08_15h24.00.762,MetaAwareness,2020.1.2,Win32,60,3MDKGGG61RQWWY8F4D8C8X5P0RVT64,A3MZE10BTHBYAS,3KJYX6QCMAEQJ5P5JT7I62T39V0JVF,CXJK5,CXJK5,3KJYX6QCMAEQJ5P5JT7I62T39V0JVF,3KJYX6QCMAEQJ5P5JT7I62T39V0JVF,268035,268035,,,,,,,,,,
,,,,6,1.122,0,21,21,167,1,there is  a ceiling in the station,there is no ceiling  in the station,rensink,Station,4,30,A3MZE10BTHBYAS,2021-01-08_15h24.00.762,MetaAwareness,2020.1.2,Win32,60,3MDKGGG61RQWWY8F4D8C8X5P0RVT64,A3MZE10BTHBYAS,3KJYX6QCMAEQJ5P5JT7I62T39V0JVF,CXJK5,CXJK5,3KJYX6QCMAEQJ5P5JT7I62T39V0JVF,3KJYX6QCMAEQJ5P5JT7I62T39V0JVF,268035,268035,,,,,,,,,,
,,,,5,0.97,0,22,22,20,1,a blue boat was landed downwards on the seashore,a green boat was landed downwards on the seashore,rensink,Beach,4,30,A3MZE10BTHBYAS,2021-01-08_15h24.00.762,MetaAwareness,2020.1.2,Win32,60,3MDKGGG61RQWWY8F4D8C8X5P0RVT64,A3MZE10BTHBYAS,3KJYX6QCMAEQJ5P5JT7I62T39V0JVF,CXJK5,CXJK5,3KJYX6QCMAEQJ5P5JT7I62T39V0JVF,3KJYX6QCMAEQJ5P5JT7I62T39V0JVF,268035,268035,,,,,,,,,,
,,,,6,0.902,0,23,23,185,1,"painting of a scene that features a old light, leaves and a canteen with a view outside of a window","painting of a scene that features a old light, leaves, but no canteen with a view outside of a window",rensink,Window,6,30,A3MZE10BTHBYAS,2021-01-08_15h24.00.762,MetaAwareness,2020.1.2,Win32,60,3MDKGGG61RQWWY8F4D8C8X5P0RVT64,A3MZE10BTHBYAS,3KJYX6QCMAEQJ5P5JT7I62T39V0JVF,CXJK5,CXJK5,3KJYX6QCMAEQJ5P5JT7I62T39V0JVF,3KJYX6QCMAEQJ5P5JT7I62T39V0JVF,268035,268035,,,,,,,,,,
,,,,5,0.613,0,24,24,140,1,"a crowd of people walk on the sidewalk, a cathedral is pictured in the distance on the next street over","a crowd of people walk onthe sidewalk, a cathedral is pictured in the distance n the same street",rensink,NotreDame,5,30,A3MZE10BTHBYAS,2021-01-08_15h24.00.762,MetaAwareness,2020.1.2,Win32,60,3MDKGGG61RQWWY8F4D8C8X5P0RVT64,A3MZE10BTHBYAS,3KJYX6QCMAEQJ5P5JT7I62T39V0JVF,CXJK5,CXJK5,3KJYX6QCMAEQJ5P5JT7I62T39V0JVF,3KJYX6QCMAEQJ5P5JT7I62T39V0JVF,268035,268035,,,,,,,,,,
,,,,6,1.589,0,25,25,9,1,a country side setting with a red barn,a country side setting with a green barn,rensink,Barns,5,30,A3MZE10BTHBYAS,2021-01-08_15h24.00.762,MetaAwareness,2020.1.2,Win32,60,3MDKGGG61RQWWY8F4D8C8X5P0RVT64,A3MZE10BTHBYAS,3KJYX6QCMAEQJ5P5JT7I62T39V0JVF,CXJK5,CXJK5,3KJYX6QCMAEQJ5P5JT7I62T39V0JVF,3KJYX6QCMAEQJ5P5JT7I62T39V0JVF,268035,268035,,,,,,,,,,
,,,,4,0.691,0,26,26,163,1,4 soldiers in the back of a truck looking at people on the street,3 soldiers in the back of a truck looking at people on the street,rensink,Soldiers,5,30,A3MZE10BTHBYAS,2021-01-08_15h24.00.762,MetaAwareness,2020.1.2,Win32,60,3MDKGGG61RQWWY8F4D8C8X5P0RVT64,A3MZE10BTHBYAS,3KJYX6QCMAEQJ5P5JT7I62T39V0JVF,CXJK5,CXJK5,3KJYX6QCMAEQJ5P5JT7I62T39V0JVF,3KJYX6QCMAEQJ5P5JT7I62T39V0JVF,268035,268035,,,,,,,,,,
,,,,5,1.412,0,27,27,91,1,a man fishing in a river with long shoals of sand around him.,a man fishing in a river with smaller shoals of sand around him,rensink,Fishing,2,30,A3MZE10BTHBYAS,2021-01-08_15h24.00.762,MetaAwareness,2020.1.2,Win32,60,3MDKGGG61RQWWY8F4D8C8X5P0RVT64,A3MZE10BTHBYAS,3KJYX6QCMAEQJ5P5JT7I62T39V0JVF,CXJK5,CXJK5,3KJYX6QCMAEQJ5P5JT7I62T39V0JVF,3KJYX6QCMAEQJ5P5JT7I62T39V0JVF,268035,268035,,,,,,,,,,
,,,,6,0.962,0,28,28,147,1,side of an egyptian temple with statues and a cluster of trees inthe background,side of an egyptian temple with statues and low-lying buildings in the background,rensink,Obelisk,4,30,A3MZE10BTHBYAS,2021-01-08_15h24.00.762,MetaAwareness,2020.1.2,Win32,60,3MDKGGG61RQWWY8F4D8C8X5P0RVT64,A3MZE10BTHBYAS,3KJYX6QCMAEQJ5P5JT7I62T39V0JVF,CXJK5,CXJK5,3KJYX6QCMAEQJ5P5JT7I62T39V0JVF,3KJYX6QCMAEQJ5P5JT7I62T39V0JVF,268035,268035,,,,,,,,,,
,,,,4,0.647,0,29,29,79,1,people are standing outside of an old egyptian temple with a sculpture in front,people are observing an ancient egyptian pyramid with a sculpture statue outside,rensink,Egypt,7,30,A3MZE10BTHBYAS,2021-01-08_15h24.00.762,MetaAwareness,2020.1.2,Win32,60,3MDKGGG61RQWWY8F4D8C8X5P0RVT64,A3MZE10BTHBYAS,3KJYX6QCMAEQJ5P5JT7I62T39V0JVF,CXJK5,CXJK5,3KJYX6QCMAEQJ5P5JT7I62T39V0JVF,3KJYX6QCMAEQJ5P5JT7I62T39V0JVF,268035,268035,,,,,,,,,,
,,,,,,,,,,,,,,,,30,A3MZE10BTHBYAS,2021-01-08_15h24.00.762,MetaAwareness,2020.1.2,Win32,60,3MDKGGG61RQWWY8F4D8C8X5P0RVT64,A3MZE10BTHBYAS,3KJYX6QCMAEQJ5P5JT7I62T39V0JVF,CXJK5,CXJK5,3KJYX6QCMAEQJ5P5JT7I62T39V0JVF,3KJYX6QCMAEQJ5P5JT7I62T39V0JVF,268035,268035,5,1.017,someone laying underneath a blue beach umbrella on a crowded beach,someone laying underneath a blue beach umbrella on a crowded beach,same,6,0.791,members of a marching band crossing a track that all have feather plumes at the front of their hats,a cluttered and rustic looking cafe with 10 hanging lights,different
