consent_response.keys,consent_response.rt,key_resp_2.keys,key_resp_2.rt,user_resp.keys,user_resp.rt,trials.thisRepN,trials.thisTrialN,trials.thisN,trials.thisIndex,trials.ran,image_1_text,image_2_text,database,image,number,age,worker_ID,date,expName,psychopyVersion,OS,frameRate,hitId,workerId,assignmentId,a,tp_a,b,tp_b,c,tp_c,catch_same_resp.keys,catch_same_resp.rt,image_1_text_catch_same,image_2_text_catch_same,image_catch_same,catch_different_resp.keys,catch_different_resp.rt,image_1_text_catch_different,image_2_text_catch_different,image_catch_different
space,6.3566,space,0.83757,6,17.370615,0,0,0,28,1,a group of people on a small boat almost at shore.,a group of people on a small boat slightly further away from shore.,rensink,Boat,6,29,ALKF763KECU1H,2021-01-08_13h23.23.123,MetaAwareness,2020.1.2,Win32,60,30OITAWPBR6T98JI2QUZEOT3FY6H9R,ALKF763KECU1H,3L0KT67Y8FJ0M230BY3G52OKNU2SYY,YT0L5,YT0L5,3L0KT67Y8FJ0M230BY3G52OKNU2SYY,3L0KT67Y8FJ0M230BY3G52OKNU2SYY,268035,268035,,,,,,,,,,
,,,,4,3.31438,0,1,1,78,1,people are looking at a statue that is partially covering a door,people look at a statue that is between two doors,rensink,Egypt,6,29,ALKF763KECU1H,2021-01-08_13h23.23.123,MetaAwareness,2020.1.2,Win32,60,30OITAWPBR6T98JI2QUZEOT3FY6H9R,ALKF763KECU1H,3L0KT67Y8FJ0M230BY3G52OKNU2SYY,YT0L5,YT0L5,3L0KT67Y8FJ0M230BY3G52OKNU2SYY,3L0KT67Y8FJ0M230BY3G52OKNU2SYY,268035,268035,,,,,,,,,,
,,,,5,1.293175,0,2,2,88,1,a man in a light green plaid shirt is helping a forklifter work,a man in a bright green plaid shirt is helping a forklifter work,rensink,Farmer,5,29,ALKF763KECU1H,2021-01-08_13h23.23.123,MetaAwareness,2020.1.2,Win32,60,30OITAWPBR6T98JI2QUZEOT3FY6H9R,ALKF763KECU1H,3L0KT67Y8FJ0M230BY3G52OKNU2SYY,YT0L5,YT0L5,3L0KT67Y8FJ0M230BY3G52OKNU2SYY,3L0KT67Y8FJ0M230BY3G52OKNU2SYY,268035,268035,,,,,,,,,,
,,,,4,1.07381,0,3,3,60,1,a lower flying helicopter as viewed by a pilot in another helicopter,a higher flying helicopter as viewed by a pilot in another helicopter,rensink,Cockpit,4,29,ALKF763KECU1H,2021-01-08_13h23.23.123,MetaAwareness,2020.1.2,Win32,60,30OITAWPBR6T98JI2QUZEOT3FY6H9R,ALKF763KECU1H,3L0KT67Y8FJ0M230BY3G52OKNU2SYY,YT0L5,YT0L5,3L0KT67Y8FJ0M230BY3G52OKNU2SYY,3L0KT67Y8FJ0M230BY3G52OKNU2SYY,268035,268035,,,,,,,,,,
,,,,6,1.65165,0,4,4,185,1,"painting of a scene that features a old light, leaves and a canteen with a view outside of a window","painting of a scene that features a old light, leaves, but no canteen with a view outside of a window",rensink,Window,6,29,ALKF763KECU1H,2021-01-08_13h23.23.123,MetaAwareness,2020.1.2,Win32,60,30OITAWPBR6T98JI2QUZEOT3FY6H9R,ALKF763KECU1H,3L0KT67Y8FJ0M230BY3G52OKNU2SYY,YT0L5,YT0L5,3L0KT67Y8FJ0M230BY3G52OKNU2SYY,3L0KT67Y8FJ0M230BY3G52OKNU2SYY,268035,268035,,,,,,,,,,
,,,,3,1.11766,0,5,5,2,1,a man in a blue shirt sitting on a cart being dragged by a horse,a man in a pink shirt sitting on a cart being dragged by a horse,rensink,Amish,3,29,ALKF763KECU1H,2021-01-08_13h23.23.123,MetaAwareness,2020.1.2,Win32,60,30OITAWPBR6T98JI2QUZEOT3FY6H9R,ALKF763KECU1H,3L0KT67Y8FJ0M230BY3G52OKNU2SYY,YT0L5,YT0L5,3L0KT67Y8FJ0M230BY3G52OKNU2SYY,3L0KT67Y8FJ0M230BY3G52OKNU2SYY,268035,268035,,,,,,,,,,
,,,,4,2.3384,0,6,6,37,1,an outdoor view of a lake with a ship in it,an outdoor view of a lake with a small boat in it,rensink,Cactus,7,29,ALKF763KECU1H,2021-01-08_13h23.23.123,MetaAwareness,2020.1.2,Win32,60,30OITAWPBR6T98JI2QUZEOT3FY6H9R,ALKF763KECU1H,3L0KT67Y8FJ0M230BY3G52OKNU2SYY,YT0L5,YT0L5,3L0KT67Y8FJ0M230BY3G52OKNU2SYY,3L0KT67Y8FJ0M230BY3G52OKNU2SYY,268035,268035,,,,,,,,,,
,,,,4,1.07753,0,7,7,116,1,th baby sitting chair is yellow color,th baby sitting chair is pink color,rensink,Kids,2,29,ALKF763KECU1H,2021-01-08_13h23.23.123,MetaAwareness,2020.1.2,Win32,60,30OITAWPBR6T98JI2QUZEOT3FY6H9R,ALKF763KECU1H,3L0KT67Y8FJ0M230BY3G52OKNU2SYY,YT0L5,YT0L5,3L0KT67Y8FJ0M230BY3G52OKNU2SYY,3L0KT67Y8FJ0M230BY3G52OKNU2SYY,268035,268035,,,,,,,,,,
,,,,5,1.75555,0,8,8,58,1,there is a pilot flying a helicopter and there is a white helicopter directly to the righ of him in the sky.,there is a pilot flying a helicopter and there is a white helicopter directly top right of him in the sky.,rensink,Cockpit,2,29,ALKF763KECU1H,2021-01-08_13h23.23.123,MetaAwareness,2020.1.2,Win32,60,30OITAWPBR6T98JI2QUZEOT3FY6H9R,ALKF763KECU1H,3L0KT67Y8FJ0M230BY3G52OKNU2SYY,YT0L5,YT0L5,3L0KT67Y8FJ0M230BY3G52OKNU2SYY,3L0KT67Y8FJ0M230BY3G52OKNU2SYY,268035,268035,,,,,,,,,,
,,,,5,0.029675,0,9,9,129,1,a man at a market wearing blue jean pants.,a man at a market wearing tan jean pants.,rensink,Market,5,29,ALKF763KECU1H,2021-01-08_13h23.23.123,MetaAwareness,2020.1.2,Win32,60,30OITAWPBR6T98JI2QUZEOT3FY6H9R,ALKF763KECU1H,3L0KT67Y8FJ0M230BY3G52OKNU2SYY,YT0L5,YT0L5,3L0KT67Y8FJ0M230BY3G52OKNU2SYY,3L0KT67Y8FJ0M230BY3G52OKNU2SYY,268035,268035,,,,,,,,,,
,,,,6,6.702915,0,10,10,136,1,a temple with three spires,a temple with two spires,rensink,Mosque,3,29,ALKF763KECU1H,2021-01-08_13h23.23.123,MetaAwareness,2020.1.2,Win32,60,30OITAWPBR6T98JI2QUZEOT3FY6H9R,ALKF763KECU1H,3L0KT67Y8FJ0M230BY3G52OKNU2SYY,YT0L5,YT0L5,3L0KT67Y8FJ0M230BY3G52OKNU2SYY,3L0KT67Y8FJ0M230BY3G52OKNU2SYY,268035,268035,,,,,,,,,,
,,,,6,3.11481,0,11,11,189,1,"a table with a wine glass and cheese, fruit and bread",a table with a wine glass with only fruit and bread,rensink,Wine,6,29,ALKF763KECU1H,2021-01-08_13h23.23.123,MetaAwareness,2020.1.2,Win32,60,30OITAWPBR6T98JI2QUZEOT3FY6H9R,ALKF763KECU1H,3L0KT67Y8FJ0M230BY3G52OKNU2SYY,YT0L5,YT0L5,3L0KT67Y8FJ0M230BY3G52OKNU2SYY,3L0KT67Y8FJ0M230BY3G52OKNU2SYY,268035,268035,,,,,,,,,,
,,,,5,2.802215,0,12,12,171,1,there are two boats and some people at the river.,there is one boat and some people at the river.,rensink,SummerLake,5,29,ALKF763KECU1H,2021-01-08_13h23.23.123,MetaAwareness,2020.1.2,Win32,60,30OITAWPBR6T98JI2QUZEOT3FY6H9R,ALKF763KECU1H,3L0KT67Y8FJ0M230BY3G52OKNU2SYY,YT0L5,YT0L5,3L0KT67Y8FJ0M230BY3G52OKNU2SYY,3L0KT67Y8FJ0M230BY3G52OKNU2SYY,268035,268035,,,,,,,,,,
,,,,3,2.656525,0,13,13,187,1,a spread of food and wine with  giant wedge of swiss cheese,a spread of food and wine with no cheese,rensink,Wine,2,29,ALKF763KECU1H,2021-01-08_13h23.23.123,MetaAwareness,2020.1.2,Win32,60,30OITAWPBR6T98JI2QUZEOT3FY6H9R,ALKF763KECU1H,3L0KT67Y8FJ0M230BY3G52OKNU2SYY,YT0L5,YT0L5,3L0KT67Y8FJ0M230BY3G52OKNU2SYY,3L0KT67Y8FJ0M230BY3G52OKNU2SYY,268035,268035,,,,,,,,,,
,,,,4,1.069305,0,14,14,126,1,the man wear the blue colour pant,the man wear the light brown colour pant,rensink,Market,1,29,ALKF763KECU1H,2021-01-08_13h23.23.123,MetaAwareness,2020.1.2,Win32,60,30OITAWPBR6T98JI2QUZEOT3FY6H9R,ALKF763KECU1H,3L0KT67Y8FJ0M230BY3G52OKNU2SYY,YT0L5,YT0L5,3L0KT67Y8FJ0M230BY3G52OKNU2SYY,3L0KT67Y8FJ0M230BY3G52OKNU2SYY,268035,268035,,,,,,,,,,
,,,,4,1.52221,0,15,15,63,1,three people in costumes standing next to a while light,three people in costumes standing next to a yellow light,rensink,Description,4,29,ALKF763KECU1H,2021-01-08_13h23.23.123,MetaAwareness,2020.1.2,Win32,60,30OITAWPBR6T98JI2QUZEOT3FY6H9R,ALKF763KECU1H,3L0KT67Y8FJ0M230BY3G52OKNU2SYY,YT0L5,YT0L5,3L0KT67Y8FJ0M230BY3G52OKNU2SYY,3L0KT67Y8FJ0M230BY3G52OKNU2SYY,268035,268035,,,,,,,,,,
,,,,5,1.737515,0,16,16,44,1,theres water with a hint of algae a few boats docked many people in the background there's a few cars and buildings as well,"water a few boats to the side buildings, cars, and people in the background as well as a light pole",rensink,CanalBridge,4,29,ALKF763KECU1H,2021-01-08_13h23.23.123,MetaAwareness,2020.1.2,Win32,60,30OITAWPBR6T98JI2QUZEOT3FY6H9R,ALKF763KECU1H,3L0KT67Y8FJ0M230BY3G52OKNU2SYY,YT0L5,YT0L5,3L0KT67Y8FJ0M230BY3G52OKNU2SYY,3L0KT67Y8FJ0M230BY3G52OKNU2SYY,268035,268035,,,,,,,,,,
,,,,6,4.31999,0,17,17,85,1,a construction sight with a man holding a box in a dim green shirt,a construction site with a man holding a box with a bright green shirt,rensink,Farmer,2,29,ALKF763KECU1H,2021-01-08_13h23.23.123,MetaAwareness,2020.1.2,Win32,60,30OITAWPBR6T98JI2QUZEOT3FY6H9R,ALKF763KECU1H,3L0KT67Y8FJ0M230BY3G52OKNU2SYY,YT0L5,YT0L5,3L0KT67Y8FJ0M230BY3G52OKNU2SYY,3L0KT67Y8FJ0M230BY3G52OKNU2SYY,268035,268035,,,,,,,,,,
,,,,3,4.051605,0,18,18,77,1,tourists watching a very tall egypt statue which stands between two columns,tourists watching a very tall egypt statue which stands next to one column,rensink,Egypt,5,29,ALKF763KECU1H,2021-01-08_13h23.23.123,MetaAwareness,2020.1.2,Win32,60,30OITAWPBR6T98JI2QUZEOT3FY6H9R,ALKF763KECU1H,3L0KT67Y8FJ0M230BY3G52OKNU2SYY,YT0L5,YT0L5,3L0KT67Y8FJ0M230BY3G52OKNU2SYY,3L0KT67Y8FJ0M230BY3G52OKNU2SYY,268035,268035,,,,,,,,,,
,,,,4,0.868775,0,19,19,56,1,a field with a helicoptor hovering over a vehicle with a wide shadow,a field with a helicoptor hovering over a vehicle with a short shadow,rensink,Chopper,6,29,ALKF763KECU1H,2021-01-08_13h23.23.123,MetaAwareness,2020.1.2,Win32,60,30OITAWPBR6T98JI2QUZEOT3FY6H9R,ALKF763KECU1H,3L0KT67Y8FJ0M230BY3G52OKNU2SYY,YT0L5,YT0L5,3L0KT67Y8FJ0M230BY3G52OKNU2SYY,3L0KT67Y8FJ0M230BY3G52OKNU2SYY,268035,268035,,,,,,,,,,
,,,,5,1.080555,0,20,20,6,1,a military person pointing a gun at a jeep and a shadow on the road,a military person pointing a gun at a jeep and a sunny spot on the road,rensink,Army,7,29,ALKF763KECU1H,2021-01-08_13h23.23.123,MetaAwareness,2020.1.2,Win32,60,30OITAWPBR6T98JI2QUZEOT3FY6H9R,ALKF763KECU1H,3L0KT67Y8FJ0M230BY3G52OKNU2SYY,YT0L5,YT0L5,3L0KT67Y8FJ0M230BY3G52OKNU2SYY,3L0KT67Y8FJ0M230BY3G52OKNU2SYY,268035,268035,,,,,,,,,,
,,,,6,1.25499,0,21,21,80,1,egyptian statue in front of temple entrance,egyptian statue to the side of temple entrance,rensink,Egypt,9,29,ALKF763KECU1H,2021-01-08_13h23.23.123,MetaAwareness,2020.1.2,Win32,60,30OITAWPBR6T98JI2QUZEOT3FY6H9R,ALKF763KECU1H,3L0KT67Y8FJ0M230BY3G52OKNU2SYY,YT0L5,YT0L5,3L0KT67Y8FJ0M230BY3G52OKNU2SYY,3L0KT67Y8FJ0M230BY3G52OKNU2SYY,268035,268035,,,,,,,,,,
,,,,4,2.36741,0,22,22,48,1,a big castle which has half of its front door hidden by a wall,a big castle which has most of its front door hidden by a wall,rensink,Castle,2,29,ALKF763KECU1H,2021-01-08_13h23.23.123,MetaAwareness,2020.1.2,Win32,60,30OITAWPBR6T98JI2QUZEOT3FY6H9R,ALKF763KECU1H,3L0KT67Y8FJ0M230BY3G52OKNU2SYY,YT0L5,YT0L5,3L0KT67Y8FJ0M230BY3G52OKNU2SYY,3L0KT67Y8FJ0M230BY3G52OKNU2SYY,268035,268035,,,,,,,,,,
,,,,5,4.158515,0,23,23,143,1,it is a white colour wall,it is a orane colour wall,rensink,Nurses,4,29,ALKF763KECU1H,2021-01-08_13h23.23.123,MetaAwareness,2020.1.2,Win32,60,30OITAWPBR6T98JI2QUZEOT3FY6H9R,ALKF763KECU1H,3L0KT67Y8FJ0M230BY3G52OKNU2SYY,YT0L5,YT0L5,3L0KT67Y8FJ0M230BY3G52OKNU2SYY,3L0KT67Y8FJ0M230BY3G52OKNU2SYY,268035,268035,,,,,,,,,,
,,,,4,1.073955,0,24,24,8,1,a red barn sits in a cluster of buildings in a field,a green barn sits in a cluster of buildings in a field,rensink,Barns,4,29,ALKF763KECU1H,2021-01-08_13h23.23.123,MetaAwareness,2020.1.2,Win32,60,30OITAWPBR6T98JI2QUZEOT3FY6H9R,ALKF763KECU1H,3L0KT67Y8FJ0M230BY3G52OKNU2SYY,YT0L5,YT0L5,3L0KT67Y8FJ0M230BY3G52OKNU2SYY,3L0KT67Y8FJ0M230BY3G52OKNU2SYY,268035,268035,,,,,,,,,,
,,,,5,0.371445,0,25,25,134,1,a middle eastern city scene with three turrets,a middle eastern city scene with two turrets,rensink,Mosque,1,29,ALKF763KECU1H,2021-01-08_13h23.23.123,MetaAwareness,2020.1.2,Win32,60,30OITAWPBR6T98JI2QUZEOT3FY6H9R,ALKF763KECU1H,3L0KT67Y8FJ0M230BY3G52OKNU2SYY,YT0L5,YT0L5,3L0KT67Y8FJ0M230BY3G52OKNU2SYY,3L0KT67Y8FJ0M230BY3G52OKNU2SYY,268035,268035,,,,,,,,,,
,,,,4,1.4898,0,26,26,166,1,a train station with additional structures on the far end,just a train station with people on it,rensink,Station,3,29,ALKF763KECU1H,2021-01-08_13h23.23.123,MetaAwareness,2020.1.2,Win32,60,30OITAWPBR6T98JI2QUZEOT3FY6H9R,ALKF763KECU1H,3L0KT67Y8FJ0M230BY3G52OKNU2SYY,YT0L5,YT0L5,3L0KT67Y8FJ0M230BY3G52OKNU2SYY,3L0KT67Y8FJ0M230BY3G52OKNU2SYY,268035,268035,,,,,,,,,,
,,,,3,1.052675,0,27,27,47,1,the fort  window  show the full,the fort window is show off,rensink,Castle,1,29,ALKF763KECU1H,2021-01-08_13h23.23.123,MetaAwareness,2020.1.2,Win32,60,30OITAWPBR6T98JI2QUZEOT3FY6H9R,ALKF763KECU1H,3L0KT67Y8FJ0M230BY3G52OKNU2SYY,YT0L5,YT0L5,3L0KT67Y8FJ0M230BY3G52OKNU2SYY,3L0KT67Y8FJ0M230BY3G52OKNU2SYY,268035,268035,,,,,,,,,,
,,,,5,1.918905,0,28,28,170,1,the wooden boat near white boat,the whie boat don't near wooden boat,rensink,SummerLake,1,29,ALKF763KECU1H,2021-01-08_13h23.23.123,MetaAwareness,2020.1.2,Win32,60,30OITAWPBR6T98JI2QUZEOT3FY6H9R,ALKF763KECU1H,3L0KT67Y8FJ0M230BY3G52OKNU2SYY,YT0L5,YT0L5,3L0KT67Y8FJ0M230BY3G52OKNU2SYY,3L0KT67Y8FJ0M230BY3G52OKNU2SYY,268035,268035,,,,,,,,,,
,,,,4,1.24151,0,29,29,147,1,side of an egyptian temple with statues and a cluster of trees inthe background,side of an egyptian temple with statues and low-lying buildings in the background,rensink,Obelisk,4,29,ALKF763KECU1H,2021-01-08_13h23.23.123,MetaAwareness,2020.1.2,Win32,60,30OITAWPBR6T98JI2QUZEOT3FY6H9R,ALKF763KECU1H,3L0KT67Y8FJ0M230BY3G52OKNU2SYY,YT0L5,YT0L5,3L0KT67Y8FJ0M230BY3G52OKNU2SYY,3L0KT67Y8FJ0M230BY3G52OKNU2SYY,268035,268035,,,,,,,,,,
,,,,,,,,,,,,,,,,29,ALKF763KECU1H,2021-01-08_13h23.23.123,MetaAwareness,2020.1.2,Win32,60,30OITAWPBR6T98JI2QUZEOT3FY6H9R,ALKF763KECU1H,3L0KT67Y8FJ0M230BY3G52OKNU2SYY,YT0L5,YT0L5,3L0KT67Y8FJ0M230BY3G52OKNU2SYY,3L0KT67Y8FJ0M230BY3G52OKNU2SYY,268035,268035,5,1.134965,someone laying underneath a blue beach umbrella on a crowded beach,someone laying underneath a blue beach umbrella on a crowded beach,same,6,1.30546,members of a marching band crossing a track that all have feather plumes at the front of their hats,a cluttered and rustic looking cafe with 10 hanging lights,different
