consent_response.keys,consent_response.rt,key_resp_2.keys,key_resp_2.rt,user_resp.keys,user_resp.rt,trials.thisRepN,trials.thisTrialN,trials.thisN,trials.thisIndex,trials.ran,image_1_text,image_2_text,database,image,number,age,worker_ID,date,expName,psychopyVersion,OS,frameRate,hitId,workerId,assignmentId,a,tp_a,b,tp_b,c,tp_c,catch_same_resp.keys,catch_same_resp.rt,image_1_text_catch_same,image_2_text_catch_same,image_catch_same,catch_different_resp.keys,catch_different_resp.rt,image_1_text_catch_different,image_2_text_catch_different,image_catch_different
space,14.70634,space,34.729585,3,19.23578,0,0,0,47,1,the fort  window  show the full,the fort window is show off,rensink,Castle,1,28,AWCMWOLXMZAAC,2021-01-08_13h41.54.352,MetaAwareness,2020.1.2,Win32,60,3BC9H1KCYVFQ7ZMF518FE8WH3V5WYW,AWCMWOLXMZAAC,32KTQ2V7REIIN6INJPFEUCWNMX99MQ,7QK25,7QK25,32KTQ2V7REIIN6INJPFEUCWNMX99MQ,32KTQ2V7REIIN6INJPFEUCWNMX99MQ,268035,268035,,,,,,,,,,
,,,,4,12.389025,0,1,1,189,1,"a table with a wine glass and cheese, fruit and bread",a table with a wine glass with only fruit and bread,rensink,Wine,6,28,AWCMWOLXMZAAC,2021-01-08_13h41.54.352,MetaAwareness,2020.1.2,Win32,60,3BC9H1KCYVFQ7ZMF518FE8WH3V5WYW,AWCMWOLXMZAAC,32KTQ2V7REIIN6INJPFEUCWNMX99MQ,7QK25,7QK25,32KTQ2V7REIIN6INJPFEUCWNMX99MQ,32KTQ2V7REIIN6INJPFEUCWNMX99MQ,268035,268035,,,,,,,,,,
,,,,5,12.730705,0,2,2,108,1,a person white water rafting while wearing a pink and black shirt,a person white water rafting while wearing a blue and black shirt,rensink,Kayak,1,28,AWCMWOLXMZAAC,2021-01-08_13h41.54.352,MetaAwareness,2020.1.2,Win32,60,3BC9H1KCYVFQ7ZMF518FE8WH3V5WYW,AWCMWOLXMZAAC,32KTQ2V7REIIN6INJPFEUCWNMX99MQ,7QK25,7QK25,32KTQ2V7REIIN6INJPFEUCWNMX99MQ,32KTQ2V7REIIN6INJPFEUCWNMX99MQ,268035,268035,,,,,,,,,,
,,,,5,7.63724,0,3,3,22,1,a blue boat on a beach turned upside down.,a green boat on a beach turned upside down.,rensink,Beach,6,28,AWCMWOLXMZAAC,2021-01-08_13h41.54.352,MetaAwareness,2020.1.2,Win32,60,3BC9H1KCYVFQ7ZMF518FE8WH3V5WYW,AWCMWOLXMZAAC,32KTQ2V7REIIN6INJPFEUCWNMX99MQ,7QK25,7QK25,32KTQ2V7REIIN6INJPFEUCWNMX99MQ,32KTQ2V7REIIN6INJPFEUCWNMX99MQ,268035,268035,,,,,,,,,,
,,,,5,6.929885,0,4,4,188,1,"a food display with bread, fruits, wine, and cheese","a food display with bread, fruits, and wine",rensink,Wine,3,28,AWCMWOLXMZAAC,2021-01-08_13h41.54.352,MetaAwareness,2020.1.2,Win32,60,3BC9H1KCYVFQ7ZMF518FE8WH3V5WYW,AWCMWOLXMZAAC,32KTQ2V7REIIN6INJPFEUCWNMX99MQ,7QK25,7QK25,32KTQ2V7REIIN6INJPFEUCWNMX99MQ,32KTQ2V7REIIN6INJPFEUCWNMX99MQ,268035,268035,,,,,,,,,,
,,,,4,28.167015,0,5,5,144,1,a woman in a blue shirt with a purse and a piece of fruit is standing next to another person holding a bag of fruit on the sidewalk with cars in the background,a woman in blue shirt with a purse and piece of fruit is standing next to another person on a street with cars and buildings in the background,rensink,Nurses,5,28,AWCMWOLXMZAAC,2021-01-08_13h41.54.352,MetaAwareness,2020.1.2,Win32,60,3BC9H1KCYVFQ7ZMF518FE8WH3V5WYW,AWCMWOLXMZAAC,32KTQ2V7REIIN6INJPFEUCWNMX99MQ,7QK25,7QK25,32KTQ2V7REIIN6INJPFEUCWNMX99MQ,32KTQ2V7REIIN6INJPFEUCWNMX99MQ,268035,268035,,,,,,,,,,
,,,,3,8.4408,0,6,6,18,1,the boat is blue color,the boat is green color,rensink,Beach,1,28,AWCMWOLXMZAAC,2021-01-08_13h41.54.352,MetaAwareness,2020.1.2,Win32,60,3BC9H1KCYVFQ7ZMF518FE8WH3V5WYW,AWCMWOLXMZAAC,32KTQ2V7REIIN6INJPFEUCWNMX99MQ,7QK25,7QK25,32KTQ2V7REIIN6INJPFEUCWNMX99MQ,32KTQ2V7REIIN6INJPFEUCWNMX99MQ,268035,268035,,,,,,,,,,
,,,,3,12.64725,0,7,7,28,1,a group of people on a small boat almost at shore.,a group of people on a small boat slightly further away from shore.,rensink,Boat,6,28,AWCMWOLXMZAAC,2021-01-08_13h41.54.352,MetaAwareness,2020.1.2,Win32,60,3BC9H1KCYVFQ7ZMF518FE8WH3V5WYW,AWCMWOLXMZAAC,32KTQ2V7REIIN6INJPFEUCWNMX99MQ,7QK25,7QK25,32KTQ2V7REIIN6INJPFEUCWNMX99MQ,32KTQ2V7REIIN6INJPFEUCWNMX99MQ,268035,268035,,,,,,,,,,
,,,,3,15.704205,0,8,8,183,1,a scenic view in front of a window with a log on the bottom left corner,a schenic view in front of a window without a log in the bottom left corner,rensink,Window,4,28,AWCMWOLXMZAAC,2021-01-08_13h41.54.352,MetaAwareness,2020.1.2,Win32,60,3BC9H1KCYVFQ7ZMF518FE8WH3V5WYW,AWCMWOLXMZAAC,32KTQ2V7REIIN6INJPFEUCWNMX99MQ,7QK25,7QK25,32KTQ2V7REIIN6INJPFEUCWNMX99MQ,32KTQ2V7REIIN6INJPFEUCWNMX99MQ,268035,268035,,,,,,,,,,
,,,,3,23.979675,0,9,9,39,1,a man and a camel stand in front of a large wall that ends in the frame,a man and a camel stand in front of a large wall that extends past the frame,rensink,Camel,3,28,AWCMWOLXMZAAC,2021-01-08_13h41.54.352,MetaAwareness,2020.1.2,Win32,60,3BC9H1KCYVFQ7ZMF518FE8WH3V5WYW,AWCMWOLXMZAAC,32KTQ2V7REIIN6INJPFEUCWNMX99MQ,7QK25,7QK25,32KTQ2V7REIIN6INJPFEUCWNMX99MQ,32KTQ2V7REIIN6INJPFEUCWNMX99MQ,268035,268035,,,,,,,,,,
,,,,3,11.57165,0,10,10,98,1,a fountain appears to emege with low height,a fountain appears to emerge with high height,rensink,Fountain,6,28,AWCMWOLXMZAAC,2021-01-08_13h41.54.352,MetaAwareness,2020.1.2,Win32,60,3BC9H1KCYVFQ7ZMF518FE8WH3V5WYW,AWCMWOLXMZAAC,32KTQ2V7REIIN6INJPFEUCWNMX99MQ,7QK25,7QK25,32KTQ2V7REIIN6INJPFEUCWNMX99MQ,32KTQ2V7REIIN6INJPFEUCWNMX99MQ,268035,268035,,,,,,,,,,
,,,,2,14.58489,0,11,11,123,1,a man looking into the lake with binoculars on a foggy day.,a foggy day on the lake with no one in sight.,rensink,Lake,3,28,AWCMWOLXMZAAC,2021-01-08_13h41.54.352,MetaAwareness,2020.1.2,Win32,60,3BC9H1KCYVFQ7ZMF518FE8WH3V5WYW,AWCMWOLXMZAAC,32KTQ2V7REIIN6INJPFEUCWNMX99MQ,7QK25,7QK25,32KTQ2V7REIIN6INJPFEUCWNMX99MQ,32KTQ2V7REIIN6INJPFEUCWNMX99MQ,268035,268035,,,,,,,,,,
,,,,3,11.71911,0,12,12,26,1,two odd looking birds with blue flippers looking at each other and sky in the back,two odd looking birds with blue flippers looking at each other and minimal sky in the back,rensink,Birds,7,28,AWCMWOLXMZAAC,2021-01-08_13h41.54.352,MetaAwareness,2020.1.2,Win32,60,3BC9H1KCYVFQ7ZMF518FE8WH3V5WYW,AWCMWOLXMZAAC,32KTQ2V7REIIN6INJPFEUCWNMX99MQ,7QK25,7QK25,32KTQ2V7REIIN6INJPFEUCWNMX99MQ,32KTQ2V7REIIN6INJPFEUCWNMX99MQ,268035,268035,,,,,,,,,,
,,,,6,18.06517,0,13,13,74,1,tourists looking at an egyptian sculpture in front of an archway,tourists looking at an egyptian sculpture blocking an archway,rensink,Egypt,2,28,AWCMWOLXMZAAC,2021-01-08_13h41.54.352,MetaAwareness,2020.1.2,Win32,60,3BC9H1KCYVFQ7ZMF518FE8WH3V5WYW,AWCMWOLXMZAAC,32KTQ2V7REIIN6INJPFEUCWNMX99MQ,7QK25,7QK25,32KTQ2V7REIIN6INJPFEUCWNMX99MQ,32KTQ2V7REIIN6INJPFEUCWNMX99MQ,268035,268035,,,,,,,,,,
,,,,4,8.106495,0,14,14,94,1,it is a red coloured flight,it is a blue coloured flight,rensink,Floatplane,2,28,AWCMWOLXMZAAC,2021-01-08_13h41.54.352,MetaAwareness,2020.1.2,Win32,60,3BC9H1KCYVFQ7ZMF518FE8WH3V5WYW,AWCMWOLXMZAAC,32KTQ2V7REIIN6INJPFEUCWNMX99MQ,7QK25,7QK25,32KTQ2V7REIIN6INJPFEUCWNMX99MQ,32KTQ2V7REIIN6INJPFEUCWNMX99MQ,268035,268035,,,,,,,,,,
,,,,3,10.248535,0,15,15,113,1,a female kayaker with a rocky and forest filled background at her side,a female kayaker with a rocky but no forest filled background at her side,rensink,Kayaker,5,28,AWCMWOLXMZAAC,2021-01-08_13h41.54.352,MetaAwareness,2020.1.2,Win32,60,3BC9H1KCYVFQ7ZMF518FE8WH3V5WYW,AWCMWOLXMZAAC,32KTQ2V7REIIN6INJPFEUCWNMX99MQ,7QK25,7QK25,32KTQ2V7REIIN6INJPFEUCWNMX99MQ,32KTQ2V7REIIN6INJPFEUCWNMX99MQ,268035,268035,,,,,,,,,,
,,,,3,8.81328,0,16,16,33,1,trees in front of the sea with a white ship in the water,trees in front of the sea,rensink,Cactus,3,28,AWCMWOLXMZAAC,2021-01-08_13h41.54.352,MetaAwareness,2020.1.2,Win32,60,3BC9H1KCYVFQ7ZMF518FE8WH3V5WYW,AWCMWOLXMZAAC,32KTQ2V7REIIN6INJPFEUCWNMX99MQ,7QK25,7QK25,32KTQ2V7REIIN6INJPFEUCWNMX99MQ,32KTQ2V7REIIN6INJPFEUCWNMX99MQ,268035,268035,,,,,,,,,,
,,,,3,9.566385,0,17,17,134,1,a middle eastern city scene with three turrets,a middle eastern city scene with two turrets,rensink,Mosque,1,28,AWCMWOLXMZAAC,2021-01-08_13h41.54.352,MetaAwareness,2020.1.2,Win32,60,3BC9H1KCYVFQ7ZMF518FE8WH3V5WYW,AWCMWOLXMZAAC,32KTQ2V7REIIN6INJPFEUCWNMX99MQ,7QK25,7QK25,32KTQ2V7REIIN6INJPFEUCWNMX99MQ,32KTQ2V7REIIN6INJPFEUCWNMX99MQ,268035,268035,,,,,,,,,,
,,,,3,8.11422,0,18,18,0,1,the color of shrits was blue,color of shirts waspink,rensink,Amish,1,28,AWCMWOLXMZAAC,2021-01-08_13h41.54.352,MetaAwareness,2020.1.2,Win32,60,3BC9H1KCYVFQ7ZMF518FE8WH3V5WYW,AWCMWOLXMZAAC,32KTQ2V7REIIN6INJPFEUCWNMX99MQ,7QK25,7QK25,32KTQ2V7REIIN6INJPFEUCWNMX99MQ,32KTQ2V7REIIN6INJPFEUCWNMX99MQ,268035,268035,,,,,,,,,,
,,,,4,9.30219,0,19,19,171,1,there are two boats and some people at the river.,there is one boat and some people at the river.,rensink,SummerLake,5,28,AWCMWOLXMZAAC,2021-01-08_13h41.54.352,MetaAwareness,2020.1.2,Win32,60,3BC9H1KCYVFQ7ZMF518FE8WH3V5WYW,AWCMWOLXMZAAC,32KTQ2V7REIIN6INJPFEUCWNMX99MQ,7QK25,7QK25,32KTQ2V7REIIN6INJPFEUCWNMX99MQ,32KTQ2V7REIIN6INJPFEUCWNMX99MQ,268035,268035,,,,,,,,,,
,,,,3,13.36108,0,20,20,68,1,a dining table in front of a fire place with a glass of red wine next to a wine bottle,a dining table in front of a fire place with a glass of red wine next to a plate of food,rensink,Dinner,6,28,AWCMWOLXMZAAC,2021-01-08_13h41.54.352,MetaAwareness,2020.1.2,Win32,60,3BC9H1KCYVFQ7ZMF518FE8WH3V5WYW,AWCMWOLXMZAAC,32KTQ2V7REIIN6INJPFEUCWNMX99MQ,7QK25,7QK25,32KTQ2V7REIIN6INJPFEUCWNMX99MQ,32KTQ2V7REIIN6INJPFEUCWNMX99MQ,268035,268035,,,,,,,,,,
,,,,5,12.633325,0,21,21,179,1,a man was sitting in the boat and two of them were helping him.,a man was sitting in the boat and two of them were helping him to move.,rensink,Water,5,28,AWCMWOLXMZAAC,2021-01-08_13h41.54.352,MetaAwareness,2020.1.2,Win32,60,3BC9H1KCYVFQ7ZMF518FE8WH3V5WYW,AWCMWOLXMZAAC,32KTQ2V7REIIN6INJPFEUCWNMX99MQ,7QK25,7QK25,32KTQ2V7REIIN6INJPFEUCWNMX99MQ,32KTQ2V7REIIN6INJPFEUCWNMX99MQ,268035,268035,,,,,,,,,,
,,,,5,10.599485,0,22,22,87,1,there is a man on a construction truck and he is wearing a dark green plaid shirt.,there is a man on a construction truck and he is wearing a bright green plaid shirt.,rensink,Farmer,4,28,AWCMWOLXMZAAC,2021-01-08_13h41.54.352,MetaAwareness,2020.1.2,Win32,60,3BC9H1KCYVFQ7ZMF518FE8WH3V5WYW,AWCMWOLXMZAAC,32KTQ2V7REIIN6INJPFEUCWNMX99MQ,7QK25,7QK25,32KTQ2V7REIIN6INJPFEUCWNMX99MQ,32KTQ2V7REIIN6INJPFEUCWNMX99MQ,268035,268035,,,,,,,,,,
,,,,3,10.790895,0,23,23,128,1,a man on blue jean buying something,a man on brown jean buying smething,rensink,Market,4,28,AWCMWOLXMZAAC,2021-01-08_13h41.54.352,MetaAwareness,2020.1.2,Win32,60,3BC9H1KCYVFQ7ZMF518FE8WH3V5WYW,AWCMWOLXMZAAC,32KTQ2V7REIIN6INJPFEUCWNMX99MQ,7QK25,7QK25,32KTQ2V7REIIN6INJPFEUCWNMX99MQ,32KTQ2V7REIIN6INJPFEUCWNMX99MQ,268035,268035,,,,,,,,,,
,,,,5,9.017365,0,24,24,85,1,a construction sight with a man holding a box in a dim green shirt,a construction site with a man holding a box with a bright green shirt,rensink,Farmer,2,28,AWCMWOLXMZAAC,2021-01-08_13h41.54.352,MetaAwareness,2020.1.2,Win32,60,3BC9H1KCYVFQ7ZMF518FE8WH3V5WYW,AWCMWOLXMZAAC,32KTQ2V7REIIN6INJPFEUCWNMX99MQ,7QK25,7QK25,32KTQ2V7REIIN6INJPFEUCWNMX99MQ,32KTQ2V7REIIN6INJPFEUCWNMX99MQ,268035,268035,,,,,,,,,,
,,,,3,9.80223,0,25,25,173,1,a lake with people and two covered boats,a lake with people and one covered and one uncovered boat,rensink,SummerLake,7,28,AWCMWOLXMZAAC,2021-01-08_13h41.54.352,MetaAwareness,2020.1.2,Win32,60,3BC9H1KCYVFQ7ZMF518FE8WH3V5WYW,AWCMWOLXMZAAC,32KTQ2V7REIIN6INJPFEUCWNMX99MQ,7QK25,7QK25,32KTQ2V7REIIN6INJPFEUCWNMX99MQ,32KTQ2V7REIIN6INJPFEUCWNMX99MQ,268035,268035,,,,,,,,,,
,,,,4,12.420105,0,26,26,49,1,the window shown on the wall,the  window hide on the wall,rensink,Castle,3,28,AWCMWOLXMZAAC,2021-01-08_13h41.54.352,MetaAwareness,2020.1.2,Win32,60,3BC9H1KCYVFQ7ZMF518FE8WH3V5WYW,AWCMWOLXMZAAC,32KTQ2V7REIIN6INJPFEUCWNMX99MQ,7QK25,7QK25,32KTQ2V7REIIN6INJPFEUCWNMX99MQ,32KTQ2V7REIIN6INJPFEUCWNMX99MQ,268035,268035,,,,,,,,,,
,,,,3,10.97146,0,27,27,4,1,a soldier manning a gun on a tank looking at a street shaded by trees,a soldier manning a gun on a tank looking at a sunny spot on the street,rensink,Army,4,28,AWCMWOLXMZAAC,2021-01-08_13h41.54.352,MetaAwareness,2020.1.2,Win32,60,3BC9H1KCYVFQ7ZMF518FE8WH3V5WYW,AWCMWOLXMZAAC,32KTQ2V7REIIN6INJPFEUCWNMX99MQ,7QK25,7QK25,32KTQ2V7REIIN6INJPFEUCWNMX99MQ,32KTQ2V7REIIN6INJPFEUCWNMX99MQ,268035,268035,,,,,,,,,,
,,,,3,7.48072,0,28,28,133,1,3 men on a boat holding a fish with a yellow chair in front of them,3 men on a boat holding a fish with no yellow chair in front of them,rensink,Marling,4,28,AWCMWOLXMZAAC,2021-01-08_13h41.54.352,MetaAwareness,2020.1.2,Win32,60,3BC9H1KCYVFQ7ZMF518FE8WH3V5WYW,AWCMWOLXMZAAC,32KTQ2V7REIIN6INJPFEUCWNMX99MQ,7QK25,7QK25,32KTQ2V7REIIN6INJPFEUCWNMX99MQ,32KTQ2V7REIIN6INJPFEUCWNMX99MQ,268035,268035,,,,,,,,,,
,,,,2,10.780195,0,29,29,156,1,3 pilots standing in front of a helicopter with a gray building in the background,3 pilots standing in front of a helicopter with a yellow building in the background,rensink,Pilots,5,28,AWCMWOLXMZAAC,2021-01-08_13h41.54.352,MetaAwareness,2020.1.2,Win32,60,3BC9H1KCYVFQ7ZMF518FE8WH3V5WYW,AWCMWOLXMZAAC,32KTQ2V7REIIN6INJPFEUCWNMX99MQ,7QK25,7QK25,32KTQ2V7REIIN6INJPFEUCWNMX99MQ,32KTQ2V7REIIN6INJPFEUCWNMX99MQ,268035,268035,,,,,,,,,,
,,,,,,,,,,,,,,,,28,AWCMWOLXMZAAC,2021-01-08_13h41.54.352,MetaAwareness,2020.1.2,Win32,60,3BC9H1KCYVFQ7ZMF518FE8WH3V5WYW,AWCMWOLXMZAAC,32KTQ2V7REIIN6INJPFEUCWNMX99MQ,7QK25,7QK25,32KTQ2V7REIIN6INJPFEUCWNMX99MQ,32KTQ2V7REIIN6INJPFEUCWNMX99MQ,268035,268035,6,15.48451,someone laying underneath a blue beach umbrella on a crowded beach,someone laying underneath a blue beach umbrella on a crowded beach,same,1,7.467875,members of a marching band crossing a track that all have feather plumes at the front of their hats,a cluttered and rustic looking cafe with 10 hanging lights,different
