consent_response.keys,consent_response.rt,key_resp_2.keys,key_resp_2.rt,user_resp.keys,user_resp.rt,trials.thisRepN,trials.thisTrialN,trials.thisN,trials.thisIndex,trials.ran,image_1_text,image_2_text,database,image,number,age,worker_ID,date,expName,psychopyVersion,OS,frameRate,hitId,workerId,assignmentId,a,tp_a,b,tp_b,c,tp_c,catch_same_resp.keys,catch_same_resp.rt,image_1_text_catch_same,image_2_text_catch_same,image_catch_same,catch_different_resp.keys,catch_different_resp.rt,image_1_text_catch_different,image_2_text_catch_different,image_catch_different
space,7.63898,space,28.67445,5,26.57314,0,0,0,206,1,a set of cartoon figurines with the character in the front having pink legs,a set of cartoon figurines with the character in front having blue legs,ma,48384711,5,35,A1BT5A0F5MBIJY,2021-01-07_05h36.24.233,MetaAwareness,2020.1.2,Win32,60,3EGKVCRQFXVYJWO4AACJRUJWTS8BYC,A1BT5A0F5MBIJY,3E337GFOLAB3KYQV9W0OZ87AUT3GNY,O73E5,O73E5,3E337GFOLAB3KYQV9W0OZ87AUT3GNY,3E337GFOLAB3KYQV9W0OZ87AUT3GNY,267585,267585,,,,,,,,,,
,,,,5,20.054015,0,1,1,97,1,a table full of arts and crafts materials the paper in the yellow box in this picture is yellow.,a table full of arts and crafts materials the paper in the yellow box in this picture is red.,ma,23199105,3,35,A1BT5A0F5MBIJY,2021-01-07_05h36.24.233,MetaAwareness,2020.1.2,Win32,60,3EGKVCRQFXVYJWO4AACJRUJWTS8BYC,A1BT5A0F5MBIJY,3E337GFOLAB3KYQV9W0OZ87AUT3GNY,O73E5,O73E5,3E337GFOLAB3KYQV9W0OZ87AUT3GNY,3E337GFOLAB3KYQV9W0OZ87AUT3GNY,267585,267585,,,,,,,,,,
,,,,4,26.137525,0,2,2,359,1,a bouquet of flowers on a white table,a bouquet of white and purple flowers on a white table,ma,77574131,6,35,A1BT5A0F5MBIJY,2021-01-07_05h36.24.233,MetaAwareness,2020.1.2,Win32,60,3EGKVCRQFXVYJWO4AACJRUJWTS8BYC,A1BT5A0F5MBIJY,3E337GFOLAB3KYQV9W0OZ87AUT3GNY,O73E5,O73E5,3E337GFOLAB3KYQV9W0OZ87AUT3GNY,3E337GFOLAB3KYQV9W0OZ87AUT3GNY,267585,267585,,,,,,,,,,
,,,,2,13.362285,0,3,3,121,1,a game room with a long tufted red couch and a table and a wooden stool,a game room with a long tufted red couch and a table and a dart board on the wall and a wooden stool,ma,27857618,6,35,A1BT5A0F5MBIJY,2021-01-07_05h36.24.233,MetaAwareness,2020.1.2,Win32,60,3EGKVCRQFXVYJWO4AACJRUJWTS8BYC,A1BT5A0F5MBIJY,3E337GFOLAB3KYQV9W0OZ87AUT3GNY,O73E5,O73E5,3E337GFOLAB3KYQV9W0OZ87AUT3GNY,3E337GFOLAB3KYQV9W0OZ87AUT3GNY,267585,267585,,,,,,,,,,
,,,,4,8.036005001,0,4,4,103,1,craft project material and pictures,craft project materials and items to use,ma,23199105,9,35,A1BT5A0F5MBIJY,2021-01-07_05h36.24.233,MetaAwareness,2020.1.2,Win32,60,3EGKVCRQFXVYJWO4AACJRUJWTS8BYC,A1BT5A0F5MBIJY,3E337GFOLAB3KYQV9W0OZ87AUT3GNY,O73E5,O73E5,3E337GFOLAB3KYQV9W0OZ87AUT3GNY,3E337GFOLAB3KYQV9W0OZ87AUT3GNY,267585,267585,,,,,,,,,,
,,,,5,14.53476,0,5,5,510,1,"a table full of booklets and cards, one with a man appearing on the right side of the booklet.","a table full of booklets and cards, one with man appearing on the left side of the booklet.",ma,98265889,3,35,A1BT5A0F5MBIJY,2021-01-07_05h36.24.233,MetaAwareness,2020.1.2,Win32,60,3EGKVCRQFXVYJWO4AACJRUJWTS8BYC,A1BT5A0F5MBIJY,3E337GFOLAB3KYQV9W0OZ87AUT3GNY,O73E5,O73E5,3E337GFOLAB3KYQV9W0OZ87AUT3GNY,3E337GFOLAB3KYQV9W0OZ87AUT3GNY,267585,267585,,,,,,,,,,
,,,,5,8.57051,0,6,6,358,1,a hydrangea arrangement with more green flowers.,a hydrangea arrangement with more blue flowers.,ma,77574131,5,35,A1BT5A0F5MBIJY,2021-01-07_05h36.24.233,MetaAwareness,2020.1.2,Win32,60,3EGKVCRQFXVYJWO4AACJRUJWTS8BYC,A1BT5A0F5MBIJY,3E337GFOLAB3KYQV9W0OZ87AUT3GNY,O73E5,O73E5,3E337GFOLAB3KYQV9W0OZ87AUT3GNY,3E337GFOLAB3KYQV9W0OZ87AUT3GNY,267585,267585,,,,,,,,,,
,,,,5,13.08972,0,7,7,149,1,"a shelf arrangement with 2 flower vases, some other knicknacks, pictures of children, and a board with 2 silver circles in it ","a shelf arrangement with 2 flower vases, some other knicknacks, pictures of children, and a board with 1 silver circle in  it ",ma,38546029,3,35,A1BT5A0F5MBIJY,2021-01-07_05h36.24.233,MetaAwareness,2020.1.2,Win32,60,3EGKVCRQFXVYJWO4AACJRUJWTS8BYC,A1BT5A0F5MBIJY,3E337GFOLAB3KYQV9W0OZ87AUT3GNY,O73E5,O73E5,3E337GFOLAB3KYQV9W0OZ87AUT3GNY,3E337GFOLAB3KYQV9W0OZ87AUT3GNY,267585,267585,,,,,,,,,,
,,,,2,12.44103,0,8,8,133,1,a stuffed toy box with a yellow star at an angle.,a stuffed toy box with a yellow star oriented in a straight way.,ma,32289063,3,35,A1BT5A0F5MBIJY,2021-01-07_05h36.24.233,MetaAwareness,2020.1.2,Win32,60,3EGKVCRQFXVYJWO4AACJRUJWTS8BYC,A1BT5A0F5MBIJY,3E337GFOLAB3KYQV9W0OZ87AUT3GNY,O73E5,O73E5,3E337GFOLAB3KYQV9W0OZ87AUT3GNY,3E337GFOLAB3KYQV9W0OZ87AUT3GNY,267585,267585,,,,,,,,,,
,,,,2,13.446995,0,9,9,9,1,candle lit dinner table with 4 candles and ones larger,candle lit dinner with 4 candles all the same size,ma,10810329,3,35,A1BT5A0F5MBIJY,2021-01-07_05h36.24.233,MetaAwareness,2020.1.2,Win32,60,3EGKVCRQFXVYJWO4AACJRUJWTS8BYC,A1BT5A0F5MBIJY,3E337GFOLAB3KYQV9W0OZ87AUT3GNY,O73E5,O73E5,3E337GFOLAB3KYQV9W0OZ87AUT3GNY,3E337GFOLAB3KYQV9W0OZ87AUT3GNY,267585,267585,,,,,,,,,,
,,,,4,13.51316,0,10,10,126,1,a quilt with pictures of hand prints and a yellow apple,a quilt with pictures of hand prints and a red apple,ma,3099758,5,35,A1BT5A0F5MBIJY,2021-01-07_05h36.24.233,MetaAwareness,2020.1.2,Win32,60,3EGKVCRQFXVYJWO4AACJRUJWTS8BYC,A1BT5A0F5MBIJY,3E337GFOLAB3KYQV9W0OZ87AUT3GNY,O73E5,O73E5,3E337GFOLAB3KYQV9W0OZ87AUT3GNY,3E337GFOLAB3KYQV9W0OZ87AUT3GNY,267585,267585,,,,,,,,,,
,,,,4,9.295755,0,11,11,66,1,a red store front with a long window to its right.,a red store front with a small window to its right.,ma,16527526,4,35,A1BT5A0F5MBIJY,2021-01-07_05h36.24.233,MetaAwareness,2020.1.2,Win32,60,3EGKVCRQFXVYJWO4AACJRUJWTS8BYC,A1BT5A0F5MBIJY,3E337GFOLAB3KYQV9W0OZ87AUT3GNY,O73E5,O73E5,3E337GFOLAB3KYQV9W0OZ87AUT3GNY,3E337GFOLAB3KYQV9W0OZ87AUT3GNY,267585,267585,,,,,,,,,,
,,,,4,11.850015,0,12,12,296,1,"a red, white and green quilt. the segment in the box is red","a red, white and gree quilt. the segment in the box is peach colored.",ma,70687495,5,35,A1BT5A0F5MBIJY,2021-01-07_05h36.24.233,MetaAwareness,2020.1.2,Win32,60,3EGKVCRQFXVYJWO4AACJRUJWTS8BYC,A1BT5A0F5MBIJY,3E337GFOLAB3KYQV9W0OZ87AUT3GNY,O73E5,O73E5,3E337GFOLAB3KYQV9W0OZ87AUT3GNY,3E337GFOLAB3KYQV9W0OZ87AUT3GNY,267585,267585,,,,,,,,,,
,,,,2,10.7287,0,13,13,438,1,a plethora of desserts and a sucker without a stick,a plethora of desserts and a sucker with a stick,ma,86520382,3,35,A1BT5A0F5MBIJY,2021-01-07_05h36.24.233,MetaAwareness,2020.1.2,Win32,60,3EGKVCRQFXVYJWO4AACJRUJWTS8BYC,A1BT5A0F5MBIJY,3E337GFOLAB3KYQV9W0OZ87AUT3GNY,O73E5,O73E5,3E337GFOLAB3KYQV9W0OZ87AUT3GNY,3E337GFOLAB3KYQV9W0OZ87AUT3GNY,267585,267585,,,,,,,,,,
,,,,3,25.442005,0,14,14,150,1,"a brown shelf on a tan wall with two flower displays, a photo, and a book with a blue dot on it","a brown shelf on a tan wall with two flower displays, a photo, and a brown book",ma,38546029,4,35,A1BT5A0F5MBIJY,2021-01-07_05h36.24.233,MetaAwareness,2020.1.2,Win32,60,3EGKVCRQFXVYJWO4AACJRUJWTS8BYC,A1BT5A0F5MBIJY,3E337GFOLAB3KYQV9W0OZ87AUT3GNY,O73E5,O73E5,3E337GFOLAB3KYQV9W0OZ87AUT3GNY,3E337GFOLAB3KYQV9W0OZ87AUT3GNY,267585,267585,,,,,,,,,,
,,,,1,10.159205,0,15,15,428,1,a towel with the word eat where the letter a is small in size.,a towel with the word eat in it.,ma,83785171,5,35,A1BT5A0F5MBIJY,2021-01-07_05h36.24.233,MetaAwareness,2020.1.2,Win32,60,3EGKVCRQFXVYJWO4AACJRUJWTS8BYC,A1BT5A0F5MBIJY,3E337GFOLAB3KYQV9W0OZ87AUT3GNY,O73E5,O73E5,3E337GFOLAB3KYQV9W0OZ87AUT3GNY,3E337GFOLAB3KYQV9W0OZ87AUT3GNY,267585,267585,,,,,,,,,,
,,,,2,7.57502,0,16,16,391,1,a bohemian bedroom with a large abstract pink painting hanging,a bohemian bedroom with a small abstract pink painting hanging,ma,79573638,3,35,A1BT5A0F5MBIJY,2021-01-07_05h36.24.233,MetaAwareness,2020.1.2,Win32,60,3EGKVCRQFXVYJWO4AACJRUJWTS8BYC,A1BT5A0F5MBIJY,3E337GFOLAB3KYQV9W0OZ87AUT3GNY,O73E5,O73E5,3E337GFOLAB3KYQV9W0OZ87AUT3GNY,3E337GFOLAB3KYQV9W0OZ87AUT3GNY,267585,267585,,,,,,,,,,
,,,,1,6.656655,0,17,17,324,1,a clock pointing at 11 o clock,a clock pointing at 2 o clock,ma,74173745,4,35,A1BT5A0F5MBIJY,2021-01-07_05h36.24.233,MetaAwareness,2020.1.2,Win32,60,3EGKVCRQFXVYJWO4AACJRUJWTS8BYC,A1BT5A0F5MBIJY,3E337GFOLAB3KYQV9W0OZ87AUT3GNY,O73E5,O73E5,3E337GFOLAB3KYQV9W0OZ87AUT3GNY,3E337GFOLAB3KYQV9W0OZ87AUT3GNY,267585,267585,,,,,,,,,,
,,,,2,12.052515,0,18,18,176,1,a bunch of christmas cookies sit on a plate. the cookie in the bottom right corner has a small snowflake design.,a bunchof christmas cookies sit on a plate. the cookie in the bottom right corner has a large snowflake design.,ma,44993860,3,35,A1BT5A0F5MBIJY,2021-01-07_05h36.24.233,MetaAwareness,2020.1.2,Win32,60,3EGKVCRQFXVYJWO4AACJRUJWTS8BYC,A1BT5A0F5MBIJY,3E337GFOLAB3KYQV9W0OZ87AUT3GNY,O73E5,O73E5,3E337GFOLAB3KYQV9W0OZ87AUT3GNY,3E337GFOLAB3KYQV9W0OZ87AUT3GNY,267585,267585,,,,,,,,,,
,,,,2,6.14325,0,19,19,187,1,a pot contains a pink color with brown shade design,a pot contains a yellow color with green shade design.,ma,46475259,3,35,A1BT5A0F5MBIJY,2021-01-07_05h36.24.233,MetaAwareness,2020.1.2,Win32,60,3EGKVCRQFXVYJWO4AACJRUJWTS8BYC,A1BT5A0F5MBIJY,3E337GFOLAB3KYQV9W0OZ87AUT3GNY,O73E5,O73E5,3E337GFOLAB3KYQV9W0OZ87AUT3GNY,3E337GFOLAB3KYQV9W0OZ87AUT3GNY,267585,267585,,,,,,,,,,
,,,,3,25.1588,0,20,20,190,1,country style kitchen pottery line shelves including a pink label on a white crock,country style kitchen potter line shelves including a yello label on a white crock,ma,46475259,6,35,A1BT5A0F5MBIJY,2021-01-07_05h36.24.233,MetaAwareness,2020.1.2,Win32,60,3EGKVCRQFXVYJWO4AACJRUJWTS8BYC,A1BT5A0F5MBIJY,3E337GFOLAB3KYQV9W0OZ87AUT3GNY,O73E5,O73E5,3E337GFOLAB3KYQV9W0OZ87AUT3GNY,3E337GFOLAB3KYQV9W0OZ87AUT3GNY,267585,267585,,,,,,,,,,
,,,,2,21.28741,0,21,21,225,1,a egg shape with smaller size and less ingredient has been added,a egg shape with larger size and maximum amount of ingredient has been added.,ma,51537628,5,35,A1BT5A0F5MBIJY,2021-01-07_05h36.24.233,MetaAwareness,2020.1.2,Win32,60,3EGKVCRQFXVYJWO4AACJRUJWTS8BYC,A1BT5A0F5MBIJY,3E337GFOLAB3KYQV9W0OZ87AUT3GNY,O73E5,O73E5,3E337GFOLAB3KYQV9W0OZ87AUT3GNY,3E337GFOLAB3KYQV9W0OZ87AUT3GNY,267585,267585,,,,,,,,,,
,,,,1,6.09693,0,22,22,71,1,pirate themed cupcakes and a variety of other dessert treats,a smiley face sticker on a bag of goodies,ma,18345691,1,35,A1BT5A0F5MBIJY,2021-01-07_05h36.24.233,MetaAwareness,2020.1.2,Win32,60,3EGKVCRQFXVYJWO4AACJRUJWTS8BYC,A1BT5A0F5MBIJY,3E337GFOLAB3KYQV9W0OZ87AUT3GNY,O73E5,O73E5,3E337GFOLAB3KYQV9W0OZ87AUT3GNY,3E337GFOLAB3KYQV9W0OZ87AUT3GNY,267585,267585,,,,,,,,,,
,,,,1,7.14601,0,23,23,499,1,a large letter opener next to a desk.,a small letter opener next to a desk.,ma,98156944,2,35,A1BT5A0F5MBIJY,2021-01-07_05h36.24.233,MetaAwareness,2020.1.2,Win32,60,3EGKVCRQFXVYJWO4AACJRUJWTS8BYC,A1BT5A0F5MBIJY,3E337GFOLAB3KYQV9W0OZ87AUT3GNY,O73E5,O73E5,3E337GFOLAB3KYQV9W0OZ87AUT3GNY,3E337GFOLAB3KYQV9W0OZ87AUT3GNY,267585,267585,,,,,,,,,,
,,,,1,6.957485,0,24,24,441,1,various treats on a table without a lollipop stick,various treats on a table with a lollipop stick,ma,86520382,6,35,A1BT5A0F5MBIJY,2021-01-07_05h36.24.233,MetaAwareness,2020.1.2,Win32,60,3EGKVCRQFXVYJWO4AACJRUJWTS8BYC,A1BT5A0F5MBIJY,3E337GFOLAB3KYQV9W0OZ87AUT3GNY,O73E5,O73E5,3E337GFOLAB3KYQV9W0OZ87AUT3GNY,3E337GFOLAB3KYQV9W0OZ87AUT3GNY,267585,267585,,,,,,,,,,
,,,,2,5.287095,0,25,25,23,1,a robotic cake design with red color edges,a robotic cake design with yellow color edges.,ma,12115280,2,35,A1BT5A0F5MBIJY,2021-01-07_05h36.24.233,MetaAwareness,2020.1.2,Win32,60,3EGKVCRQFXVYJWO4AACJRUJWTS8BYC,A1BT5A0F5MBIJY,3E337GFOLAB3KYQV9W0OZ87AUT3GNY,O73E5,O73E5,3E337GFOLAB3KYQV9W0OZ87AUT3GNY,3E337GFOLAB3KYQV9W0OZ87AUT3GNY,267585,267585,,,,,,,,,,
,,,,1,6.9229,0,26,26,371,1,a table that has various types of desserts stacked upon it,"a table with various types of desserts on it, one of tem has a chocolate bow and a clear container",ma,77793328,11,35,A1BT5A0F5MBIJY,2021-01-07_05h36.24.233,MetaAwareness,2020.1.2,Win32,60,3EGKVCRQFXVYJWO4AACJRUJWTS8BYC,A1BT5A0F5MBIJY,3E337GFOLAB3KYQV9W0OZ87AUT3GNY,O73E5,O73E5,3E337GFOLAB3KYQV9W0OZ87AUT3GNY,3E337GFOLAB3KYQV9W0OZ87AUT3GNY,267585,267585,,,,,,,,,,
,,,,1,4.95794,0,27,27,148,1,there's a cirlce inside the yellow box,there's nothing here in the yellow box,ma,38546029,2,35,A1BT5A0F5MBIJY,2021-01-07_05h36.24.233,MetaAwareness,2020.1.2,Win32,60,3EGKVCRQFXVYJWO4AACJRUJWTS8BYC,A1BT5A0F5MBIJY,3E337GFOLAB3KYQV9W0OZ87AUT3GNY,O73E5,O73E5,3E337GFOLAB3KYQV9W0OZ87AUT3GNY,3E337GFOLAB3KYQV9W0OZ87AUT3GNY,267585,267585,,,,,,,,,,
,,,,3,16.92234,0,28,28,70,1,"decorative material with patterened pears, one is yellow with orange polk adots","decorative material with patterened pears, one is yellow with tiny orange dots",ma,18169626,4,35,A1BT5A0F5MBIJY,2021-01-07_05h36.24.233,MetaAwareness,2020.1.2,Win32,60,3EGKVCRQFXVYJWO4AACJRUJWTS8BYC,A1BT5A0F5MBIJY,3E337GFOLAB3KYQV9W0OZ87AUT3GNY,O73E5,O73E5,3E337GFOLAB3KYQV9W0OZ87AUT3GNY,3E337GFOLAB3KYQV9W0OZ87AUT3GNY,267585,267585,,,,,,,,,,
,,,,3,10.793585,0,29,29,434,1,an array of led type lights and one with a green color lid,an array of led type lights and one with a white color lid,ma,85741618,5,35,A1BT5A0F5MBIJY,2021-01-07_05h36.24.233,MetaAwareness,2020.1.2,Win32,60,3EGKVCRQFXVYJWO4AACJRUJWTS8BYC,A1BT5A0F5MBIJY,3E337GFOLAB3KYQV9W0OZ87AUT3GNY,O73E5,O73E5,3E337GFOLAB3KYQV9W0OZ87AUT3GNY,3E337GFOLAB3KYQV9W0OZ87AUT3GNY,267585,267585,,,,,,,,,,
,,,,,,,,,,,,,,,,35,A1BT5A0F5MBIJY,2021-01-07_05h36.24.233,MetaAwareness,2020.1.2,Win32,60,3EGKVCRQFXVYJWO4AACJRUJWTS8BYC,A1BT5A0F5MBIJY,3E337GFOLAB3KYQV9W0OZ87AUT3GNY,O73E5,O73E5,3E337GFOLAB3KYQV9W0OZ87AUT3GNY,3E337GFOLAB3KYQV9W0OZ87AUT3GNY,267585,267585,6,30.175255,someone laying underneath a blue beach umbrella on a crowded beach,someone laying underneath a blue beach umbrella on a crowded beach,same,1,5.740465,members of a marching band crossing a track that all have feather plumes at the front of their hats,a cluttered and rustic looking cafe with 10 hanging lights,different