consent_response.keys,consent_response.rt,key_resp_2.keys,key_resp_2.rt,user_resp.keys,user_resp.rt,trials.thisRepN,trials.thisTrialN,trials.thisN,trials.thisIndex,trials.ran,image_1_text,image_2_text,database,image,number,age,worker_ID,date,expName,psychopyVersion,OS,frameRate,hitId,workerId,assignmentId,a,tp_a,b,tp_b,c,tp_c,catch_same_resp.keys,catch_same_resp.rt,image_1_text_catch_same,image_2_text_catch_same,image_catch_same,catch_different_resp.keys,catch_different_resp.rt,image_1_text_catch_different,image_2_text_catch_different,image_catch_different
space,13.78034,space,17.854145,3,15.259255,0,0,0,371,1,a table that has various types of desserts stacked upon it,"a table with various types of desserts on it, one of tem has a chocolate bow and a clear container",ma,77793328,11,33,A3TS15DY3N8JHE,2021-01-07_05h11.18.723,MetaAwareness,2020.1.2,Win32,60,3EGKVCRQFXVYJWO4AACJRUJWTS8BYC,A3TS15DY3N8JHE,3RRCEFRB7NFL798EB5TEZOADNZG4BA,BERR5,BERR5,3RRCEFRB7NFL798EB5TEZOADNZG4BA,3RRCEFRB7NFL798EB5TEZOADNZG4BA,267585,267585,,,,,,,,,,
,,,,6,11.14092,0,1,1,116,1,a retro looking bar booth with framed darts on the wall,a retro looking bar booth with framed darts on the wall,ma,27857618,1,33,A3TS15DY3N8JHE,2021-01-07_05h11.18.723,MetaAwareness,2020.1.2,Win32,60,3EGKVCRQFXVYJWO4AACJRUJWTS8BYC,A3TS15DY3N8JHE,3RRCEFRB7NFL798EB5TEZOADNZG4BA,BERR5,BERR5,3RRCEFRB7NFL798EB5TEZOADNZG4BA,3RRCEFRB7NFL798EB5TEZOADNZG4BA,267585,267585,,,,,,,,,,
,,,,2,10.37515,0,2,2,474,1,pimwheels made of cloth and buttons with one missing a button,pinwheels made of cloth and buttons with one having a heart button,ma,90405028,3,33,A3TS15DY3N8JHE,2021-01-07_05h11.18.723,MetaAwareness,2020.1.2,Win32,60,3EGKVCRQFXVYJWO4AACJRUJWTS8BYC,A3TS15DY3N8JHE,3RRCEFRB7NFL798EB5TEZOADNZG4BA,BERR5,BERR5,3RRCEFRB7NFL798EB5TEZOADNZG4BA,3RRCEFRB7NFL798EB5TEZOADNZG4BA,267585,267585,,,,,,,,,,
,,,,2,8.71142,0,3,3,39,1,"at the middle of the circle, pink color is present","at the middle of the circle, yellow color is present",ma,12178414,10,33,A3TS15DY3N8JHE,2021-01-07_05h11.18.723,MetaAwareness,2020.1.2,Win32,60,3EGKVCRQFXVYJWO4AACJRUJWTS8BYC,A3TS15DY3N8JHE,3RRCEFRB7NFL798EB5TEZOADNZG4BA,BERR5,BERR5,3RRCEFRB7NFL798EB5TEZOADNZG4BA,3RRCEFRB7NFL798EB5TEZOADNZG4BA,267585,267585,,,,,,,,,,
,,,,4,13.64185,0,4,4,113,1,four elephant keychains hanging from a wall and a green square.,four elephant keychains hanging from a wall with a green backdrop lettering and des in the box.,ma,25107991,4,33,A3TS15DY3N8JHE,2021-01-07_05h11.18.723,MetaAwareness,2020.1.2,Win32,60,3EGKVCRQFXVYJWO4AACJRUJWTS8BYC,A3TS15DY3N8JHE,3RRCEFRB7NFL798EB5TEZOADNZG4BA,BERR5,BERR5,3RRCEFRB7NFL798EB5TEZOADNZG4BA,3RRCEFRB7NFL798EB5TEZOADNZG4BA,267585,267585,,,,,,,,,,
,,,,6,16.964975,0,5,5,278,1,"a round table outdoors with a gray tablecloth, and cutlery set up with drink glasses with pink cloth napkins","a round table outdoors with a gray tablecloth, and cutlery set up with drink glasss with pink cloth napkins",ma,67862299,4,33,A3TS15DY3N8JHE,2021-01-07_05h11.18.723,MetaAwareness,2020.1.2,Win32,60,3EGKVCRQFXVYJWO4AACJRUJWTS8BYC,A3TS15DY3N8JHE,3RRCEFRB7NFL798EB5TEZOADNZG4BA,BERR5,BERR5,3RRCEFRB7NFL798EB5TEZOADNZG4BA,3RRCEFRB7NFL798EB5TEZOADNZG4BA,267585,267585,,,,,,,,,,
,,,,2,10.63985,0,6,6,423,1,a wall with lot of pictures with a mountain picture in the middle.,a wall with lot of picture with a sea picture in the middle.,ma,83691215,11,33,A3TS15DY3N8JHE,2021-01-07_05h11.18.723,MetaAwareness,2020.1.2,Win32,60,3EGKVCRQFXVYJWO4AACJRUJWTS8BYC,A3TS15DY3N8JHE,3RRCEFRB7NFL798EB5TEZOADNZG4BA,BERR5,BERR5,3RRCEFRB7NFL798EB5TEZOADNZG4BA,3RRCEFRB7NFL798EB5TEZOADNZG4BA,267585,267585,,,,,,,,,,
,,,,3,15.45468,0,7,7,143,1,12 small plastic toy dinosaurs all facing to the left.   one of those dinosaurs is smallest and is white in color.  it is to the left of the yellow box. ,12 small plastic toy dinosaurs all facing to the left.  one of those dinosaurs is the smallest and is white in color.  it is to the right of the yellow box.  ,ma,38466626,3,33,A3TS15DY3N8JHE,2021-01-07_05h11.18.723,MetaAwareness,2020.1.2,Win32,60,3EGKVCRQFXVYJWO4AACJRUJWTS8BYC,A3TS15DY3N8JHE,3RRCEFRB7NFL798EB5TEZOADNZG4BA,BERR5,BERR5,3RRCEFRB7NFL798EB5TEZOADNZG4BA,3RRCEFRB7NFL798EB5TEZOADNZG4BA,267585,267585,,,,,,,,,,
,,,,1,14.730205,0,8,8,212,1,first toy has pink legs,front toy has blue legs,ma,48384711,11,33,A3TS15DY3N8JHE,2021-01-07_05h11.18.723,MetaAwareness,2020.1.2,Win32,60,3EGKVCRQFXVYJWO4AACJRUJWTS8BYC,A3TS15DY3N8JHE,3RRCEFRB7NFL798EB5TEZOADNZG4BA,BERR5,BERR5,3RRCEFRB7NFL798EB5TEZOADNZG4BA,3RRCEFRB7NFL798EB5TEZOADNZG4BA,267585,267585,,,,,,,,,,
,,,,2,7.84041,0,9,9,358,1,a hydrangea arrangement with more green flowers.,a hydrangea arrangement with more blue flowers.,ma,77574131,5,33,A3TS15DY3N8JHE,2021-01-07_05h11.18.723,MetaAwareness,2020.1.2,Win32,60,3EGKVCRQFXVYJWO4AACJRUJWTS8BYC,A3TS15DY3N8JHE,3RRCEFRB7NFL798EB5TEZOADNZG4BA,BERR5,BERR5,3RRCEFRB7NFL798EB5TEZOADNZG4BA,3RRCEFRB7NFL798EB5TEZOADNZG4BA,267585,267585,,,,,,,,,,
,,,,1,12.01323,0,10,10,323,1,"a bookshelf with books, trinkets and wooden birds. the clock in the box is at 1130 orientation","a bookshelf with books, trinkets and wooden birds. the clock in the box is at 200 orientation",ma,74173745,3,33,A3TS15DY3N8JHE,2021-01-07_05h11.18.723,MetaAwareness,2020.1.2,Win32,60,3EGKVCRQFXVYJWO4AACJRUJWTS8BYC,A3TS15DY3N8JHE,3RRCEFRB7NFL798EB5TEZOADNZG4BA,BERR5,BERR5,3RRCEFRB7NFL798EB5TEZOADNZG4BA,3RRCEFRB7NFL798EB5TEZOADNZG4BA,267585,267585,,,,,,,,,,
,,,,2,11.588325,0,11,11,18,1,a small game resembling a pool table has colored pieces on the table.  the one in yellow box is black.,a small game resembling a pool table has colored pieces on the table.  the one in the yellow box is white.,ma,1191801,2,33,A3TS15DY3N8JHE,2021-01-07_05h11.18.723,MetaAwareness,2020.1.2,Win32,60,3EGKVCRQFXVYJWO4AACJRUJWTS8BYC,A3TS15DY3N8JHE,3RRCEFRB7NFL798EB5TEZOADNZG4BA,BERR5,BERR5,3RRCEFRB7NFL798EB5TEZOADNZG4BA,3RRCEFRB7NFL798EB5TEZOADNZG4BA,267585,267585,,,,,,,,,,
,,,,3,11.10857,0,12,12,64,1,a shop that sells music and musical instruments the thing in the yellow box is slightly longer than the other picture.,a shop that sells music and musical instruments the thing in the yellow box is slightly shorter than the other picture,ma,16527526,2,33,A3TS15DY3N8JHE,2021-01-07_05h11.18.723,MetaAwareness,2020.1.2,Win32,60,3EGKVCRQFXVYJWO4AACJRUJWTS8BYC,A3TS15DY3N8JHE,3RRCEFRB7NFL798EB5TEZOADNZG4BA,BERR5,BERR5,3RRCEFRB7NFL798EB5TEZOADNZG4BA,3RRCEFRB7NFL798EB5TEZOADNZG4BA,267585,267585,,,,,,,,,,
,,,,2,11.382465,0,13,13,195,1,a display of colorful cakes and treats. one cake is a large smiling face with a yellos mouth.,a display of colorful cakes and treats. one cake is a large smiling face with a red mouth.,ma,46635293,5,33,A3TS15DY3N8JHE,2021-01-07_05h11.18.723,MetaAwareness,2020.1.2,Win32,60,3EGKVCRQFXVYJWO4AACJRUJWTS8BYC,A3TS15DY3N8JHE,3RRCEFRB7NFL798EB5TEZOADNZG4BA,BERR5,BERR5,3RRCEFRB7NFL798EB5TEZOADNZG4BA,3RRCEFRB7NFL798EB5TEZOADNZG4BA,267585,267585,,,,,,,,,,
,,,,3,7.562325,0,14,14,397,1,an electronic board with 5 small metal rods in the center and 1 long metal rod,an electronic board with 6 sall metal rods in the center ,ma,8197559,4,33,A3TS15DY3N8JHE,2021-01-07_05h11.18.723,MetaAwareness,2020.1.2,Win32,60,3EGKVCRQFXVYJWO4AACJRUJWTS8BYC,A3TS15DY3N8JHE,3RRCEFRB7NFL798EB5TEZOADNZG4BA,BERR5,BERR5,3RRCEFRB7NFL798EB5TEZOADNZG4BA,3RRCEFRB7NFL798EB5TEZOADNZG4BA,267585,267585,,,,,,,,,,
,,,,3,16.618425,0,15,15,170,1,"a desk containing a computer with two shelves above it. the second shelf has two clear labelled boxes, one with a label at the top and one with the label at the bottom","a desk containing a computer with two shelves above it. the second shelf has two clear labelled boxes, both with the label at the top",ma,4247084,5,33,A3TS15DY3N8JHE,2021-01-07_05h11.18.723,MetaAwareness,2020.1.2,Win32,60,3EGKVCRQFXVYJWO4AACJRUJWTS8BYC,A3TS15DY3N8JHE,3RRCEFRB7NFL798EB5TEZOADNZG4BA,BERR5,BERR5,3RRCEFRB7NFL798EB5TEZOADNZG4BA,3RRCEFRB7NFL798EB5TEZOADNZG4BA,267585,267585,,,,,,,,,,
,,,,3,7.11491,0,16,16,441,1,various treats on a table without a lollipop stick,various treats on a table with a lollipop stick,ma,86520382,6,33,A3TS15DY3N8JHE,2021-01-07_05h11.18.723,MetaAwareness,2020.1.2,Win32,60,3EGKVCRQFXVYJWO4AACJRUJWTS8BYC,A3TS15DY3N8JHE,3RRCEFRB7NFL798EB5TEZOADNZG4BA,BERR5,BERR5,3RRCEFRB7NFL798EB5TEZOADNZG4BA,3RRCEFRB7NFL798EB5TEZOADNZG4BA,267585,267585,,,,,,,,,,
,,,,4,12.824795,0,17,17,291,1,a display for a business that contains the business address and brand oak 63,a display for a business that contains the business address and web address allong with the phone number and the brand oak 63,ma,69128765,11,33,A3TS15DY3N8JHE,2021-01-07_05h11.18.723,MetaAwareness,2020.1.2,Win32,60,3EGKVCRQFXVYJWO4AACJRUJWTS8BYC,A3TS15DY3N8JHE,3RRCEFRB7NFL798EB5TEZOADNZG4BA,BERR5,BERR5,3RRCEFRB7NFL798EB5TEZOADNZG4BA,3RRCEFRB7NFL798EB5TEZOADNZG4BA,267585,267585,,,,,,,,,,
,,,,3,10.880005,0,18,18,125,1,"a quilt, with blue, red and apple handprints on the sides. the bottom center has an image of a green apple","a quilt, with blue, red and apple handprints on the sides. the bottom center has an image of an orange apple",ma,3099758,4,33,A3TS15DY3N8JHE,2021-01-07_05h11.18.723,MetaAwareness,2020.1.2,Win32,60,3EGKVCRQFXVYJWO4AACJRUJWTS8BYC,A3TS15DY3N8JHE,3RRCEFRB7NFL798EB5TEZOADNZG4BA,BERR5,BERR5,3RRCEFRB7NFL798EB5TEZOADNZG4BA,3RRCEFRB7NFL798EB5TEZOADNZG4BA,267585,267585,,,,,,,,,,
,,,,3,8.429789999,0,19,19,515,1,different sets of book with a black book containing a lady's pic on its right corner.,different sets of book with a black book containing a lady's pic on its left corner.,ma,98265889,8,33,A3TS15DY3N8JHE,2021-01-07_05h11.18.723,MetaAwareness,2020.1.2,Win32,60,3EGKVCRQFXVYJWO4AACJRUJWTS8BYC,A3TS15DY3N8JHE,3RRCEFRB7NFL798EB5TEZOADNZG4BA,BERR5,BERR5,3RRCEFRB7NFL798EB5TEZOADNZG4BA,3RRCEFRB7NFL798EB5TEZOADNZG4BA,267585,267585,,,,,,,,,,
,,,,1,14.364305,0,20,20,47,1,a halloween themed quilt with little craft pumpkins,pictures of small fall trees on a halloween themed quilt,ma,1383096,2,33,A3TS15DY3N8JHE,2021-01-07_05h11.18.723,MetaAwareness,2020.1.2,Win32,60,3EGKVCRQFXVYJWO4AACJRUJWTS8BYC,A3TS15DY3N8JHE,3RRCEFRB7NFL798EB5TEZOADNZG4BA,BERR5,BERR5,3RRCEFRB7NFL798EB5TEZOADNZG4BA,3RRCEFRB7NFL798EB5TEZOADNZG4BA,267585,267585,,,,,,,,,,
,,,,2,8.4502,0,21,21,209,1,6 toys on the floor with the pink one in the front,6 toys on the floor with the purple one in the front,ma,48384711,8,33,A3TS15DY3N8JHE,2021-01-07_05h11.18.723,MetaAwareness,2020.1.2,Win32,60,3EGKVCRQFXVYJWO4AACJRUJWTS8BYC,A3TS15DY3N8JHE,3RRCEFRB7NFL798EB5TEZOADNZG4BA,BERR5,BERR5,3RRCEFRB7NFL798EB5TEZOADNZG4BA,3RRCEFRB7NFL798EB5TEZOADNZG4BA,267585,267585,,,,,,,,,,
,,,,3,9.10806,0,22,22,273,1,a bunch of old cups and fancy china with a green bowl.,a bunch of old cups and fancy china with a yellow bowl,ma,62224663,9,33,A3TS15DY3N8JHE,2021-01-07_05h11.18.723,MetaAwareness,2020.1.2,Win32,60,3EGKVCRQFXVYJWO4AACJRUJWTS8BYC,A3TS15DY3N8JHE,3RRCEFRB7NFL798EB5TEZOADNZG4BA,BERR5,BERR5,3RRCEFRB7NFL798EB5TEZOADNZG4BA,3RRCEFRB7NFL798EB5TEZOADNZG4BA,267585,267585,,,,,,,,,,
,,,,3,27.788365,0,23,23,180,1,"a table with two wood projects a plastic container, rag, glue, hammer and pencils","a table outside with two wood projects, a hammer, a green plastic container, one pencil, rag, glue",ma,45525109,2,33,A3TS15DY3N8JHE,2021-01-07_05h11.18.723,MetaAwareness,2020.1.2,Win32,60,3EGKVCRQFXVYJWO4AACJRUJWTS8BYC,A3TS15DY3N8JHE,3RRCEFRB7NFL798EB5TEZOADNZG4BA,BERR5,BERR5,3RRCEFRB7NFL798EB5TEZOADNZG4BA,3RRCEFRB7NFL798EB5TEZOADNZG4BA,267585,267585,,,,,,,,,,
,,,,2,47.338065,0,24,24,299,1,"a striped material blanket of red, green, and white with a red dotted square on the right center","a striped material blanket of red, green, and white with a peach square on the right center",ma,70687495,8,33,A3TS15DY3N8JHE,2021-01-07_05h11.18.723,MetaAwareness,2020.1.2,Win32,60,3EGKVCRQFXVYJWO4AACJRUJWTS8BYC,A3TS15DY3N8JHE,3RRCEFRB7NFL798EB5TEZOADNZG4BA,BERR5,BERR5,3RRCEFRB7NFL798EB5TEZOADNZG4BA,3RRCEFRB7NFL798EB5TEZOADNZG4BA,267585,267585,,,,,,,,,,
,,,,3,12.74056,0,25,25,0,1,"there is a picture, a lamp, a flower vase, a letter a decor and a blue ball with a big  white cup in the picture","there is a picture, a lamp, a flower vase, a letter a decor and a blue ball with a small white cup in the picture",ma,10504629,1,33,A3TS15DY3N8JHE,2021-01-07_05h11.18.723,MetaAwareness,2020.1.2,Win32,60,3EGKVCRQFXVYJWO4AACJRUJWTS8BYC,A3TS15DY3N8JHE,3RRCEFRB7NFL798EB5TEZOADNZG4BA,BERR5,BERR5,3RRCEFRB7NFL798EB5TEZOADNZG4BA,3RRCEFRB7NFL798EB5TEZOADNZG4BA,267585,267585,,,,,,,,,,
,,,,3,6.369605,0,26,26,366,1,a decoratve band in green,a decorative band in brown,ma,77793328,6,33,A3TS15DY3N8JHE,2021-01-07_05h11.18.723,MetaAwareness,2020.1.2,Win32,60,3EGKVCRQFXVYJWO4AACJRUJWTS8BYC,A3TS15DY3N8JHE,3RRCEFRB7NFL798EB5TEZOADNZG4BA,BERR5,BERR5,3RRCEFRB7NFL798EB5TEZOADNZG4BA,3RRCEFRB7NFL798EB5TEZOADNZG4BA,267585,267585,,,,,,,,,,
,,,,2,13.329505,0,27,27,257,1,a white table with pink treats and a jar with a crooked label,a white table with pink treats and the jars all have straight labels,ma,61118260,5,33,A3TS15DY3N8JHE,2021-01-07_05h11.18.723,MetaAwareness,2020.1.2,Win32,60,3EGKVCRQFXVYJWO4AACJRUJWTS8BYC,A3TS15DY3N8JHE,3RRCEFRB7NFL798EB5TEZOADNZG4BA,BERR5,BERR5,3RRCEFRB7NFL798EB5TEZOADNZG4BA,3RRCEFRB7NFL798EB5TEZOADNZG4BA,267585,267585,,,,,,,,,,
,,,,3,24.168995,0,28,28,262,1,"a figure of a donkey sits near a card with a number 2 on it, and a white card with flowers on it. it is surrounded by numbers, including a sideways number 6.","a figure of a donkey sits near a card with a number 2 on it, and a white card with flowers on it. it is surrounded by numbers, including a normal number 6.",ma,62096551,4,33,A3TS15DY3N8JHE,2021-01-07_05h11.18.723,MetaAwareness,2020.1.2,Win32,60,3EGKVCRQFXVYJWO4AACJRUJWTS8BYC,A3TS15DY3N8JHE,3RRCEFRB7NFL798EB5TEZOADNZG4BA,BERR5,BERR5,3RRCEFRB7NFL798EB5TEZOADNZG4BA,3RRCEFRB7NFL798EB5TEZOADNZG4BA,267585,267585,,,,,,,,,,
,,,,3,21.613495,0,29,29,139,1,an overflowing toybox with a name on the front and a tilted yellow star underneath.,an overflowing toybox with a name on the front and a centered yellow star underneath. ,ma,32289063,9,33,A3TS15DY3N8JHE,2021-01-07_05h11.18.723,MetaAwareness,2020.1.2,Win32,60,3EGKVCRQFXVYJWO4AACJRUJWTS8BYC,A3TS15DY3N8JHE,3RRCEFRB7NFL798EB5TEZOADNZG4BA,BERR5,BERR5,3RRCEFRB7NFL798EB5TEZOADNZG4BA,3RRCEFRB7NFL798EB5TEZOADNZG4BA,267585,267585,,,,,,,,,,
,,,,,,,,,,,,,,,,33,A3TS15DY3N8JHE,2021-01-07_05h11.18.723,MetaAwareness,2020.1.2,Win32,60,3EGKVCRQFXVYJWO4AACJRUJWTS8BYC,A3TS15DY3N8JHE,3RRCEFRB7NFL798EB5TEZOADNZG4BA,BERR5,BERR5,3RRCEFRB7NFL798EB5TEZOADNZG4BA,3RRCEFRB7NFL798EB5TEZOADNZG4BA,267585,267585,6,9.178765,someone laying underneath a blue beach umbrella on a crowded beach,someone laying underneath a blue beach umbrella on a crowded beach,same,1,7.69127,members of a marching band crossing a track that all have feather plumes at the front of their hats,a cluttered and rustic looking cafe with 10 hanging lights,different