consent_response.keys,consent_response.rt,key_resp_2.keys,key_resp_2.rt,user_resp.keys,user_resp.rt,trials.thisRepN,trials.thisTrialN,trials.thisN,trials.thisIndex,trials.ran,image_1_text,image_2_text,database,image,number,age,worker_ID,date,expName,psychopyVersion,OS,frameRate,hitId,workerId,assignmentId,a,tp_a,b,tp_b,c,tp_c,catch_same_resp.keys,catch_same_resp.rt,image_1_text_catch_same,image_2_text_catch_same,image_catch_same,catch_different_resp.keys,catch_different_resp.rt,image_1_text_catch_different,image_2_text_catch_different,image_catch_different
space,6.8928,space,6.000935,5,12.17234,0,0,0,50,1,a halloween themed blanket with three pumpkins in the background,a halloween themed blanket with two pumpkins in the background,ma,1383096,5,31,ALYR5CI2SM2JC,2021-01-07_05h50.36.058,MetaAwareness,2020.1.2,Win32,60,3N5YJ55YXH6ZONFYXU3CF31J7QKNA4,ALYR5CI2SM2JC,34BBWHLWHBE73J54RLREG3XH2J3IWP,WWB45,WWB45,34BBWHLWHBE73J54RLREG3XH2J3IWP,34BBWHLWHBE73J54RLREG3XH2J3IWP,267585,267585,,,,,,,,,,
,,,,5,18.400685,0,1,1,164,1,an ornately decorated wooden design that has a squiggly line carved in it in one place,an ornately decorated wooden design that has plain wood in one place amongst squiggly carved lines,ma,42429798,8,31,ALYR5CI2SM2JC,2021-01-07_05h50.36.058,MetaAwareness,2020.1.2,Win32,60,3N5YJ55YXH6ZONFYXU3CF31J7QKNA4,ALYR5CI2SM2JC,34BBWHLWHBE73J54RLREG3XH2J3IWP,WWB45,WWB45,34BBWHLWHBE73J54RLREG3XH2J3IWP,34BBWHLWHBE73J54RLREG3XH2J3IWP,267585,267585,,,,,,,,,,
,,,,2,17.302955,0,2,2,147,1,their is a grey color round shade available on outside of photo frame.,their is no shaded available on outside of photo frame.,ma,38546029,1,31,ALYR5CI2SM2JC,2021-01-07_05h50.36.058,MetaAwareness,2020.1.2,Win32,60,3N5YJ55YXH6ZONFYXU3CF31J7QKNA4,ALYR5CI2SM2JC,34BBWHLWHBE73J54RLREG3XH2J3IWP,WWB45,WWB45,34BBWHLWHBE73J54RLREG3XH2J3IWP,34BBWHLWHBE73J54RLREG3XH2J3IWP,267585,267585,,,,,,,,,,
,,,,5,18.654025,0,3,3,149,1,"a shelf arrangement with 2 flower vases, some other knicknacks, pictures of children, and a board with 2 silver circles in it ","a shelf arrangement with 2 flower vases, some other knicknacks, pictures of children, and a board with 1 silver circle in  it ",ma,38546029,3,31,ALYR5CI2SM2JC,2021-01-07_05h50.36.058,MetaAwareness,2020.1.2,Win32,60,3N5YJ55YXH6ZONFYXU3CF31J7QKNA4,ALYR5CI2SM2JC,34BBWHLWHBE73J54RLREG3XH2J3IWP,WWB45,WWB45,34BBWHLWHBE73J54RLREG3XH2J3IWP,34BBWHLWHBE73J54RLREG3XH2J3IWP,267585,267585,,,,,,,,,,
,,,,5,12.647685,0,4,4,92,1,a quilt picture in a frame with a gray house with a large four paned window on the front.,a quilt picture in a frane with a gray house with a small four panes window on the front.,ma,23024660,9,31,ALYR5CI2SM2JC,2021-01-07_05h50.36.058,MetaAwareness,2020.1.2,Win32,60,3N5YJ55YXH6ZONFYXU3CF31J7QKNA4,ALYR5CI2SM2JC,34BBWHLWHBE73J54RLREG3XH2J3IWP,WWB45,WWB45,34BBWHLWHBE73J54RLREG3XH2J3IWP,34BBWHLWHBE73J54RLREG3XH2J3IWP,267585,267585,,,,,,,,,,
,,,,6,5.82465,0,5,5,0,1,"there is a picture, a lamp, a flower vase, a letter a decor and a blue ball with a big  white cup in the picture","there is a picture, a lamp, a flower vase, a letter a decor and a blue ball with a small white cup in the picture",ma,10504629,1,31,ALYR5CI2SM2JC,2021-01-07_05h50.36.058,MetaAwareness,2020.1.2,Win32,60,3N5YJ55YXH6ZONFYXU3CF31J7QKNA4,ALYR5CI2SM2JC,34BBWHLWHBE73J54RLREG3XH2J3IWP,WWB45,WWB45,34BBWHLWHBE73J54RLREG3XH2J3IWP,34BBWHLWHBE73J54RLREG3XH2J3IWP,267585,267585,,,,,,,,,,
,,,,6,6.9333,0,6,6,385,1,u2 decorations with targets and a small explosion in the bottom right corner the u2 in the yellow box is slightly lower than the other picture.,u2 decorations with targets and a small explosion in the bottom right corner the u2 in the yellow box is slightly higher than the other picture.,ma,79241011,2,31,ALYR5CI2SM2JC,2021-01-07_05h50.36.058,MetaAwareness,2020.1.2,Win32,60,3N5YJ55YXH6ZONFYXU3CF31J7QKNA4,ALYR5CI2SM2JC,34BBWHLWHBE73J54RLREG3XH2J3IWP,WWB45,WWB45,34BBWHLWHBE73J54RLREG3XH2J3IWP,34BBWHLWHBE73J54RLREG3XH2J3IWP,267585,267585,,,,,,,,,,
,,,,5,25.315905,0,7,7,468,1,an array of green beanbags with fabric patterned circles on top and a few gold envelopes with a stamp that has red and yellow within a green circle near the top of the stamp. the yellow is on the top ,an array of green beanbags with fabric patterned circles on top and a few gold envelopes with a stamp that has red on top and yellow on the bottom within a green circle near the top of the stamp,ma,8974554,6,31,ALYR5CI2SM2JC,2021-01-07_05h50.36.058,MetaAwareness,2020.1.2,Win32,60,3N5YJ55YXH6ZONFYXU3CF31J7QKNA4,ALYR5CI2SM2JC,34BBWHLWHBE73J54RLREG3XH2J3IWP,WWB45,WWB45,34BBWHLWHBE73J54RLREG3XH2J3IWP,34BBWHLWHBE73J54RLREG3XH2J3IWP,267585,267585,,,,,,,,,,
,,,,4,15.05609,0,8,8,322,1,"a wooden shelf with books,bird statues and guages with a dial pointing to the upper left.","a wooden shelf with books, bird statues and guages with a dial point to the right.",ma,74173745,2,31,ALYR5CI2SM2JC,2021-01-07_05h50.36.058,MetaAwareness,2020.1.2,Win32,60,3N5YJ55YXH6ZONFYXU3CF31J7QKNA4,ALYR5CI2SM2JC,34BBWHLWHBE73J54RLREG3XH2J3IWP,WWB45,WWB45,34BBWHLWHBE73J54RLREG3XH2J3IWP,34BBWHLWHBE73J54RLREG3XH2J3IWP,267585,267585,,,,,,,,,,
,,,,4,7.17175,0,9,9,257,1,a white table with pink treats and a jar with a crooked label,a white table with pink treats and the jars all have straight labels,ma,61118260,5,31,ALYR5CI2SM2JC,2021-01-07_05h50.36.058,MetaAwareness,2020.1.2,Win32,60,3N5YJ55YXH6ZONFYXU3CF31J7QKNA4,ALYR5CI2SM2JC,34BBWHLWHBE73J54RLREG3XH2J3IWP,WWB45,WWB45,34BBWHLWHBE73J54RLREG3XH2J3IWP,34BBWHLWHBE73J54RLREG3XH2J3IWP,267585,267585,,,,,,,,,,
,,,,4,10.472125,0,10,10,450,1, a dining table with red flower printed pattern and only one orange flower .,a dining table with all red flower printed pattern.,ma,87983207,9,31,ALYR5CI2SM2JC,2021-01-07_05h50.36.058,MetaAwareness,2020.1.2,Win32,60,3N5YJ55YXH6ZONFYXU3CF31J7QKNA4,ALYR5CI2SM2JC,34BBWHLWHBE73J54RLREG3XH2J3IWP,WWB45,WWB45,34BBWHLWHBE73J54RLREG3XH2J3IWP,34BBWHLWHBE73J54RLREG3XH2J3IWP,267585,267585,,,,,,,,,,
,,,,4,16.794505,0,11,11,430,1,a variety of colorful lamps and one with a yellow top,a variety of colored lamps and one  with a white top.,ma,85741618,1,31,ALYR5CI2SM2JC,2021-01-07_05h50.36.058,MetaAwareness,2020.1.2,Win32,60,3N5YJ55YXH6ZONFYXU3CF31J7QKNA4,ALYR5CI2SM2JC,34BBWHLWHBE73J54RLREG3XH2J3IWP,WWB45,WWB45,34BBWHLWHBE73J54RLREG3XH2J3IWP,34BBWHLWHBE73J54RLREG3XH2J3IWP,267585,267585,,,,,,,,,,
,,,,5,8.30779,0,12,12,218,1,a tray of sushi with a long roll in the bottom-center.,a tray of sushi with a medium-sized toll in the bottom-center.,ma,48486405,5,31,ALYR5CI2SM2JC,2021-01-07_05h50.36.058,MetaAwareness,2020.1.2,Win32,60,3N5YJ55YXH6ZONFYXU3CF31J7QKNA4,ALYR5CI2SM2JC,34BBWHLWHBE73J54RLREG3XH2J3IWP,WWB45,WWB45,34BBWHLWHBE73J54RLREG3XH2J3IWP,34BBWHLWHBE73J54RLREG3XH2J3IWP,267585,267585,,,,,,,,,,
,,,,4,7.02211,0,13,13,211,1,a group of six toys where the one in the front has pink legs,a group of six toys where the one in the front has purple legs,ma,48384711,10,31,ALYR5CI2SM2JC,2021-01-07_05h50.36.058,MetaAwareness,2020.1.2,Win32,60,3N5YJ55YXH6ZONFYXU3CF31J7QKNA4,ALYR5CI2SM2JC,34BBWHLWHBE73J54RLREG3XH2J3IWP,WWB45,WWB45,34BBWHLWHBE73J54RLREG3XH2J3IWP,34BBWHLWHBE73J54RLREG3XH2J3IWP,267585,267585,,,,,,,,,,
,,,,5,15.45272,0,14,14,427,1,a dish towel hanging on an oven handle that reads 'eat' with a small 'a' ,a dish towel hanging on an oven handle that reads 'eat' with a large'a',ma,83785171,4,31,ALYR5CI2SM2JC,2021-01-07_05h50.36.058,MetaAwareness,2020.1.2,Win32,60,3N5YJ55YXH6ZONFYXU3CF31J7QKNA4,ALYR5CI2SM2JC,34BBWHLWHBE73J54RLREG3XH2J3IWP,WWB45,WWB45,34BBWHLWHBE73J54RLREG3XH2J3IWP,34BBWHLWHBE73J54RLREG3XH2J3IWP,267585,267585,,,,,,,,,,
,,,,4,4.57151,0,15,15,52,1,the pillow is front,the pillow is somewhat back,ma,13873251,2,31,ALYR5CI2SM2JC,2021-01-07_05h50.36.058,MetaAwareness,2020.1.2,Win32,60,3N5YJ55YXH6ZONFYXU3CF31J7QKNA4,ALYR5CI2SM2JC,34BBWHLWHBE73J54RLREG3XH2J3IWP,WWB45,WWB45,34BBWHLWHBE73J54RLREG3XH2J3IWP,34BBWHLWHBE73J54RLREG3XH2J3IWP,267585,267585,,,,,,,,,,
,,,,5,9.85097,0,16,16,259,1,deer near a wall of numbers. all numbers are vertical except number 6,deer near a wall of numbers. all numbers are vertical.,ma,62096551,1,31,ALYR5CI2SM2JC,2021-01-07_05h50.36.058,MetaAwareness,2020.1.2,Win32,60,3N5YJ55YXH6ZONFYXU3CF31J7QKNA4,ALYR5CI2SM2JC,34BBWHLWHBE73J54RLREG3XH2J3IWP,WWB45,WWB45,34BBWHLWHBE73J54RLREG3XH2J3IWP,34BBWHLWHBE73J54RLREG3XH2J3IWP,267585,267585,,,,,,,,,,
,,,,6,7.418265,0,17,17,171,1,a computer desk with a computer a tablet office supplies and a bin with a label in the middle of the front of the bin,a computer desk with a computer a tablet office supplies and a bin with a label on the top of the front of the bin,ma,4247084,6,31,ALYR5CI2SM2JC,2021-01-07_05h50.36.058,MetaAwareness,2020.1.2,Win32,60,3N5YJ55YXH6ZONFYXU3CF31J7QKNA4,ALYR5CI2SM2JC,34BBWHLWHBE73J54RLREG3XH2J3IWP,WWB45,WWB45,34BBWHLWHBE73J54RLREG3XH2J3IWP,34BBWHLWHBE73J54RLREG3XH2J3IWP,267585,267585,,,,,,,,,,
,,,,5,6.796405,0,18,18,457,1,a sowing desk that is very organized the yellow box has an additional sticker on it.,a sowing desk that is very organized the yellow box has no sticker on it.,ma,89354846,1,31,ALYR5CI2SM2JC,2021-01-07_05h50.36.058,MetaAwareness,2020.1.2,Win32,60,3N5YJ55YXH6ZONFYXU3CF31J7QKNA4,ALYR5CI2SM2JC,34BBWHLWHBE73J54RLREG3XH2J3IWP,WWB45,WWB45,34BBWHLWHBE73J54RLREG3XH2J3IWP,34BBWHLWHBE73J54RLREG3XH2J3IWP,267585,267585,,,,,,,,,,
,,,,5,7.50082,0,19,19,471,1,an assortment of small pillowlike green items,an assortment of small pillowlike green items and a manilla envelope with a stamp in the corner,ma,8974554,9,31,ALYR5CI2SM2JC,2021-01-07_05h50.36.058,MetaAwareness,2020.1.2,Win32,60,3N5YJ55YXH6ZONFYXU3CF31J7QKNA4,ALYR5CI2SM2JC,34BBWHLWHBE73J54RLREG3XH2J3IWP,WWB45,WWB45,34BBWHLWHBE73J54RLREG3XH2J3IWP,34BBWHLWHBE73J54RLREG3XH2J3IWP,267585,267585,,,,,,,,,,
,,,,5,12.41879,0,20,20,182,1,"a hammer sits on a table, next to a yellow squirt jar, a cloth, and an open box. next to the hammer appears to be a pencil.","a hammer sits on a table, next to a yellow squirt jar, a cloth, and an open box. there appears to be nothing sitting directly next to the hammer.",ma,45525109,4,31,ALYR5CI2SM2JC,2021-01-07_05h50.36.058,MetaAwareness,2020.1.2,Win32,60,3N5YJ55YXH6ZONFYXU3CF31J7QKNA4,ALYR5CI2SM2JC,34BBWHLWHBE73J54RLREG3XH2J3IWP,WWB45,WWB45,34BBWHLWHBE73J54RLREG3XH2J3IWP,34BBWHLWHBE73J54RLREG3XH2J3IWP,267585,267585,,,,,,,,,,
,,,,4,6.56706,0,21,21,271,1,a green inner lined bowl sits with other dishes on a table,a creamy inner lined bowl sits with other dishes on a table,ma,62224663,7,31,ALYR5CI2SM2JC,2021-01-07_05h50.36.058,MetaAwareness,2020.1.2,Win32,60,3N5YJ55YXH6ZONFYXU3CF31J7QKNA4,ALYR5CI2SM2JC,34BBWHLWHBE73J54RLREG3XH2J3IWP,WWB45,WWB45,34BBWHLWHBE73J54RLREG3XH2J3IWP,34BBWHLWHBE73J54RLREG3XH2J3IWP,267585,267585,,,,,,,,,,
,,,,4,8.56515,0,22,22,154,1,a wooden picture frame with a dot on the bottom,a wooden picture frame without a dot on the bottom,ma,38546029,8,31,ALYR5CI2SM2JC,2021-01-07_05h50.36.058,MetaAwareness,2020.1.2,Win32,60,3N5YJ55YXH6ZONFYXU3CF31J7QKNA4,ALYR5CI2SM2JC,34BBWHLWHBE73J54RLREG3XH2J3IWP,WWB45,WWB45,34BBWHLWHBE73J54RLREG3XH2J3IWP,34BBWHLWHBE73J54RLREG3XH2J3IWP,267585,267585,,,,,,,,,,
,,,,4,3.683825,0,23,23,46,1,two yellow pumpkins sitting on a colorful quilt,one yellow pumpkins sitting on a colorful quilt,ma,1383096,1,31,ALYR5CI2SM2JC,2021-01-07_05h50.36.058,MetaAwareness,2020.1.2,Win32,60,3N5YJ55YXH6ZONFYXU3CF31J7QKNA4,ALYR5CI2SM2JC,34BBWHLWHBE73J54RLREG3XH2J3IWP,WWB45,WWB45,34BBWHLWHBE73J54RLREG3XH2J3IWP,34BBWHLWHBE73J54RLREG3XH2J3IWP,267585,267585,,,,,,,,,,
,,,,4,15.378375,0,24,24,236,1,a man sitting at a table with halloween decorations including an orange pumpkin with a nose near its mouth,a man sitting at a table with halloween decorations including an orange pumpkin with a nose near its eyes,ma,55174490,3,31,ALYR5CI2SM2JC,2021-01-07_05h50.36.058,MetaAwareness,2020.1.2,Win32,60,3N5YJ55YXH6ZONFYXU3CF31J7QKNA4,ALYR5CI2SM2JC,34BBWHLWHBE73J54RLREG3XH2J3IWP,WWB45,WWB45,34BBWHLWHBE73J54RLREG3XH2J3IWP,34BBWHLWHBE73J54RLREG3XH2J3IWP,267585,267585,,,,,,,,,,
,,,,4,8.661425,0,25,25,304,1,"a bunch of halloween play-dough objects, one of which has a bat turned to the right on it's chest","a bunch of halloween play-dough objects, one of which has a bat turned the left on it's chest",ma,72488522,4,31,ALYR5CI2SM2JC,2021-01-07_05h50.36.058,MetaAwareness,2020.1.2,Win32,60,3N5YJ55YXH6ZONFYXU3CF31J7QKNA4,ALYR5CI2SM2JC,34BBWHLWHBE73J54RLREG3XH2J3IWP,WWB45,WWB45,34BBWHLWHBE73J54RLREG3XH2J3IWP,34BBWHLWHBE73J54RLREG3XH2J3IWP,267585,267585,,,,,,,,,,
,,,,4,7.580225,0,26,26,167,1,an old computer desk set up in an office with oddly labeled shelfed containers,an old computer desk set up in an office with evenly labeled shelfed containers,ma,4247084,2,31,ALYR5CI2SM2JC,2021-01-07_05h50.36.058,MetaAwareness,2020.1.2,Win32,60,3N5YJ55YXH6ZONFYXU3CF31J7QKNA4,ALYR5CI2SM2JC,34BBWHLWHBE73J54RLREG3XH2J3IWP,WWB45,WWB45,34BBWHLWHBE73J54RLREG3XH2J3IWP,34BBWHLWHBE73J54RLREG3XH2J3IWP,267585,267585,,,,,,,,,,
,,,,4,7.4744,0,27,27,13,1,a dinner table with three round candles and one oblong candle.,a dinner table with four round candles.,ma,10810329,7,31,ALYR5CI2SM2JC,2021-01-07_05h50.36.058,MetaAwareness,2020.1.2,Win32,60,3N5YJ55YXH6ZONFYXU3CF31J7QKNA4,ALYR5CI2SM2JC,34BBWHLWHBE73J54RLREG3XH2J3IWP,WWB45,WWB45,34BBWHLWHBE73J54RLREG3XH2J3IWP,34BBWHLWHBE73J54RLREG3XH2J3IWP,267585,267585,,,,,,,,,,
,,,,4,5.785865,0,28,28,438,1,a plethora of desserts and a sucker without a stick,a plethora of desserts and a sucker with a stick,ma,86520382,3,31,ALYR5CI2SM2JC,2021-01-07_05h50.36.058,MetaAwareness,2020.1.2,Win32,60,3N5YJ55YXH6ZONFYXU3CF31J7QKNA4,ALYR5CI2SM2JC,34BBWHLWHBE73J54RLREG3XH2J3IWP,WWB45,WWB45,34BBWHLWHBE73J54RLREG3XH2J3IWP,34BBWHLWHBE73J54RLREG3XH2J3IWP,267585,267585,,,,,,,,,,
,,,,4,5.021625,0,29,29,89,1,a frame on a table ,a frame with a quilt on a table,ma,23024660,6,31,ALYR5CI2SM2JC,2021-01-07_05h50.36.058,MetaAwareness,2020.1.2,Win32,60,3N5YJ55YXH6ZONFYXU3CF31J7QKNA4,ALYR5CI2SM2JC,34BBWHLWHBE73J54RLREG3XH2J3IWP,WWB45,WWB45,34BBWHLWHBE73J54RLREG3XH2J3IWP,34BBWHLWHBE73J54RLREG3XH2J3IWP,267585,267585,,,,,,,,,,
,,,,,,,,,,,,,,,,31,ALYR5CI2SM2JC,2021-01-07_05h50.36.058,MetaAwareness,2020.1.2,Win32,60,3N5YJ55YXH6ZONFYXU3CF31J7QKNA4,ALYR5CI2SM2JC,34BBWHLWHBE73J54RLREG3XH2J3IWP,WWB45,WWB45,34BBWHLWHBE73J54RLREG3XH2J3IWP,34BBWHLWHBE73J54RLREG3XH2J3IWP,267585,267585,6,5.52219,someone laying underneath a blue beach umbrella on a crowded beach,someone laying underneath a blue beach umbrella on a crowded beach,same,1,10.14349,members of a marching band crossing a track that all have feather plumes at the front of their hats,a cluttered and rustic looking cafe with 10 hanging lights,different