consent_response.keys,consent_response.rt,key_resp_2.keys,key_resp_2.rt,user_resp.keys,user_resp.rt,trials.thisRepN,trials.thisTrialN,trials.thisN,trials.thisIndex,trials.ran,image_1_text,image_2_text,database,image,number,age,worker_ID,date,expName,psychopyVersion,OS,frameRate,hitId,workerId,assignmentId,a,tp_a,b,tp_b,c,tp_c,catch_same_resp.keys,catch_same_resp.rt,image_1_text_catch_same,image_2_text_catch_same,image_catch_same,catch_different_resp.keys,catch_different_resp.rt,image_1_text_catch_different,image_2_text_catch_different,image_catch_different
space,17.752355,space,13.431455,6,51.03527,0,0,0,433,1,a group of colorfull lamps on a table. one has a soft green light.,a group of colorfull lamps on a table. one has a soft orange light,ma,85741618,4,53,AO32GL5867YY7,2021-01-07_08h10.24.339,MetaAwareness,2020.1.2,Win32,60,3EGKVCRQFXVYJWO4AACJRUJWTS8BYC,AO32GL5867YY7,3Z4XG4ZF49UT3DYHS4B95XHA8O08XU,FG4Z5,FG4Z5,3Z4XG4ZF49UT3DYHS4B95XHA8O08XU,3Z4XG4ZF49UT3DYHS4B95XHA8O08XU,267585,267585,,,,,,,,,,
,,,,1,18.66703,0,1,1,509,1,an informational table at a trade event with a black book with white figure on the right,an informational table at a trade event with a black book with white figure on the left,ma,98265889,2,53,AO32GL5867YY7,2021-01-07_08h10.24.339,MetaAwareness,2020.1.2,Win32,60,3EGKVCRQFXVYJWO4AACJRUJWTS8BYC,AO32GL5867YY7,3Z4XG4ZF49UT3DYHS4B95XHA8O08XU,FG4Z5,FG4Z5,3Z4XG4ZF49UT3DYHS4B95XHA8O08XU,3Z4XG4ZF49UT3DYHS4B95XHA8O08XU,267585,267585,,,,,,,,,,
,,,,2,20.529545,0,2,2,317,1,a chair cover with a pink butterfly at the top left,a chair cover with a red strawberry at the top left,ma,73637203,5,53,AO32GL5867YY7,2021-01-07_08h10.24.339,MetaAwareness,2020.1.2,Win32,60,3EGKVCRQFXVYJWO4AACJRUJWTS8BYC,AO32GL5867YY7,3Z4XG4ZF49UT3DYHS4B95XHA8O08XU,FG4Z5,FG4Z5,3Z4XG4ZF49UT3DYHS4B95XHA8O08XU,3Z4XG4ZF49UT3DYHS4B95XHA8O08XU,267585,267585,,,,,,,,,,
,,,,3,22.052425,0,3,3,160,1,a cluttered table with wood carving tools and an image that has a swirl above the circle,a clutered table with wood carving tools and an image with a blank space above the circle,ma,42429798,4,53,AO32GL5867YY7,2021-01-07_08h10.24.339,MetaAwareness,2020.1.2,Win32,60,3EGKVCRQFXVYJWO4AACJRUJWTS8BYC,AO32GL5867YY7,3Z4XG4ZF49UT3DYHS4B95XHA8O08XU,FG4Z5,FG4Z5,3Z4XG4ZF49UT3DYHS4B95XHA8O08XU,3Z4XG4ZF49UT3DYHS4B95XHA8O08XU,267585,267585,,,,,,,,,,
,,,,3,18.52256,0,4,4,171,1,a computer desk with a computer a tablet office supplies and a bin with a label in the middle of the front of the bin,a computer desk with a computer a tablet office supplies and a bin with a label on the top of the front of the bin,ma,4247084,6,53,AO32GL5867YY7,2021-01-07_08h10.24.339,MetaAwareness,2020.1.2,Win32,60,3EGKVCRQFXVYJWO4AACJRUJWTS8BYC,AO32GL5867YY7,3Z4XG4ZF49UT3DYHS4B95XHA8O08XU,FG4Z5,FG4Z5,3Z4XG4ZF49UT3DYHS4B95XHA8O08XU,3Z4XG4ZF49UT3DYHS4B95XHA8O08XU,267585,267585,,,,,,,,,,
,,,,4,19.265925,0,5,5,197,1, a selection of cakes and pastries are on display. a cake in the foreground has a face with a yellowing smiling mouth,a selectin of cases and pastries are on display. a cake in the foreground has a face with a red smiling mouth,ma,46635293,7,53,AO32GL5867YY7,2021-01-07_08h10.24.339,MetaAwareness,2020.1.2,Win32,60,3EGKVCRQFXVYJWO4AACJRUJWTS8BYC,AO32GL5867YY7,3Z4XG4ZF49UT3DYHS4B95XHA8O08XU,FG4Z5,FG4Z5,3Z4XG4ZF49UT3DYHS4B95XHA8O08XU,3Z4XG4ZF49UT3DYHS4B95XHA8O08XU,267585,267585,,,,,,,,,,
,,,,4,13.31754,0,6,6,91,1,"a quilt in a frame with houses, with the middle house having a large four pane window","a quilt in a frame with houses, with the middle house having a small window towards the second floor.",ma,23024660,8,53,AO32GL5867YY7,2021-01-07_08h10.24.339,MetaAwareness,2020.1.2,Win32,60,3EGKVCRQFXVYJWO4AACJRUJWTS8BYC,AO32GL5867YY7,3Z4XG4ZF49UT3DYHS4B95XHA8O08XU,FG4Z5,FG4Z5,3Z4XG4ZF49UT3DYHS4B95XHA8O08XU,3Z4XG4ZF49UT3DYHS4B95XHA8O08XU,267585,267585,,,,,,,,,,
,,,,4,15.17873,0,7,7,201,1,"many baked goods and confections, including a chocolate cake with a yellow smile, displayed in a shop window","many baked goods and confections, including a chocolate cake with a red smile, displayed in a shop window",ma,46635293,11,53,AO32GL5867YY7,2021-01-07_08h10.24.339,MetaAwareness,2020.1.2,Win32,60,3EGKVCRQFXVYJWO4AACJRUJWTS8BYC,AO32GL5867YY7,3Z4XG4ZF49UT3DYHS4B95XHA8O08XU,FG4Z5,FG4Z5,3Z4XG4ZF49UT3DYHS4B95XHA8O08XU,3Z4XG4ZF49UT3DYHS4B95XHA8O08XU,267585,267585,,,,,,,,,,
,,,,1,10.902085,0,8,8,343,1,a platter of gourmet cupcakes,a fondant banner with someone's name on it,ma,77345858,1,53,AO32GL5867YY7,2021-01-07_08h10.24.339,MetaAwareness,2020.1.2,Win32,60,3EGKVCRQFXVYJWO4AACJRUJWTS8BYC,AO32GL5867YY7,3Z4XG4ZF49UT3DYHS4B95XHA8O08XU,FG4Z5,FG4Z5,3Z4XG4ZF49UT3DYHS4B95XHA8O08XU,3Z4XG4ZF49UT3DYHS4B95XHA8O08XU,267585,267585,,,,,,,,,,
,,,,1,3.15552,0,9,9,128,1,the picture is large,the picture is small,ma,31236119,2,53,AO32GL5867YY7,2021-01-07_08h10.24.339,MetaAwareness,2020.1.2,Win32,60,3EGKVCRQFXVYJWO4AACJRUJWTS8BYC,AO32GL5867YY7,3Z4XG4ZF49UT3DYHS4B95XHA8O08XU,FG4Z5,FG4Z5,3Z4XG4ZF49UT3DYHS4B95XHA8O08XU,3Z4XG4ZF49UT3DYHS4B95XHA8O08XU,267585,267585,,,,,,,,,,
,,,,3,13.666005,0,10,10,236,1,a man sitting at a table with halloween decorations including an orange pumpkin with a nose near its mouth,a man sitting at a table with halloween decorations including an orange pumpkin with a nose near its eyes,ma,55174490,3,53,AO32GL5867YY7,2021-01-07_08h10.24.339,MetaAwareness,2020.1.2,Win32,60,3EGKVCRQFXVYJWO4AACJRUJWTS8BYC,AO32GL5867YY7,3Z4XG4ZF49UT3DYHS4B95XHA8O08XU,FG4Z5,FG4Z5,3Z4XG4ZF49UT3DYHS4B95XHA8O08XU,3Z4XG4ZF49UT3DYHS4B95XHA8O08XU,267585,267585,,,,,,,,,,
,,,,4,8.697615,0,11,11,469,1,an envelope with an upside down stamp,an envelope with a right side up stamp,ma,8974554,7,53,AO32GL5867YY7,2021-01-07_08h10.24.339,MetaAwareness,2020.1.2,Win32,60,3EGKVCRQFXVYJWO4AACJRUJWTS8BYC,AO32GL5867YY7,3Z4XG4ZF49UT3DYHS4B95XHA8O08XU,FG4Z5,FG4Z5,3Z4XG4ZF49UT3DYHS4B95XHA8O08XU,3Z4XG4ZF49UT3DYHS4B95XHA8O08XU,267585,267585,,,,,,,,,,
,,,,4,13.3084,0,12,12,67,1,a mango table cover  the mango in the yellow box has no stem and the dots are much larger than the other picture.,a mango table cover the mango in the yellow box has a stem and the dots are much smaller than the other picture.,ma,18169626,1,53,AO32GL5867YY7,2021-01-07_08h10.24.339,MetaAwareness,2020.1.2,Win32,60,3EGKVCRQFXVYJWO4AACJRUJWTS8BYC,AO32GL5867YY7,3Z4XG4ZF49UT3DYHS4B95XHA8O08XU,FG4Z5,FG4Z5,3Z4XG4ZF49UT3DYHS4B95XHA8O08XU,3Z4XG4ZF49UT3DYHS4B95XHA8O08XU,267585,267585,,,,,,,,,,
,,,,3,9.3174,0,13,13,323,1,"a bookshelf with books, trinkets and wooden birds. the clock in the box is at 1130 orientation","a bookshelf with books, trinkets and wooden birds. the clock in the box is at 200 orientation",ma,74173745,3,53,AO32GL5867YY7,2021-01-07_08h10.24.339,MetaAwareness,2020.1.2,Win32,60,3EGKVCRQFXVYJWO4AACJRUJWTS8BYC,AO32GL5867YY7,3Z4XG4ZF49UT3DYHS4B95XHA8O08XU,FG4Z5,FG4Z5,3Z4XG4ZF49UT3DYHS4B95XHA8O08XU,3Z4XG4ZF49UT3DYHS4B95XHA8O08XU,267585,267585,,,,,,,,,,
,,,,4,9.390095,0,14,14,173,1,"office desk with shelving onthe wall that holds two plastic containers, one  labelled high and one low.","office desk with shelving on the wall that holds two plastic containers, both with labels near their top.",ma,4247084,8,53,AO32GL5867YY7,2021-01-07_08h10.24.339,MetaAwareness,2020.1.2,Win32,60,3EGKVCRQFXVYJWO4AACJRUJWTS8BYC,AO32GL5867YY7,3Z4XG4ZF49UT3DYHS4B95XHA8O08XU,FG4Z5,FG4Z5,3Z4XG4ZF49UT3DYHS4B95XHA8O08XU,3Z4XG4ZF49UT3DYHS4B95XHA8O08XU,267585,267585,,,,,,,,,,
,,,,4,12.981245,0,15,15,410,1,a 3 story wide building with windows in each section except the end,a 3 story wide building with all windows in each section,ma,83536470,2,53,AO32GL5867YY7,2021-01-07_08h10.24.339,MetaAwareness,2020.1.2,Win32,60,3EGKVCRQFXVYJWO4AACJRUJWTS8BYC,AO32GL5867YY7,3Z4XG4ZF49UT3DYHS4B95XHA8O08XU,FG4Z5,FG4Z5,3Z4XG4ZF49UT3DYHS4B95XHA8O08XU,3Z4XG4ZF49UT3DYHS4B95XHA8O08XU,267585,267585,,,,,,,,,,
,,,,2,11.81859,0,16,16,183,1,art supplies on a table that has a pencil next to a hammer,art supplies on a table that does not have a pencil next to a hammer,ma,45525109,5,53,AO32GL5867YY7,2021-01-07_08h10.24.339,MetaAwareness,2020.1.2,Win32,60,3EGKVCRQFXVYJWO4AACJRUJWTS8BYC,AO32GL5867YY7,3Z4XG4ZF49UT3DYHS4B95XHA8O08XU,FG4Z5,FG4Z5,3Z4XG4ZF49UT3DYHS4B95XHA8O08XU,3Z4XG4ZF49UT3DYHS4B95XHA8O08XU,267585,267585,,,,,,,,,,
,,,,3,10.507305,0,17,17,405,1,a table set for a tea with name tags but one is blank,a table set for a tea with name tags ,ma,81993755,4,53,AO32GL5867YY7,2021-01-07_08h10.24.339,MetaAwareness,2020.1.2,Win32,60,3EGKVCRQFXVYJWO4AACJRUJWTS8BYC,AO32GL5867YY7,3Z4XG4ZF49UT3DYHS4B95XHA8O08XU,FG4Z5,FG4Z5,3Z4XG4ZF49UT3DYHS4B95XHA8O08XU,3Z4XG4ZF49UT3DYHS4B95XHA8O08XU,267585,267585,,,,,,,,,,
,,,,5,12.56278,0,18,18,163,1, a wood carving of an abstract tree with 11 squiggly branches ,a wood carving of an abstract tree with 10 squiggly branches,ma,42429798,7,53,AO32GL5867YY7,2021-01-07_08h10.24.339,MetaAwareness,2020.1.2,Win32,60,3EGKVCRQFXVYJWO4AACJRUJWTS8BYC,AO32GL5867YY7,3Z4XG4ZF49UT3DYHS4B95XHA8O08XU,FG4Z5,FG4Z5,3Z4XG4ZF49UT3DYHS4B95XHA8O08XU,3Z4XG4ZF49UT3DYHS4B95XHA8O08XU,267585,267585,,,,,,,,,,
,,,,4,4.030285,0,19,19,459,1,a craft room with three red storage bins one has 2 handles on the front,a craft room with three red storage bins all identical with one handle each,ma,89354846,3,53,AO32GL5867YY7,2021-01-07_08h10.24.339,MetaAwareness,2020.1.2,Win32,60,3EGKVCRQFXVYJWO4AACJRUJWTS8BYC,AO32GL5867YY7,3Z4XG4ZF49UT3DYHS4B95XHA8O08XU,FG4Z5,FG4Z5,3Z4XG4ZF49UT3DYHS4B95XHA8O08XU,3Z4XG4ZF49UT3DYHS4B95XHA8O08XU,267585,267585,,,,,,,,,,
,,,,6,11.93768,0,20,20,86,1,picture with houses with windows,picture with houses with windows ,ma,23024660,3,53,AO32GL5867YY7,2021-01-07_08h10.24.339,MetaAwareness,2020.1.2,Win32,60,3EGKVCRQFXVYJWO4AACJRUJWTS8BYC,AO32GL5867YY7,3Z4XG4ZF49UT3DYHS4B95XHA8O08XU,FG4Z5,FG4Z5,3Z4XG4ZF49UT3DYHS4B95XHA8O08XU,3Z4XG4ZF49UT3DYHS4B95XHA8O08XU,267585,267585,,,,,,,,,,
,,,,4,8.761645,0,21,21,167,1,an old computer desk set up in an office with oddly labeled shelfed containers,an old computer desk set up in an office with evenly labeled shelfed containers,ma,4247084,2,53,AO32GL5867YY7,2021-01-07_08h10.24.339,MetaAwareness,2020.1.2,Win32,60,3EGKVCRQFXVYJWO4AACJRUJWTS8BYC,AO32GL5867YY7,3Z4XG4ZF49UT3DYHS4B95XHA8O08XU,FG4Z5,FG4Z5,3Z4XG4ZF49UT3DYHS4B95XHA8O08XU,3Z4XG4ZF49UT3DYHS4B95XHA8O08XU,267585,267585,,,,,,,,,,
,,,,4,7.10153,0,22,22,37,1,a parachute that has four different colors and the colors narrow in the middle,a parachute that the colors narrow in the middle,ma,12178414,8,53,AO32GL5867YY7,2021-01-07_08h10.24.339,MetaAwareness,2020.1.2,Win32,60,3EGKVCRQFXVYJWO4AACJRUJWTS8BYC,AO32GL5867YY7,3Z4XG4ZF49UT3DYHS4B95XHA8O08XU,FG4Z5,FG4Z5,3Z4XG4ZF49UT3DYHS4B95XHA8O08XU,3Z4XG4ZF49UT3DYHS4B95XHA8O08XU,267585,267585,,,,,,,,,,
,,,,4,6.675365,0,23,23,19,1,a miniature pool table with two black balls,a miniature pool table with one white ball,ma,1191801,3,53,AO32GL5867YY7,2021-01-07_08h10.24.339,MetaAwareness,2020.1.2,Win32,60,3EGKVCRQFXVYJWO4AACJRUJWTS8BYC,AO32GL5867YY7,3Z4XG4ZF49UT3DYHS4B95XHA8O08XU,FG4Z5,FG4Z5,3Z4XG4ZF49UT3DYHS4B95XHA8O08XU,3Z4XG4ZF49UT3DYHS4B95XHA8O08XU,267585,267585,,,,,,,,,,
,,,,4,11.88155,0,24,24,95,1,"there are notebooks, stationery, glues, scissors and a yellow small notebook on the top right corner","there are notebooks, stationery, glues, scissors and a red small notebook on the top right corner",ma,23199105,1,53,AO32GL5867YY7,2021-01-07_08h10.24.339,MetaAwareness,2020.1.2,Win32,60,3EGKVCRQFXVYJWO4AACJRUJWTS8BYC,AO32GL5867YY7,3Z4XG4ZF49UT3DYHS4B95XHA8O08XU,FG4Z5,FG4Z5,3Z4XG4ZF49UT3DYHS4B95XHA8O08XU,3Z4XG4ZF49UT3DYHS4B95XHA8O08XU,267585,267585,,,,,,,,,,
,,,,5,19.474215,0,25,25,138,1,a cake decorated like a toy box with an off centered yellow star in the middle,a cake decorated like a toy box with centered yellow star in the middle,ma,32289063,8,53,AO32GL5867YY7,2021-01-07_08h10.24.339,MetaAwareness,2020.1.2,Win32,60,3EGKVCRQFXVYJWO4AACJRUJWTS8BYC,AO32GL5867YY7,3Z4XG4ZF49UT3DYHS4B95XHA8O08XU,FG4Z5,FG4Z5,3Z4XG4ZF49UT3DYHS4B95XHA8O08XU,3Z4XG4ZF49UT3DYHS4B95XHA8O08XU,267585,267585,,,,,,,,,,
,,,,6,14.59057,0,26,26,330,1,there are 15 cookies on the plate and the brown face cookie at south west direction has its hair facing north east.,there are 15 cookies on the plate and the brown face cookie at south west direction has its hair facing north west.,ma,75081153,1,53,AO32GL5867YY7,2021-01-07_08h10.24.339,MetaAwareness,2020.1.2,Win32,60,3EGKVCRQFXVYJWO4AACJRUJWTS8BYC,AO32GL5867YY7,3Z4XG4ZF49UT3DYHS4B95XHA8O08XU,FG4Z5,FG4Z5,3Z4XG4ZF49UT3DYHS4B95XHA8O08XU,3Z4XG4ZF49UT3DYHS4B95XHA8O08XU,267585,267585,,,,,,,,,,
,,,,3,19.730215,0,27,27,462,1,a craft room with the three red baskets all with one rectangular hole except one that has two holes.,a craft room with three red baskets all with one rectangular hole. ,ma,89354846,6,53,AO32GL5867YY7,2021-01-07_08h10.24.339,MetaAwareness,2020.1.2,Win32,60,3EGKVCRQFXVYJWO4AACJRUJWTS8BYC,AO32GL5867YY7,3Z4XG4ZF49UT3DYHS4B95XHA8O08XU,FG4Z5,FG4Z5,3Z4XG4ZF49UT3DYHS4B95XHA8O08XU,3Z4XG4ZF49UT3DYHS4B95XHA8O08XU,267585,267585,,,,,,,,,,
,,,,5,9.53334,0,28,28,83,1,a cluttered decorative table with loose stones in the right corner,a cluttered decorative table with a photo in the right corner,ma,22020472,6,53,AO32GL5867YY7,2021-01-07_08h10.24.339,MetaAwareness,2020.1.2,Win32,60,3EGKVCRQFXVYJWO4AACJRUJWTS8BYC,AO32GL5867YY7,3Z4XG4ZF49UT3DYHS4B95XHA8O08XU,FG4Z5,FG4Z5,3Z4XG4ZF49UT3DYHS4B95XHA8O08XU,3Z4XG4ZF49UT3DYHS4B95XHA8O08XU,267585,267585,,,,,,,,,,
,,,,6,14.36673,0,29,29,336,1,"a wooden cutting board with jelly beans, earrings, and small colorful trays and heart shaped potatoes, rocks, and a mirror and necklace and a orange heart","a wooden cutting board with jelly beans, earrings, and smlall colorful trays and heart shaped potatoes, rocks, a mirror, necklace, and a orange heart",ma,75958241,2,53,AO32GL5867YY7,2021-01-07_08h10.24.339,MetaAwareness,2020.1.2,Win32,60,3EGKVCRQFXVYJWO4AACJRUJWTS8BYC,AO32GL5867YY7,3Z4XG4ZF49UT3DYHS4B95XHA8O08XU,FG4Z5,FG4Z5,3Z4XG4ZF49UT3DYHS4B95XHA8O08XU,3Z4XG4ZF49UT3DYHS4B95XHA8O08XU,267585,267585,,,,,,,,,,
,,,,,,,,,,,,,,,,53,AO32GL5867YY7,2021-01-07_08h10.24.339,MetaAwareness,2020.1.2,Win32,60,3EGKVCRQFXVYJWO4AACJRUJWTS8BYC,AO32GL5867YY7,3Z4XG4ZF49UT3DYHS4B95XHA8O08XU,FG4Z5,FG4Z5,3Z4XG4ZF49UT3DYHS4B95XHA8O08XU,3Z4XG4ZF49UT3DYHS4B95XHA8O08XU,267585,267585,6,19.782675,someone laying underneath a blue beach umbrella on a crowded beach,someone laying underneath a blue beach umbrella on a crowded beach,same,1,11.618575,members of a marching band crossing a track that all have feather plumes at the front of their hats,a cluttered and rustic looking cafe with 10 hanging lights,different