consent_response.keys,consent_response.rt,key_resp_2.keys,key_resp_2.rt,user_resp.keys,user_resp.rt,trials.thisRepN,trials.thisTrialN,trials.thisN,trials.thisIndex,trials.ran,image_1_text,image_2_text,database,image,number,age,worker_ID,date,expName,psychopyVersion,OS,frameRate,hitId,workerId,assignmentId,a,tp_a,b,tp_b,c,tp_c,catch_same_resp.keys,catch_same_resp.rt,image_1_text_catch_same,image_2_text_catch_same,image_catch_same,catch_different_resp.keys,catch_different_resp.rt,image_1_text_catch_different,image_2_text_catch_different,image_catch_different
space,21.232,space,2.119,3,4.45,0,0,0,33,1,people at an outdoor market in a park where some are sitting on concrete benches with small lights underneath.,people at an outdoor market in a park where some are sitting on concrete benches with small lights underneath but one is missing the light.,wolfe1,image-027,3,35,A1OR6CKL5VWQ6D,2021-02-18_09h48.44.567,MetaAwareness,2020.1.2,Win32,60,338431Z1FMI95P1R0KPBPIQYZQDOR2,A1OR6CKL5VWQ6D,34S6N1K2ZWMRWUILHP2R7GFM9YCHLX,2NS49,2NS49,34S6N1K2ZWMRWUILHP2R7GFM9YCHLX,34S6N1K2ZWMRWUILHP2R7GFM9YCHLX,276349,276349,,,,,,,,,,
,,,,3,2.643,0,1,1,85,1,a man attending a meeting wearing a light blue shirt.,a man attending a meeting wearing a green shirt.,wolfe1,image-104,9,35,A1OR6CKL5VWQ6D,2021-02-18_09h48.44.567,MetaAwareness,2020.1.2,Win32,60,338431Z1FMI95P1R0KPBPIQYZQDOR2,A1OR6CKL5VWQ6D,34S6N1K2ZWMRWUILHP2R7GFM9YCHLX,2NS49,2NS49,34S6N1K2ZWMRWUILHP2R7GFM9YCHLX,34S6N1K2ZWMRWUILHP2R7GFM9YCHLX,276349,276349,,,,,,,,,,
,,,,5,3.067,0,2,2,41,1,a scout troop marches in a parade. one of the scouts in front has badges on both sides of her uniform.,a scout troop marches in a parade. one of the scouts in front has badges on one side of her uniform.,wolfe1,image-031,7,35,A1OR6CKL5VWQ6D,2021-02-18_09h48.44.567,MetaAwareness,2020.1.2,Win32,60,338431Z1FMI95P1R0KPBPIQYZQDOR2,A1OR6CKL5VWQ6D,34S6N1K2ZWMRWUILHP2R7GFM9YCHLX,2NS49,2NS49,34S6N1K2ZWMRWUILHP2R7GFM9YCHLX,34S6N1K2ZWMRWUILHP2R7GFM9YCHLX,276349,276349,,,,,,,,,,
,,,,6,5.914,0,3,3,107,1,a group of people cleaning off a car with the lady on the right using a blue shovel.,a group of people cleaning off a car with the lady on the right using a green shovel.,wolfe1,image-127,2,35,A1OR6CKL5VWQ6D,2021-02-18_09h48.44.567,MetaAwareness,2020.1.2,Win32,60,338431Z1FMI95P1R0KPBPIQYZQDOR2,A1OR6CKL5VWQ6D,34S6N1K2ZWMRWUILHP2R7GFM9YCHLX,2NS49,2NS49,34S6N1K2ZWMRWUILHP2R7GFM9YCHLX,34S6N1K2ZWMRWUILHP2R7GFM9YCHLX,276349,276349,,,,,,,,,,
,,,,5,1.881,0,4,4,103,1,a block of multi colored buildings connected to each other. the blue building has a white sign in the window of the door,a block of multi colored buildings connected to each other. the blue building has a white sign in the window of the door,wolfe1,image-123,6,35,A1OR6CKL5VWQ6D,2021-02-18_09h48.44.567,MetaAwareness,2020.1.2,Win32,60,338431Z1FMI95P1R0KPBPIQYZQDOR2,A1OR6CKL5VWQ6D,34S6N1K2ZWMRWUILHP2R7GFM9YCHLX,2NS49,2NS49,34S6N1K2ZWMRWUILHP2R7GFM9YCHLX,34S6N1K2ZWMRWUILHP2R7GFM9YCHLX,276349,276349,,,,,,,,,,
,,,,5,2.205,0,5,5,78,1,food stalls in front of bleachers with one customer wearing mint blue pants.,food stalls in front of bleachers with one customer wearing green pants.,wolfe1,image-097,4,35,A1OR6CKL5VWQ6D,2021-02-18_09h48.44.567,MetaAwareness,2020.1.2,Win32,60,338431Z1FMI95P1R0KPBPIQYZQDOR2,A1OR6CKL5VWQ6D,34S6N1K2ZWMRWUILHP2R7GFM9YCHLX,2NS49,2NS49,34S6N1K2ZWMRWUILHP2R7GFM9YCHLX,34S6N1K2ZWMRWUILHP2R7GFM9YCHLX,276349,276349,,,,,,,,,,
,,,,1,11.712,0,6,6,17,1,a bunch of people enjoying a day at the park where someone has dropped something,a bunch of people enjoying a day at the park with the pavement clear of debris,wolfe1,image-016,1,35,A1OR6CKL5VWQ6D,2021-02-18_09h48.44.567,MetaAwareness,2020.1.2,Win32,60,338431Z1FMI95P1R0KPBPIQYZQDOR2,A1OR6CKL5VWQ6D,34S6N1K2ZWMRWUILHP2R7GFM9YCHLX,2NS49,2NS49,34S6N1K2ZWMRWUILHP2R7GFM9YCHLX,34S6N1K2ZWMRWUILHP2R7GFM9YCHLX,276349,276349,,,,,,,,,,
,,,,3,1.777,0,7,7,108,1,a person with a blue shirt begins climbing up a pocked rockside to a cliff from the waters below,a person with a green shirt begins climbing up a pocked rockside to a cliff from the waters below,wolfe1,image-128,4,35,A1OR6CKL5VWQ6D,2021-02-18_09h48.44.567,MetaAwareness,2020.1.2,Win32,60,338431Z1FMI95P1R0KPBPIQYZQDOR2,A1OR6CKL5VWQ6D,34S6N1K2ZWMRWUILHP2R7GFM9YCHLX,2NS49,2NS49,34S6N1K2ZWMRWUILHP2R7GFM9YCHLX,34S6N1K2ZWMRWUILHP2R7GFM9YCHLX,276349,276349,,,,,,,,,,
,,,,5,13.023,0,8,8,99,1,walking thru a park with one person wearing a red backpack.,walking thru a park with one person wearing an orange backpack.,wolfe1,image-118,4,35,A1OR6CKL5VWQ6D,2021-02-18_09h48.44.567,MetaAwareness,2020.1.2,Win32,60,338431Z1FMI95P1R0KPBPIQYZQDOR2,A1OR6CKL5VWQ6D,34S6N1K2ZWMRWUILHP2R7GFM9YCHLX,2NS49,2NS49,34S6N1K2ZWMRWUILHP2R7GFM9YCHLX,34S6N1K2ZWMRWUILHP2R7GFM9YCHLX,276349,276349,,,,,,,,,,
,,,,3,2.902,0,9,9,47,1,a table with 6 food containers on it.,a table with 5 food containers on it.,wolfe1,image-037,4,35,A1OR6CKL5VWQ6D,2021-02-18_09h48.44.567,MetaAwareness,2020.1.2,Win32,60,338431Z1FMI95P1R0KPBPIQYZQDOR2,A1OR6CKL5VWQ6D,34S6N1K2ZWMRWUILHP2R7GFM9YCHLX,2NS49,2NS49,34S6N1K2ZWMRWUILHP2R7GFM9YCHLX,34S6N1K2ZWMRWUILHP2R7GFM9YCHLX,276349,276349,,,,,,,,,,
,,,,2,2.138,0,10,10,20,1,four men playing golf and the current golfer has something behind him.,four men playing golf,wolfe1,image-017,9,35,A1OR6CKL5VWQ6D,2021-02-18_09h48.44.567,MetaAwareness,2020.1.2,Win32,60,338431Z1FMI95P1R0KPBPIQYZQDOR2,A1OR6CKL5VWQ6D,34S6N1K2ZWMRWUILHP2R7GFM9YCHLX,2NS49,2NS49,34S6N1K2ZWMRWUILHP2R7GFM9YCHLX,34S6N1K2ZWMRWUILHP2R7GFM9YCHLX,276349,276349,,,,,,,,,,
,,,,3,2.985,0,11,11,102,1,a boat with red life vests hanging over the side of it,a boat with green life vests hanging over the side of it,wolfe1,image-121,5,35,A1OR6CKL5VWQ6D,2021-02-18_09h48.44.567,MetaAwareness,2020.1.2,Win32,60,338431Z1FMI95P1R0KPBPIQYZQDOR2,A1OR6CKL5VWQ6D,34S6N1K2ZWMRWUILHP2R7GFM9YCHLX,2NS49,2NS49,34S6N1K2ZWMRWUILHP2R7GFM9YCHLX,34S6N1K2ZWMRWUILHP2R7GFM9YCHLX,276349,276349,,,,,,,,,,
,,,,1,1.651,0,12,12,5,1,a group of people engaged in a conversation in a room with a curtain on the wall.,a group of people sit in a circle while discussing something.,wolfe1,image-003,7,35,A1OR6CKL5VWQ6D,2021-02-18_09h48.44.567,MetaAwareness,2020.1.2,Win32,60,338431Z1FMI95P1R0KPBPIQYZQDOR2,A1OR6CKL5VWQ6D,34S6N1K2ZWMRWUILHP2R7GFM9YCHLX,2NS49,2NS49,34S6N1K2ZWMRWUILHP2R7GFM9YCHLX,34S6N1K2ZWMRWUILHP2R7GFM9YCHLX,276349,276349,,,,,,,,,,
,,,,6,2.544,0,13,13,121,1,umbrellas sit on a beach with a blue one at the rear,umbrellas sit on a beach with a yellow one at the rear,wolfe1,image-137,3,35,A1OR6CKL5VWQ6D,2021-02-18_09h48.44.567,MetaAwareness,2020.1.2,Win32,60,338431Z1FMI95P1R0KPBPIQYZQDOR2,A1OR6CKL5VWQ6D,34S6N1K2ZWMRWUILHP2R7GFM9YCHLX,2NS49,2NS49,34S6N1K2ZWMRWUILHP2R7GFM9YCHLX,34S6N1K2ZWMRWUILHP2R7GFM9YCHLX,276349,276349,,,,,,,,,,
,,,,5,1.258,0,14,14,36,1,a sidewalk with a bus stop and an advertisement displayed in front of a jewelry store.,a sidewalk with a bus stop and a jewelry store.,wolfe1,image-030,1,35,A1OR6CKL5VWQ6D,2021-02-18_09h48.44.567,MetaAwareness,2020.1.2,Win32,60,338431Z1FMI95P1R0KPBPIQYZQDOR2,A1OR6CKL5VWQ6D,34S6N1K2ZWMRWUILHP2R7GFM9YCHLX,2NS49,2NS49,34S6N1K2ZWMRWUILHP2R7GFM9YCHLX,34S6N1K2ZWMRWUILHP2R7GFM9YCHLX,276349,276349,,,,,,,,,,
,,,,3,2.666,0,15,15,66,1,bystanders including one wearing a yellow shirt observe a dirtbike race,bystanders including one wearing a green shirt observe a dirtbike race,wolfe1,image-076,5,35,A1OR6CKL5VWQ6D,2021-02-18_09h48.44.567,MetaAwareness,2020.1.2,Win32,60,338431Z1FMI95P1R0KPBPIQYZQDOR2,A1OR6CKL5VWQ6D,34S6N1K2ZWMRWUILHP2R7GFM9YCHLX,2NS49,2NS49,34S6N1K2ZWMRWUILHP2R7GFM9YCHLX,34S6N1K2ZWMRWUILHP2R7GFM9YCHLX,276349,276349,,,,,,,,,,
,,,,1,46.011,0,16,16,29,1,a mother and child walking in to a glass building thats a clinic with two bushes outside,a mother and child walking in to a glass building thats a clinic that has only 1 bush,wolfe1,image-023,1,35,A1OR6CKL5VWQ6D,2021-02-18_09h48.44.567,MetaAwareness,2020.1.2,Win32,60,338431Z1FMI95P1R0KPBPIQYZQDOR2,A1OR6CKL5VWQ6D,34S6N1K2ZWMRWUILHP2R7GFM9YCHLX,2NS49,2NS49,34S6N1K2ZWMRWUILHP2R7GFM9YCHLX,34S6N1K2ZWMRWUILHP2R7GFM9YCHLX,276349,276349,,,,,,,,,,
,,,,4,1.643,0,17,17,72,1,on the left of the table there is a blue container,on the left of the table there is a purple container,wolfe1,image-087,3,35,A1OR6CKL5VWQ6D,2021-02-18_09h48.44.567,MetaAwareness,2020.1.2,Win32,60,338431Z1FMI95P1R0KPBPIQYZQDOR2,A1OR6CKL5VWQ6D,34S6N1K2ZWMRWUILHP2R7GFM9YCHLX,2NS49,2NS49,34S6N1K2ZWMRWUILHP2R7GFM9YCHLX,34S6N1K2ZWMRWUILHP2R7GFM9YCHLX,276349,276349,,,,,,,,,,
,,,,4,3.515,0,18,18,58,1,diggers with white box,diggers discussing dig site,wolfe1,image-046,2,35,A1OR6CKL5VWQ6D,2021-02-18_09h48.44.567,MetaAwareness,2020.1.2,Win32,60,338431Z1FMI95P1R0KPBPIQYZQDOR2,A1OR6CKL5VWQ6D,34S6N1K2ZWMRWUILHP2R7GFM9YCHLX,2NS49,2NS49,34S6N1K2ZWMRWUILHP2R7GFM9YCHLX,34S6N1K2ZWMRWUILHP2R7GFM9YCHLX,276349,276349,,,,,,,,,,
,,,,5,1.94,0,19,19,109,1,a swimmer trying to climb up a short cliff wearing a blue vest.,a swimmer trying to climb up a short cliff wearing a green vest.,wolfe1,image-128,5,35,A1OR6CKL5VWQ6D,2021-02-18_09h48.44.567,MetaAwareness,2020.1.2,Win32,60,338431Z1FMI95P1R0KPBPIQYZQDOR2,A1OR6CKL5VWQ6D,34S6N1K2ZWMRWUILHP2R7GFM9YCHLX,2NS49,2NS49,34S6N1K2ZWMRWUILHP2R7GFM9YCHLX,34S6N1K2ZWMRWUILHP2R7GFM9YCHLX,276349,276349,,,,,,,,,,
,,,,4,2.415,0,20,20,61,1,a group of men shoveling gravel. there is a yellow object next to a wooden stake.,a group of men shoveling gravel. there is only a wooden stake.,wolfe1,image-047,3,35,A1OR6CKL5VWQ6D,2021-02-18_09h48.44.567,MetaAwareness,2020.1.2,Win32,60,338431Z1FMI95P1R0KPBPIQYZQDOR2,A1OR6CKL5VWQ6D,34S6N1K2ZWMRWUILHP2R7GFM9YCHLX,2NS49,2NS49,34S6N1K2ZWMRWUILHP2R7GFM9YCHLX,34S6N1K2ZWMRWUILHP2R7GFM9YCHLX,276349,276349,,,,,,,,,,
,,,,6,2.798,0,21,21,40,1,"a group of adult cub- boy- and girl scout leaders with one female leader sporting a large multi-colored badge near her right shoulder with a smaller, darker badge below that badge","a group of adult cub- boy- and girl scout leaders with one femaile leader sporting a small, dark badge on the right side of her shirt",wolfe1,image-031,5,35,A1OR6CKL5VWQ6D,2021-02-18_09h48.44.567,MetaAwareness,2020.1.2,Win32,60,338431Z1FMI95P1R0KPBPIQYZQDOR2,A1OR6CKL5VWQ6D,34S6N1K2ZWMRWUILHP2R7GFM9YCHLX,2NS49,2NS49,34S6N1K2ZWMRWUILHP2R7GFM9YCHLX,34S6N1K2ZWMRWUILHP2R7GFM9YCHLX,276349,276349,,,,,,,,,,
,,,,4,4.948,0,22,22,74,1,the woman has a backback with a blue tag.,the woman has a backpack with a green tag.,wolfe1,image-094,1,35,A1OR6CKL5VWQ6D,2021-02-18_09h48.44.567,MetaAwareness,2020.1.2,Win32,60,338431Z1FMI95P1R0KPBPIQYZQDOR2,A1OR6CKL5VWQ6D,34S6N1K2ZWMRWUILHP2R7GFM9YCHLX,2NS49,2NS49,34S6N1K2ZWMRWUILHP2R7GFM9YCHLX,34S6N1K2ZWMRWUILHP2R7GFM9YCHLX,276349,276349,,,,,,,,,,
,,,,5,1.676,0,23,23,70,1,2 women talking with papers with red margins on table,2 women with papers with blue margins on table,wolfe1,image-081,2,35,A1OR6CKL5VWQ6D,2021-02-18_09h48.44.567,MetaAwareness,2020.1.2,Win32,60,338431Z1FMI95P1R0KPBPIQYZQDOR2,A1OR6CKL5VWQ6D,34S6N1K2ZWMRWUILHP2R7GFM9YCHLX,2NS49,2NS49,34S6N1K2ZWMRWUILHP2R7GFM9YCHLX,34S6N1K2ZWMRWUILHP2R7GFM9YCHLX,276349,276349,,,,,,,,,,
,,,,2,6.446,0,24,24,11,1,"guy unpacking supplies in the snow which include red, blue and yellow pails",guy unpacking supplies in the snw which include red and blue pails,wolfe1,image-010,4,35,A1OR6CKL5VWQ6D,2021-02-18_09h48.44.567,MetaAwareness,2020.1.2,Win32,60,338431Z1FMI95P1R0KPBPIQYZQDOR2,A1OR6CKL5VWQ6D,34S6N1K2ZWMRWUILHP2R7GFM9YCHLX,2NS49,2NS49,34S6N1K2ZWMRWUILHP2R7GFM9YCHLX,34S6N1K2ZWMRWUILHP2R7GFM9YCHLX,276349,276349,,,,,,,,,,
,,,,4,1.2,0,25,25,111,1,elderly tour group in asia with one lady wearing blue jeans,elderly tour group in asia with one lady wearing grey jeans,wolfe1,image-129,2,35,A1OR6CKL5VWQ6D,2021-02-18_09h48.44.567,MetaAwareness,2020.1.2,Win32,60,338431Z1FMI95P1R0KPBPIQYZQDOR2,A1OR6CKL5VWQ6D,34S6N1K2ZWMRWUILHP2R7GFM9YCHLX,2NS49,2NS49,34S6N1K2ZWMRWUILHP2R7GFM9YCHLX,34S6N1K2ZWMRWUILHP2R7GFM9YCHLX,276349,276349,,,,,,,,,,
,,,,6,2.55,0,26,26,95,1,a young man walking alone in front of a store with red colored hanging displays,a young man walking alone in front of a store with yellow colored hanging displays,wolfe1,image-113,4,35,A1OR6CKL5VWQ6D,2021-02-18_09h48.44.567,MetaAwareness,2020.1.2,Win32,60,338431Z1FMI95P1R0KPBPIQYZQDOR2,A1OR6CKL5VWQ6D,34S6N1K2ZWMRWUILHP2R7GFM9YCHLX,2NS49,2NS49,34S6N1K2ZWMRWUILHP2R7GFM9YCHLX,34S6N1K2ZWMRWUILHP2R7GFM9YCHLX,276349,276349,,,,,,,,,,
,,,,4,1.013,0,27,27,86,1,a crowd sitting down in chairs at an event with one older man wearing a green shirt and hat,a crowd sitting down in chairs at an event with one older man wearing a pink shirt and hat,wolfe1,image-105,3,35,A1OR6CKL5VWQ6D,2021-02-18_09h48.44.567,MetaAwareness,2020.1.2,Win32,60,338431Z1FMI95P1R0KPBPIQYZQDOR2,A1OR6CKL5VWQ6D,34S6N1K2ZWMRWUILHP2R7GFM9YCHLX,2NS49,2NS49,34S6N1K2ZWMRWUILHP2R7GFM9YCHLX,34S6N1K2ZWMRWUILHP2R7GFM9YCHLX,276349,276349,,,,,,,,,,
,,,,4,2.675,0,28,28,30,1,a woman and young girl walking into a clinic with 2 bushes on either side,a woman and a young girl walking into a clinic with a bush on the right side,wolfe1,image-023,2,35,A1OR6CKL5VWQ6D,2021-02-18_09h48.44.567,MetaAwareness,2020.1.2,Win32,60,338431Z1FMI95P1R0KPBPIQYZQDOR2,A1OR6CKL5VWQ6D,34S6N1K2ZWMRWUILHP2R7GFM9YCHLX,2NS49,2NS49,34S6N1K2ZWMRWUILHP2R7GFM9YCHLX,34S6N1K2ZWMRWUILHP2R7GFM9YCHLX,276349,276349,,,,,,,,,,
,,,,5,1.821,0,29,29,105,1,a walk in the park on a gated path along the water with green posts sticking out of the water,a walk in the park on a gated path along the water with green and brown posts sticking out of the water,wolfe1,image-124,6,35,A1OR6CKL5VWQ6D,2021-02-18_09h48.44.567,MetaAwareness,2020.1.2,Win32,60,338431Z1FMI95P1R0KPBPIQYZQDOR2,A1OR6CKL5VWQ6D,34S6N1K2ZWMRWUILHP2R7GFM9YCHLX,2NS49,2NS49,34S6N1K2ZWMRWUILHP2R7GFM9YCHLX,34S6N1K2ZWMRWUILHP2R7GFM9YCHLX,276349,276349,,,,,,,,,,
,,,,,,,,,,,,,,,,35,A1OR6CKL5VWQ6D,2021-02-18_09h48.44.567,MetaAwareness,2020.1.2,Win32,60,338431Z1FMI95P1R0KPBPIQYZQDOR2,A1OR6CKL5VWQ6D,34S6N1K2ZWMRWUILHP2R7GFM9YCHLX,2NS49,2NS49,34S6N1K2ZWMRWUILHP2R7GFM9YCHLX,34S6N1K2ZWMRWUILHP2R7GFM9YCHLX,276349,276349,6,1.14,someone laying underneath a blue beach umbrella on a crowded beach,someone laying underneath a blue beach umbrella on a crowded beach,same,5,16.175,members of a marching band crossing a track that all have feather plumes at the front of their hats,a cluttered and rustic looking cafe with 10 hanging lights,different
