consent_response.keys,consent_response.rt,key_resp_2.keys,key_resp_2.rt,user_resp.keys,user_resp.rt,trials.thisRepN,trials.thisTrialN,trials.thisN,trials.thisIndex,trials.ran,image_1_text,image_2_text,database,image,number,age,worker_ID,date,expName,psychopyVersion,OS,frameRate,hitId,workerId,assignmentId,a,tp_a,b,tp_b,c,tp_c,catch_same_resp.keys,catch_same_resp.rt,image_1_text_catch_same,image_2_text_catch_same,image_catch_same,catch_different_resp.keys,catch_different_resp.rt,image_1_text_catch_different,image_2_text_catch_different,image_catch_different
space,5.772,space,1.656,6,2.44,0,0,0,100,1,"several parents, including a man with a red backpack are watching children at a playground","several parents, including a man with an orange backpack, are watching children at a playground",wolfe1,image-118,5,41,A2EE19E5EEV4Y2,2021-02-18_09h43.36.922,MetaAwareness,2020.1.2,Win32,60,34O39PNDK7BPMVCIWFKPJYQZSRUBRL,A2EE19E5EEV4Y2,3WR9XG3T64EY5X5OYOHYUMOH99I74P,TXRW9,TXRW9,3WR9XG3T64EY5X5OYOHYUMOH99I74P,3WR9XG3T64EY5X5OYOHYUMOH99I74P,276349,276349,,,,,,,,,,
,,,,6,1.42,0,1,1,54,1,a waiting room with a few seats and a table decorated with a white vase,a waiting room with a few seats and a table,wolfe1,image-043,1,41,A2EE19E5EEV4Y2,2021-02-18_09h43.36.922,MetaAwareness,2020.1.2,Win32,60,34O39PNDK7BPMVCIWFKPJYQZSRUBRL,A2EE19E5EEV4Y2,3WR9XG3T64EY5X5OYOHYUMOH99I74P,TXRW9,TXRW9,3WR9XG3T64EY5X5OYOHYUMOH99I74P,3WR9XG3T64EY5X5OYOHYUMOH99I74P,276349,276349,,,,,,,,,,
,,,,2,0.335,0,2,2,61,1,a group of men shoveling gravel. there is a yellow object next to a wooden stake.,a group of men shoveling gravel. there is only a wooden stake.,wolfe1,image-047,3,41,A2EE19E5EEV4Y2,2021-02-18_09h43.36.922,MetaAwareness,2020.1.2,Win32,60,34O39PNDK7BPMVCIWFKPJYQZSRUBRL,A2EE19E5EEV4Y2,3WR9XG3T64EY5X5OYOHYUMOH99I74P,TXRW9,TXRW9,3WR9XG3T64EY5X5OYOHYUMOH99I74P,3WR9XG3T64EY5X5OYOHYUMOH99I74P,276349,276349,,,,,,,,,,
,,,,2,0.783,0,3,3,103,1,a block of multi colored buildings connected to each other. the blue building has a white sign in the window of the door,a block of multi colored buildings connected to each other. the blue building has a white sign in the window of the door,wolfe1,image-123,6,41,A2EE19E5EEV4Y2,2021-02-18_09h43.36.922,MetaAwareness,2020.1.2,Win32,60,34O39PNDK7BPMVCIWFKPJYQZSRUBRL,A2EE19E5EEV4Y2,3WR9XG3T64EY5X5OYOHYUMOH99I74P,TXRW9,TXRW9,3WR9XG3T64EY5X5OYOHYUMOH99I74P,3WR9XG3T64EY5X5OYOHYUMOH99I74P,276349,276349,,,,,,,,,,
,,,,5,0.581,0,4,4,102,1,a boat with red life vests hanging over the side of it,a boat with green life vests hanging over the side of it,wolfe1,image-121,5,41,A2EE19E5EEV4Y2,2021-02-18_09h43.36.922,MetaAwareness,2020.1.2,Win32,60,34O39PNDK7BPMVCIWFKPJYQZSRUBRL,A2EE19E5EEV4Y2,3WR9XG3T64EY5X5OYOHYUMOH99I74P,TXRW9,TXRW9,3WR9XG3T64EY5X5OYOHYUMOH99I74P,3WR9XG3T64EY5X5OYOHYUMOH99I74P,276349,276349,,,,,,,,,,
,,,,5,0.515,0,5,5,11,1,"guy unpacking supplies in the snow which include red, blue and yellow pails",guy unpacking supplies in the snw which include red and blue pails,wolfe1,image-010,4,41,A2EE19E5EEV4Y2,2021-02-18_09h43.36.922,MetaAwareness,2020.1.2,Win32,60,34O39PNDK7BPMVCIWFKPJYQZSRUBRL,A2EE19E5EEV4Y2,3WR9XG3T64EY5X5OYOHYUMOH99I74P,TXRW9,TXRW9,3WR9XG3T64EY5X5OYOHYUMOH99I74P,3WR9XG3T64EY5X5OYOHYUMOH99I74P,276349,276349,,,,,,,,,,
,,,,3,0.235,0,6,6,118,1,"a group of five people walking together, one of the people in front have a red shirt on","a group of five people walking together, one of the people in front have a blue shirt on",wolfe1,image-134,4,41,A2EE19E5EEV4Y2,2021-02-18_09h43.36.922,MetaAwareness,2020.1.2,Win32,60,34O39PNDK7BPMVCIWFKPJYQZSRUBRL,A2EE19E5EEV4Y2,3WR9XG3T64EY5X5OYOHYUMOH99I74P,TXRW9,TXRW9,3WR9XG3T64EY5X5OYOHYUMOH99I74P,3WR9XG3T64EY5X5OYOHYUMOH99I74P,276349,276349,,,,,,,,,,
,,,,6,0.238,0,7,7,15,1,a large concert in an outdoor tent with a lot of people sitting on the ground and a baby in the grass alone,a large concert in an outdoor tent with a lot people sitting on the ground. there is no baby in the grass in this image,wolfe1,image-014,7,41,A2EE19E5EEV4Y2,2021-02-18_09h43.36.922,MetaAwareness,2020.1.2,Win32,60,34O39PNDK7BPMVCIWFKPJYQZSRUBRL,A2EE19E5EEV4Y2,3WR9XG3T64EY5X5OYOHYUMOH99I74P,TXRW9,TXRW9,3WR9XG3T64EY5X5OYOHYUMOH99I74P,3WR9XG3T64EY5X5OYOHYUMOH99I74P,276349,276349,,,,,,,,,,
,,,,6,0.393,0,8,8,43,1,boy with birds at his heels,boy without birds at his heels,wolfe1,image-032,3,41,A2EE19E5EEV4Y2,2021-02-18_09h43.36.922,MetaAwareness,2020.1.2,Win32,60,34O39PNDK7BPMVCIWFKPJYQZSRUBRL,A2EE19E5EEV4Y2,3WR9XG3T64EY5X5OYOHYUMOH99I74P,TXRW9,TXRW9,3WR9XG3T64EY5X5OYOHYUMOH99I74P,3WR9XG3T64EY5X5OYOHYUMOH99I74P,276349,276349,,,,,,,,,,
,,,,3,0.398,0,9,9,39,1,a parade of people are on the stree and the girl has a badge on her right chest,a parade of people are on the street and the girl has no badge on her right chest,wolfe1,image-031,4,41,A2EE19E5EEV4Y2,2021-02-18_09h43.36.922,MetaAwareness,2020.1.2,Win32,60,34O39PNDK7BPMVCIWFKPJYQZSRUBRL,A2EE19E5EEV4Y2,3WR9XG3T64EY5X5OYOHYUMOH99I74P,TXRW9,TXRW9,3WR9XG3T64EY5X5OYOHYUMOH99I74P,3WR9XG3T64EY5X5OYOHYUMOH99I74P,276349,276349,,,,,,,,,,
,,,,4,0.496,0,10,10,120,1,"there are two women walking on a beach and there are several umbrellas, there is a blue umbrella and a yellow umbrella behind them.","there are two women walking on a beach, and there are several umbrellas. there are two yellow umbrellas behind them.",wolfe1,image-137,1,41,A2EE19E5EEV4Y2,2021-02-18_09h43.36.922,MetaAwareness,2020.1.2,Win32,60,34O39PNDK7BPMVCIWFKPJYQZSRUBRL,A2EE19E5EEV4Y2,3WR9XG3T64EY5X5OYOHYUMOH99I74P,TXRW9,TXRW9,3WR9XG3T64EY5X5OYOHYUMOH99I74P,3WR9XG3T64EY5X5OYOHYUMOH99I74P,276349,276349,,,,,,,,,,
,,,,2,0.378,0,11,11,92,1,airplanes next to yellow truck,airplanes next to red truck,wolfe1,image-111,3,41,A2EE19E5EEV4Y2,2021-02-18_09h43.36.922,MetaAwareness,2020.1.2,Win32,60,34O39PNDK7BPMVCIWFKPJYQZSRUBRL,A2EE19E5EEV4Y2,3WR9XG3T64EY5X5OYOHYUMOH99I74P,TXRW9,TXRW9,3WR9XG3T64EY5X5OYOHYUMOH99I74P,3WR9XG3T64EY5X5OYOHYUMOH99I74P,276349,276349,,,,,,,,,,
,,,,5,0.523,0,12,12,55,1,a decorated room with a vase on the right side on the floor,a decorated room with no small vase on the right side on the floor.,wolfe1,image-043,4,41,A2EE19E5EEV4Y2,2021-02-18_09h43.36.922,MetaAwareness,2020.1.2,Win32,60,34O39PNDK7BPMVCIWFKPJYQZSRUBRL,A2EE19E5EEV4Y2,3WR9XG3T64EY5X5OYOHYUMOH99I74P,TXRW9,TXRW9,3WR9XG3T64EY5X5OYOHYUMOH99I74P,3WR9XG3T64EY5X5OYOHYUMOH99I74P,276349,276349,,,,,,,,,,
,,,,3,0.483,0,13,13,29,1,a mother and child walking in to a glass building thats a clinic with two bushes outside,a mother and child walking in to a glass building thats a clinic that has only 1 bush,wolfe1,image-023,1,41,A2EE19E5EEV4Y2,2021-02-18_09h43.36.922,MetaAwareness,2020.1.2,Win32,60,34O39PNDK7BPMVCIWFKPJYQZSRUBRL,A2EE19E5EEV4Y2,3WR9XG3T64EY5X5OYOHYUMOH99I74P,TXRW9,TXRW9,3WR9XG3T64EY5X5OYOHYUMOH99I74P,3WR9XG3T64EY5X5OYOHYUMOH99I74P,276349,276349,,,,,,,,,,
,,,,6,0.473,0,14,14,109,1,a swimmer trying to climb up a short cliff wearing a blue vest.,a swimmer trying to climb up a short cliff wearing a green vest.,wolfe1,image-128,5,41,A2EE19E5EEV4Y2,2021-02-18_09h43.36.922,MetaAwareness,2020.1.2,Win32,60,34O39PNDK7BPMVCIWFKPJYQZSRUBRL,A2EE19E5EEV4Y2,3WR9XG3T64EY5X5OYOHYUMOH99I74P,TXRW9,TXRW9,3WR9XG3T64EY5X5OYOHYUMOH99I74P,3WR9XG3T64EY5X5OYOHYUMOH99I74P,276349,276349,,,,,,,,,,
,,,,5,1.092,0,15,15,90,1,a series of buildings. one has a red roof,a series of buildings. one has a dark blue roof,wolfe1,image-110,6,41,A2EE19E5EEV4Y2,2021-02-18_09h43.36.922,MetaAwareness,2020.1.2,Win32,60,34O39PNDK7BPMVCIWFKPJYQZSRUBRL,A2EE19E5EEV4Y2,3WR9XG3T64EY5X5OYOHYUMOH99I74P,TXRW9,TXRW9,3WR9XG3T64EY5X5OYOHYUMOH99I74P,3WR9XG3T64EY5X5OYOHYUMOH99I74P,276349,276349,,,,,,,,,,
,,,,2,0.336,0,16,16,77,1,a hiker on a dusty mountain trail passes red wildflowers on his left,a hiker on a dusty mauntain trail passes yellow wildflowers on his left.,wolfe1,image-095,4,41,A2EE19E5EEV4Y2,2021-02-18_09h43.36.922,MetaAwareness,2020.1.2,Win32,60,34O39PNDK7BPMVCIWFKPJYQZSRUBRL,A2EE19E5EEV4Y2,3WR9XG3T64EY5X5OYOHYUMOH99I74P,TXRW9,TXRW9,3WR9XG3T64EY5X5OYOHYUMOH99I74P,3WR9XG3T64EY5X5OYOHYUMOH99I74P,276349,276349,,,,,,,,,,
,,,,6,0.923,0,17,17,48,1,there was one light placed in the photo,no lights are paced in the photo,wolfe1,image-040,1,41,A2EE19E5EEV4Y2,2021-02-18_09h43.36.922,MetaAwareness,2020.1.2,Win32,60,34O39PNDK7BPMVCIWFKPJYQZSRUBRL,A2EE19E5EEV4Y2,3WR9XG3T64EY5X5OYOHYUMOH99I74P,TXRW9,TXRW9,3WR9XG3T64EY5X5OYOHYUMOH99I74P,3WR9XG3T64EY5X5OYOHYUMOH99I74P,276349,276349,,,,,,,,,,
,,,,3,1,0,18,18,41,1,a scout troop marches in a parade. one of the scouts in front has badges on both sides of her uniform.,a scout troop marches in a parade. one of the scouts in front has badges on one side of her uniform.,wolfe1,image-031,7,41,A2EE19E5EEV4Y2,2021-02-18_09h43.36.922,MetaAwareness,2020.1.2,Win32,60,34O39PNDK7BPMVCIWFKPJYQZSRUBRL,A2EE19E5EEV4Y2,3WR9XG3T64EY5X5OYOHYUMOH99I74P,TXRW9,TXRW9,3WR9XG3T64EY5X5OYOHYUMOH99I74P,3WR9XG3T64EY5X5OYOHYUMOH99I74P,276349,276349,,,,,,,,,,
,,,,4,0.699,0,19,19,106,1,a volley ball game in a wooded park setting with a group of three people watching a ball about to be volleyed back,a volleyball game with a group of three players watching on the right watching one person about to hit the ball across in a park setting,wolfe1,image-126,1,41,A2EE19E5EEV4Y2,2021-02-18_09h43.36.922,MetaAwareness,2020.1.2,Win32,60,34O39PNDK7BPMVCIWFKPJYQZSRUBRL,A2EE19E5EEV4Y2,3WR9XG3T64EY5X5OYOHYUMOH99I74P,TXRW9,TXRW9,3WR9XG3T64EY5X5OYOHYUMOH99I74P,3WR9XG3T64EY5X5OYOHYUMOH99I74P,276349,276349,,,,,,,,,,
,,,,6,0.799,0,20,20,38,1,adult boy scouts marching in a parade with one girl scout accompanying them and wearing a badge on the right side of her chest.,adult boy scouts marching in a parade with one girl scout accompanying them.,wolfe1,image-031,2,41,A2EE19E5EEV4Y2,2021-02-18_09h43.36.922,MetaAwareness,2020.1.2,Win32,60,34O39PNDK7BPMVCIWFKPJYQZSRUBRL,A2EE19E5EEV4Y2,3WR9XG3T64EY5X5OYOHYUMOH99I74P,TXRW9,TXRW9,3WR9XG3T64EY5X5OYOHYUMOH99I74P,3WR9XG3T64EY5X5OYOHYUMOH99I74P,276349,276349,,,,,,,,,,
,,,,3,0.798,0,21,21,66,1,bystanders including one wearing a yellow shirt observe a dirtbike race,bystanders including one wearing a green shirt observe a dirtbike race,wolfe1,image-076,5,41,A2EE19E5EEV4Y2,2021-02-18_09h43.36.922,MetaAwareness,2020.1.2,Win32,60,34O39PNDK7BPMVCIWFKPJYQZSRUBRL,A2EE19E5EEV4Y2,3WR9XG3T64EY5X5OYOHYUMOH99I74P,TXRW9,TXRW9,3WR9XG3T64EY5X5OYOHYUMOH99I74P,3WR9XG3T64EY5X5OYOHYUMOH99I74P,276349,276349,,,,,,,,,,
,,,,5,0.873,0,22,22,74,1,the woman has a backback with a blue tag.,the woman has a backpack with a green tag.,wolfe1,image-094,1,41,A2EE19E5EEV4Y2,2021-02-18_09h43.36.922,MetaAwareness,2020.1.2,Win32,60,34O39PNDK7BPMVCIWFKPJYQZSRUBRL,A2EE19E5EEV4Y2,3WR9XG3T64EY5X5OYOHYUMOH99I74P,TXRW9,TXRW9,3WR9XG3T64EY5X5OYOHYUMOH99I74P,3WR9XG3T64EY5X5OYOHYUMOH99I74P,276349,276349,,,,,,,,,,
,,,,6,0.81,0,23,23,34,1,a large building with many windows with people sittin infront of it and there is an object behind them in the grass,a large building ith many widowd with people sitting in the grass with no object behind them,wolfe1,image-028,1,41,A2EE19E5EEV4Y2,2021-02-18_09h43.36.922,MetaAwareness,2020.1.2,Win32,60,34O39PNDK7BPMVCIWFKPJYQZSRUBRL,A2EE19E5EEV4Y2,3WR9XG3T64EY5X5OYOHYUMOH99I74P,TXRW9,TXRW9,3WR9XG3T64EY5X5OYOHYUMOH99I74P,3WR9XG3T64EY5X5OYOHYUMOH99I74P,276349,276349,,,,,,,,,,
,,,,4,0.543,0,24,24,22,1,people climbing the face of a short cliff with bags and gear on the ground and one man in a red shirt almost reaching the top.,people climbing the face of a short cliff with bags and gear on the ground.,wolfe1,image-019,4,41,A2EE19E5EEV4Y2,2021-02-18_09h43.36.922,MetaAwareness,2020.1.2,Win32,60,34O39PNDK7BPMVCIWFKPJYQZSRUBRL,A2EE19E5EEV4Y2,3WR9XG3T64EY5X5OYOHYUMOH99I74P,TXRW9,TXRW9,3WR9XG3T64EY5X5OYOHYUMOH99I74P,3WR9XG3T64EY5X5OYOHYUMOH99I74P,276349,276349,,,,,,,,,,
,,,,4,0.981,0,25,25,113,1,a helicopter with a group of people getting supplies with yellow boxes,a helicopter with a group of people getting supplies with blue boxes,wolfe1,image-130,5,41,A2EE19E5EEV4Y2,2021-02-18_09h43.36.922,MetaAwareness,2020.1.2,Win32,60,34O39PNDK7BPMVCIWFKPJYQZSRUBRL,A2EE19E5EEV4Y2,3WR9XG3T64EY5X5OYOHYUMOH99I74P,TXRW9,TXRW9,3WR9XG3T64EY5X5OYOHYUMOH99I74P,3WR9XG3T64EY5X5OYOHYUMOH99I74P,276349,276349,,,,,,,,,,
,,,,2,1.035,0,26,26,101,1,there are some purple and black color cloths on the boat,there are some green and black color cloths on the boat,wolfe1,image-121,4,41,A2EE19E5EEV4Y2,2021-02-18_09h43.36.922,MetaAwareness,2020.1.2,Win32,60,34O39PNDK7BPMVCIWFKPJYQZSRUBRL,A2EE19E5EEV4Y2,3WR9XG3T64EY5X5OYOHYUMOH99I74P,TXRW9,TXRW9,3WR9XG3T64EY5X5OYOHYUMOH99I74P,3WR9XG3T64EY5X5OYOHYUMOH99I74P,276349,276349,,,,,,,,,,
,,,,5,1.2,0,27,27,91,1,a plane at the airport with a yellow jet truck parked next to it,a plane at the airport with a red jet truck parked next to it,wolfe1,image-111,1,41,A2EE19E5EEV4Y2,2021-02-18_09h43.36.922,MetaAwareness,2020.1.2,Win32,60,34O39PNDK7BPMVCIWFKPJYQZSRUBRL,A2EE19E5EEV4Y2,3WR9XG3T64EY5X5OYOHYUMOH99I74P,TXRW9,TXRW9,3WR9XG3T64EY5X5OYOHYUMOH99I74P,3WR9XG3T64EY5X5OYOHYUMOH99I74P,276349,276349,,,,,,,,,,
,,,,6,0.959,0,28,28,9,1,"a woman pettin a deer at what appears to be a petting zoo, there is a person in all black behind her to the right.","a woman petting a deer at a zoo, there is no person dressed in all black behind her",wolfe1,image-008,5,41,A2EE19E5EEV4Y2,2021-02-18_09h43.36.922,MetaAwareness,2020.1.2,Win32,60,34O39PNDK7BPMVCIWFKPJYQZSRUBRL,A2EE19E5EEV4Y2,3WR9XG3T64EY5X5OYOHYUMOH99I74P,TXRW9,TXRW9,3WR9XG3T64EY5X5OYOHYUMOH99I74P,3WR9XG3T64EY5X5OYOHYUMOH99I74P,276349,276349,,,,,,,,,,
,,,,3,1.434,0,29,29,13,1,"a band plaing music outdoors on a sidewalk, there is a small sign on the wall behind them.","a band playing music outdoors on a sidewalk, there is no sign on the wall behind them.",wolfe1,image-013,3,41,A2EE19E5EEV4Y2,2021-02-18_09h43.36.922,MetaAwareness,2020.1.2,Win32,60,34O39PNDK7BPMVCIWFKPJYQZSRUBRL,A2EE19E5EEV4Y2,3WR9XG3T64EY5X5OYOHYUMOH99I74P,TXRW9,TXRW9,3WR9XG3T64EY5X5OYOHYUMOH99I74P,3WR9XG3T64EY5X5OYOHYUMOH99I74P,276349,276349,,,,,,,,,,
,,,,,,,,,,,,,,,,41,A2EE19E5EEV4Y2,2021-02-18_09h43.36.922,MetaAwareness,2020.1.2,Win32,60,34O39PNDK7BPMVCIWFKPJYQZSRUBRL,A2EE19E5EEV4Y2,3WR9XG3T64EY5X5OYOHYUMOH99I74P,TXRW9,TXRW9,3WR9XG3T64EY5X5OYOHYUMOH99I74P,3WR9XG3T64EY5X5OYOHYUMOH99I74P,276349,276349,5,1.105,someone laying underneath a blue beach umbrella on a crowded beach,someone laying underneath a blue beach umbrella on a crowded beach,same,6,0.735,members of a marching band crossing a track that all have feather plumes at the front of their hats,a cluttered and rustic looking cafe with 10 hanging lights,different
