consent_response.keys,consent_response.rt,key_resp_2.keys,key_resp_2.rt,user_resp.keys,user_resp.rt,trials.thisRepN,trials.thisTrialN,trials.thisN,trials.thisIndex,trials.ran,image_1_text,image_2_text,database,image,number,age,worker_ID,date,expName,psychopyVersion,OS,frameRate,hitId,workerId,assignmentId,a,tp_a,b,tp_b,c,tp_c,catch_same_resp.keys,catch_same_resp.rt,image_1_text_catch_same,image_2_text_catch_same,image_catch_same,catch_different_resp.keys,catch_different_resp.rt,image_1_text_catch_different,image_2_text_catch_different,image_catch_different
space,4.52,space,60.682,5,9.208,0,0,0,43,1,boy with birds at his heels,boy without birds at his heels,wolfe1,image-032,3,39,A2IOCAN84DFTZA,2021-02-18_08h44.17.227,MetaAwareness,2020.1.2,Win32,60,3KTZHH2ONJIFNH1JOV4Y6X6OEY88MT,A2IOCAN84DFTZA,3TYCR1GOTDMDNFIFNB8Y7NJR5OGLZE,ORYT9,ORYT9,3TYCR1GOTDMDNFIFNB8Y7NJR5OGLZE,3TYCR1GOTDMDNFIFNB8Y7NJR5OGLZE,276349,276349,,,,,,,,,,
,,,,3,6.783,0,1,1,46,1,6 various colored containers sitting on a picnic table in a green house.,5 various colored container sitting on a picnic table in a green house.,wolfe1,image-037,2,39,A2IOCAN84DFTZA,2021-02-18_08h44.17.227,MetaAwareness,2020.1.2,Win32,60,3KTZHH2ONJIFNH1JOV4Y6X6OEY88MT,A2IOCAN84DFTZA,3TYCR1GOTDMDNFIFNB8Y7NJR5OGLZE,ORYT9,ORYT9,3TYCR1GOTDMDNFIFNB8Y7NJR5OGLZE,3TYCR1GOTDMDNFIFNB8Y7NJR5OGLZE,276349,276349,,,,,,,,,,
,,,,5,10.055,0,2,2,14,1,people sitting on blankets on a lawn listening to a concert on a stage with a vacant blanket at the left,people sitting on blankets on a lawn listening to a concert on a stage with no blanket on the lawn to the left,wolfe1,image-014,4,39,A2IOCAN84DFTZA,2021-02-18_08h44.17.227,MetaAwareness,2020.1.2,Win32,60,3KTZHH2ONJIFNH1JOV4Y6X6OEY88MT,A2IOCAN84DFTZA,3TYCR1GOTDMDNFIFNB8Y7NJR5OGLZE,ORYT9,ORYT9,3TYCR1GOTDMDNFIFNB8Y7NJR5OGLZE,3TYCR1GOTDMDNFIFNB8Y7NJR5OGLZE,276349,276349,,,,,,,,,,
,,,,2,8.157,0,3,3,75,1,students walking with backpacks,students walking with backpacks and a blue decoration on the backpack,wolfe1,image-094,7,39,A2IOCAN84DFTZA,2021-02-18_08h44.17.227,MetaAwareness,2020.1.2,Win32,60,3KTZHH2ONJIFNH1JOV4Y6X6OEY88MT,A2IOCAN84DFTZA,3TYCR1GOTDMDNFIFNB8Y7NJR5OGLZE,ORYT9,ORYT9,3TYCR1GOTDMDNFIFNB8Y7NJR5OGLZE,3TYCR1GOTDMDNFIFNB8Y7NJR5OGLZE,276349,276349,,,,,,,,,,
,,,,6,1.498,0,4,4,41,1,a scout troop marches in a parade. one of the scouts in front has badges on both sides of her uniform.,a scout troop marches in a parade. one of the scouts in front has badges on one side of her uniform.,wolfe1,image-031,7,39,A2IOCAN84DFTZA,2021-02-18_08h44.17.227,MetaAwareness,2020.1.2,Win32,60,3KTZHH2ONJIFNH1JOV4Y6X6OEY88MT,A2IOCAN84DFTZA,3TYCR1GOTDMDNFIFNB8Y7NJR5OGLZE,ORYT9,ORYT9,3TYCR1GOTDMDNFIFNB8Y7NJR5OGLZE,3TYCR1GOTDMDNFIFNB8Y7NJR5OGLZE,276349,276349,,,,,,,,,,
,,,,6,10.417,0,5,5,47,1,a table with 6 food containers on it.,a table with 5 food containers on it.,wolfe1,image-037,4,39,A2IOCAN84DFTZA,2021-02-18_08h44.17.227,MetaAwareness,2020.1.2,Win32,60,3KTZHH2ONJIFNH1JOV4Y6X6OEY88MT,A2IOCAN84DFTZA,3TYCR1GOTDMDNFIFNB8Y7NJR5OGLZE,ORYT9,ORYT9,3TYCR1GOTDMDNFIFNB8Y7NJR5OGLZE,3TYCR1GOTDMDNFIFNB8Y7NJR5OGLZE,276349,276349,,,,,,,,,,
,,,,2,6.668,0,6,6,28,1,three runners jogging next to a building and two patches of grass that contain an object on one of them,three runners jogging next to a building and two patches of grass that are open and do not have any objects on them,wolfe1,image-022,1,39,A2IOCAN84DFTZA,2021-02-18_08h44.17.227,MetaAwareness,2020.1.2,Win32,60,3KTZHH2ONJIFNH1JOV4Y6X6OEY88MT,A2IOCAN84DFTZA,3TYCR1GOTDMDNFIFNB8Y7NJR5OGLZE,ORYT9,ORYT9,3TYCR1GOTDMDNFIFNB8Y7NJR5OGLZE,3TYCR1GOTDMDNFIFNB8Y7NJR5OGLZE,276349,276349,,,,,,,,,,
,,,,5,3.499,0,7,7,104,1,two people walking their dog in a park next to the marina with a dull green colored post.,two people walking their dog in a park next to the marina with a brown colored post.,wolfe1,image-124,1,39,A2IOCAN84DFTZA,2021-02-18_08h44.17.227,MetaAwareness,2020.1.2,Win32,60,3KTZHH2ONJIFNH1JOV4Y6X6OEY88MT,A2IOCAN84DFTZA,3TYCR1GOTDMDNFIFNB8Y7NJR5OGLZE,ORYT9,ORYT9,3TYCR1GOTDMDNFIFNB8Y7NJR5OGLZE,3TYCR1GOTDMDNFIFNB8Y7NJR5OGLZE,276349,276349,,,,,,,,,,
,,,,1,2.176,0,8,8,59,1,a white object sticks out of the ground as locals are gathered to aid in digging a hole in the ground,locals gather to aid in digging a hole in the ground,wolfe1,image-046,6,39,A2IOCAN84DFTZA,2021-02-18_08h44.17.227,MetaAwareness,2020.1.2,Win32,60,3KTZHH2ONJIFNH1JOV4Y6X6OEY88MT,A2IOCAN84DFTZA,3TYCR1GOTDMDNFIFNB8Y7NJR5OGLZE,ORYT9,ORYT9,3TYCR1GOTDMDNFIFNB8Y7NJR5OGLZE,3TYCR1GOTDMDNFIFNB8Y7NJR5OGLZE,276349,276349,,,,,,,,,,
,,,,4,3.38,0,9,9,101,1,there are some purple and black color cloths on the boat,there are some green and black color cloths on the boat,wolfe1,image-121,4,39,A2IOCAN84DFTZA,2021-02-18_08h44.17.227,MetaAwareness,2020.1.2,Win32,60,3KTZHH2ONJIFNH1JOV4Y6X6OEY88MT,A2IOCAN84DFTZA,3TYCR1GOTDMDNFIFNB8Y7NJR5OGLZE,ORYT9,ORYT9,3TYCR1GOTDMDNFIFNB8Y7NJR5OGLZE,3TYCR1GOTDMDNFIFNB8Y7NJR5OGLZE,276349,276349,,,,,,,,,,
,,,,1,1.951,0,10,10,37,1,a building front with some stores and a sign for a business.,a building front with some stores.,wolfe1,image-030,4,39,A2IOCAN84DFTZA,2021-02-18_08h44.17.227,MetaAwareness,2020.1.2,Win32,60,3KTZHH2ONJIFNH1JOV4Y6X6OEY88MT,A2IOCAN84DFTZA,3TYCR1GOTDMDNFIFNB8Y7NJR5OGLZE,ORYT9,ORYT9,3TYCR1GOTDMDNFIFNB8Y7NJR5OGLZE,3TYCR1GOTDMDNFIFNB8Y7NJR5OGLZE,276349,276349,,,,,,,,,,
,,,,5,2.848,0,11,11,72,1,on the left of the table there is a blue container,on the left of the table there is a purple container,wolfe1,image-087,3,39,A2IOCAN84DFTZA,2021-02-18_08h44.17.227,MetaAwareness,2020.1.2,Win32,60,3KTZHH2ONJIFNH1JOV4Y6X6OEY88MT,A2IOCAN84DFTZA,3TYCR1GOTDMDNFIFNB8Y7NJR5OGLZE,ORYT9,ORYT9,3TYCR1GOTDMDNFIFNB8Y7NJR5OGLZE,3TYCR1GOTDMDNFIFNB8Y7NJR5OGLZE,276349,276349,,,,,,,,,,
,,,,2,2.074,0,12,12,53,1,a crowd is in front of an ornate church with statues at the top of each arch on its facade,a crowd is in front of an ornate church with statues at the top of each arch on its facade except for the leftmost arch,wolfe1,image-042,6,39,A2IOCAN84DFTZA,2021-02-18_08h44.17.227,MetaAwareness,2020.1.2,Win32,60,3KTZHH2ONJIFNH1JOV4Y6X6OEY88MT,A2IOCAN84DFTZA,3TYCR1GOTDMDNFIFNB8Y7NJR5OGLZE,ORYT9,ORYT9,3TYCR1GOTDMDNFIFNB8Y7NJR5OGLZE,3TYCR1GOTDMDNFIFNB8Y7NJR5OGLZE,276349,276349,,,,,,,,,,
,,,,1,2.759,0,13,13,30,1,a woman and young girl walking into a clinic with 2 bushes on either side,a woman and a young girl walking into a clinic with a bush on the right side,wolfe1,image-023,2,39,A2IOCAN84DFTZA,2021-02-18_08h44.17.227,MetaAwareness,2020.1.2,Win32,60,3KTZHH2ONJIFNH1JOV4Y6X6OEY88MT,A2IOCAN84DFTZA,3TYCR1GOTDMDNFIFNB8Y7NJR5OGLZE,ORYT9,ORYT9,3TYCR1GOTDMDNFIFNB8Y7NJR5OGLZE,3TYCR1GOTDMDNFIFNB8Y7NJR5OGLZE,276349,276349,,,,,,,,,,
,,,,2,2.165,0,14,14,84,1,twelve people a a conference table face a woman at the end of the table. the man to the left of the woman at the front is wearing a blue shirt,twelve people at a conference table face a woman at the end of the table. the man to the left of the woman at the front is wearing a green shirt,wolfe1,image-104,7,39,A2IOCAN84DFTZA,2021-02-18_08h44.17.227,MetaAwareness,2020.1.2,Win32,60,3KTZHH2ONJIFNH1JOV4Y6X6OEY88MT,A2IOCAN84DFTZA,3TYCR1GOTDMDNFIFNB8Y7NJR5OGLZE,ORYT9,ORYT9,3TYCR1GOTDMDNFIFNB8Y7NJR5OGLZE,3TYCR1GOTDMDNFIFNB8Y7NJR5OGLZE,276349,276349,,,,,,,,,,
,,,,2,1.616,0,15,15,32,1,"an outdoor festival with various tents, two trees can be seen in the background","an outdoor festival with various tents, a tree can be seen in  the background",wolfe1,image-025,1,39,A2IOCAN84DFTZA,2021-02-18_08h44.17.227,MetaAwareness,2020.1.2,Win32,60,3KTZHH2ONJIFNH1JOV4Y6X6OEY88MT,A2IOCAN84DFTZA,3TYCR1GOTDMDNFIFNB8Y7NJR5OGLZE,ORYT9,ORYT9,3TYCR1GOTDMDNFIFNB8Y7NJR5OGLZE,3TYCR1GOTDMDNFIFNB8Y7NJR5OGLZE,276349,276349,,,,,,,,,,
,,,,2,1.788,0,16,16,23,1,a man in a blue shirt sits next to a pink and white striped sack at an outdoor festival with many other people.,a  man in a blue shirt sits at an outdoor festival with many other people.,wolfe1,image-020,3,39,A2IOCAN84DFTZA,2021-02-18_08h44.17.227,MetaAwareness,2020.1.2,Win32,60,3KTZHH2ONJIFNH1JOV4Y6X6OEY88MT,A2IOCAN84DFTZA,3TYCR1GOTDMDNFIFNB8Y7NJR5OGLZE,ORYT9,ORYT9,3TYCR1GOTDMDNFIFNB8Y7NJR5OGLZE,3TYCR1GOTDMDNFIFNB8Y7NJR5OGLZE,276349,276349,,,,,,,,,,
,,,,3,2.193,0,17,17,60,1,people shoveling gravel outside of a home with a toy in the gravel,people shoveling gravel outside of a home,wolfe1,image-047,1,39,A2IOCAN84DFTZA,2021-02-18_08h44.17.227,MetaAwareness,2020.1.2,Win32,60,3KTZHH2ONJIFNH1JOV4Y6X6OEY88MT,A2IOCAN84DFTZA,3TYCR1GOTDMDNFIFNB8Y7NJR5OGLZE,ORYT9,ORYT9,3TYCR1GOTDMDNFIFNB8Y7NJR5OGLZE,3TYCR1GOTDMDNFIFNB8Y7NJR5OGLZE,276349,276349,,,,,,,,,,
,,,,5,1.341,0,18,18,95,1,a young man walking alone in front of a store with red colored hanging displays,a young man walking alone in front of a store with yellow colored hanging displays,wolfe1,image-113,4,39,A2IOCAN84DFTZA,2021-02-18_08h44.17.227,MetaAwareness,2020.1.2,Win32,60,3KTZHH2ONJIFNH1JOV4Y6X6OEY88MT,A2IOCAN84DFTZA,3TYCR1GOTDMDNFIFNB8Y7NJR5OGLZE,ORYT9,ORYT9,3TYCR1GOTDMDNFIFNB8Y7NJR5OGLZE,3TYCR1GOTDMDNFIFNB8Y7NJR5OGLZE,276349,276349,,,,,,,,,,
,,,,3,2.448,0,19,19,48,1,there was one light placed in the photo,no lights are paced in the photo,wolfe1,image-040,1,39,A2IOCAN84DFTZA,2021-02-18_08h44.17.227,MetaAwareness,2020.1.2,Win32,60,3KTZHH2ONJIFNH1JOV4Y6X6OEY88MT,A2IOCAN84DFTZA,3TYCR1GOTDMDNFIFNB8Y7NJR5OGLZE,ORYT9,ORYT9,3TYCR1GOTDMDNFIFNB8Y7NJR5OGLZE,3TYCR1GOTDMDNFIFNB8Y7NJR5OGLZE,276349,276349,,,,,,,,,,
,,,,4,4.675,0,20,20,76,1,there is some red color flowers,there is some yellow color flowers,wolfe1,image-095,3,39,A2IOCAN84DFTZA,2021-02-18_08h44.17.227,MetaAwareness,2020.1.2,Win32,60,3KTZHH2ONJIFNH1JOV4Y6X6OEY88MT,A2IOCAN84DFTZA,3TYCR1GOTDMDNFIFNB8Y7NJR5OGLZE,ORYT9,ORYT9,3TYCR1GOTDMDNFIFNB8Y7NJR5OGLZE,3TYCR1GOTDMDNFIFNB8Y7NJR5OGLZE,276349,276349,,,,,,,,,,
,,,,5,2.105,0,21,21,106,1,a volley ball game in a wooded park setting with a group of three people watching a ball about to be volleyed back,a volleyball game with a group of three players watching on the right watching one person about to hit the ball across in a park setting,wolfe1,image-126,1,39,A2IOCAN84DFTZA,2021-02-18_08h44.17.227,MetaAwareness,2020.1.2,Win32,60,3KTZHH2ONJIFNH1JOV4Y6X6OEY88MT,A2IOCAN84DFTZA,3TYCR1GOTDMDNFIFNB8Y7NJR5OGLZE,ORYT9,ORYT9,3TYCR1GOTDMDNFIFNB8Y7NJR5OGLZE,3TYCR1GOTDMDNFIFNB8Y7NJR5OGLZE,276349,276349,,,,,,,,,,
,,,,3,1.364,0,22,22,18,1,there is a crowded city park with a playground and many children.  there is a dark object on the ground.,there is a crowded city park with a playground and many children.  the sidewalk is clear of objects.,wolfe1,image-016,4,39,A2IOCAN84DFTZA,2021-02-18_08h44.17.227,MetaAwareness,2020.1.2,Win32,60,3KTZHH2ONJIFNH1JOV4Y6X6OEY88MT,A2IOCAN84DFTZA,3TYCR1GOTDMDNFIFNB8Y7NJR5OGLZE,ORYT9,ORYT9,3TYCR1GOTDMDNFIFNB8Y7NJR5OGLZE,3TYCR1GOTDMDNFIFNB8Y7NJR5OGLZE,276349,276349,,,,,,,,,,
,,,,6,3.342,0,23,23,102,1,a boat with red life vests hanging over the side of it,a boat with green life vests hanging over the side of it,wolfe1,image-121,5,39,A2IOCAN84DFTZA,2021-02-18_08h44.17.227,MetaAwareness,2020.1.2,Win32,60,3KTZHH2ONJIFNH1JOV4Y6X6OEY88MT,A2IOCAN84DFTZA,3TYCR1GOTDMDNFIFNB8Y7NJR5OGLZE,ORYT9,ORYT9,3TYCR1GOTDMDNFIFNB8Y7NJR5OGLZE,3TYCR1GOTDMDNFIFNB8Y7NJR5OGLZE,276349,276349,,,,,,,,,,
,,,,3,1.102,0,24,24,44,1,a group of men playing basketball on a court next to a blue building and a crowd of people watching,a group of men playing basketball on a court next to no building and a crowd of people watching,wolfe1,image-033,2,39,A2IOCAN84DFTZA,2021-02-18_08h44.17.227,MetaAwareness,2020.1.2,Win32,60,3KTZHH2ONJIFNH1JOV4Y6X6OEY88MT,A2IOCAN84DFTZA,3TYCR1GOTDMDNFIFNB8Y7NJR5OGLZE,ORYT9,ORYT9,3TYCR1GOTDMDNFIFNB8Y7NJR5OGLZE,3TYCR1GOTDMDNFIFNB8Y7NJR5OGLZE,276349,276349,,,,,,,,,,
,,,,2,1.109,0,25,25,5,1,a group of people engaged in a conversation in a room with a curtain on the wall.,a group of people sit in a circle while discussing something.,wolfe1,image-003,7,39,A2IOCAN84DFTZA,2021-02-18_08h44.17.227,MetaAwareness,2020.1.2,Win32,60,3KTZHH2ONJIFNH1JOV4Y6X6OEY88MT,A2IOCAN84DFTZA,3TYCR1GOTDMDNFIFNB8Y7NJR5OGLZE,ORYT9,ORYT9,3TYCR1GOTDMDNFIFNB8Y7NJR5OGLZE,3TYCR1GOTDMDNFIFNB8Y7NJR5OGLZE,276349,276349,,,,,,,,,,
,,,,6,1.479,0,26,26,25,1,an outdoor event with many people and a white tent. there is a pink and white striped bag on the grass,"an outdoor event with many people and a whitee tent, there is no pink and white striped bag on the grass in this image",wolfe1,image-020,6,39,A2IOCAN84DFTZA,2021-02-18_08h44.17.227,MetaAwareness,2020.1.2,Win32,60,3KTZHH2ONJIFNH1JOV4Y6X6OEY88MT,A2IOCAN84DFTZA,3TYCR1GOTDMDNFIFNB8Y7NJR5OGLZE,ORYT9,ORYT9,3TYCR1GOTDMDNFIFNB8Y7NJR5OGLZE,3TYCR1GOTDMDNFIFNB8Y7NJR5OGLZE,276349,276349,,,,,,,,,,
,,,,2,1.36,0,27,27,98,1,large jungle gym park with parents and kids playing. one parent watches their kid wearing a red backpack,large jungle gym park with parents and kids playing. one parent watches their kid wearing a orange backpack.,wolfe1,image-118,3,39,A2IOCAN84DFTZA,2021-02-18_08h44.17.227,MetaAwareness,2020.1.2,Win32,60,3KTZHH2ONJIFNH1JOV4Y6X6OEY88MT,A2IOCAN84DFTZA,3TYCR1GOTDMDNFIFNB8Y7NJR5OGLZE,ORYT9,ORYT9,3TYCR1GOTDMDNFIFNB8Y7NJR5OGLZE,3TYCR1GOTDMDNFIFNB8Y7NJR5OGLZE,276349,276349,,,,,,,,,,
,,,,3,1.606,0,28,28,113,1,a helicopter with a group of people getting supplies with yellow boxes,a helicopter with a group of people getting supplies with blue boxes,wolfe1,image-130,5,39,A2IOCAN84DFTZA,2021-02-18_08h44.17.227,MetaAwareness,2020.1.2,Win32,60,3KTZHH2ONJIFNH1JOV4Y6X6OEY88MT,A2IOCAN84DFTZA,3TYCR1GOTDMDNFIFNB8Y7NJR5OGLZE,ORYT9,ORYT9,3TYCR1GOTDMDNFIFNB8Y7NJR5OGLZE,3TYCR1GOTDMDNFIFNB8Y7NJR5OGLZE,276349,276349,,,,,,,,,,
,,,,6,1.435,0,29,29,105,1,a walk in the park on a gated path along the water with green posts sticking out of the water,a walk in the park on a gated path along the water with green and brown posts sticking out of the water,wolfe1,image-124,6,39,A2IOCAN84DFTZA,2021-02-18_08h44.17.227,MetaAwareness,2020.1.2,Win32,60,3KTZHH2ONJIFNH1JOV4Y6X6OEY88MT,A2IOCAN84DFTZA,3TYCR1GOTDMDNFIFNB8Y7NJR5OGLZE,ORYT9,ORYT9,3TYCR1GOTDMDNFIFNB8Y7NJR5OGLZE,3TYCR1GOTDMDNFIFNB8Y7NJR5OGLZE,276349,276349,,,,,,,,,,
,,,,,,,,,,,,,,,,39,A2IOCAN84DFTZA,2021-02-18_08h44.17.227,MetaAwareness,2020.1.2,Win32,60,3KTZHH2ONJIFNH1JOV4Y6X6OEY88MT,A2IOCAN84DFTZA,3TYCR1GOTDMDNFIFNB8Y7NJR5OGLZE,ORYT9,ORYT9,3TYCR1GOTDMDNFIFNB8Y7NJR5OGLZE,3TYCR1GOTDMDNFIFNB8Y7NJR5OGLZE,276349,276349,3,0.877,someone laying underneath a blue beach umbrella on a crowded beach,someone laying underneath a blue beach umbrella on a crowded beach,same,2,0.785,members of a marching band crossing a track that all have feather plumes at the front of their hats,a cluttered and rustic looking cafe with 10 hanging lights,different
