consent_response.keys,consent_response.rt,key_resp_2.keys,key_resp_2.rt,user_resp.keys,user_resp.rt,trials.thisRepN,trials.thisTrialN,trials.thisN,trials.thisIndex,trials.ran,image_1_text,image_2_text,database,image,number,age,worker_ID,date,expName,psychopyVersion,OS,frameRate,hitId,workerId,assignmentId,a,tp_a,b,tp_b,c,tp_c,catch_same_resp.keys,catch_same_resp.rt,image_1_text_catch_same,image_2_text_catch_same,image_catch_same,catch_different_resp.keys,catch_different_resp.rt,image_1_text_catch_different,image_2_text_catch_different,image_catch_different
space,197.22356,space,25.23887,4,10.270195,0,0,0,21,1,guy in red wall climbing,people wall climbing,wolfe1,image-019,2,38,A38ZLNCTSUGW7,2021-02-18_09h48.39.924,MetaAwareness,2020.1.2,Win32,60,338431Z1FMI95P1R0KPBPIQYZQDOR2,A38ZLNCTSUGW7,3JNQLM5FT5PNH4F3Y4ZKKC9KKFU2L0,FLNJ9,FLNJ9,3JNQLM5FT5PNH4F3Y4ZKKC9KKFU2L0,3JNQLM5FT5PNH4F3Y4ZKKC9KKFU2L0,276349,276349,,,,,,,,,,
,,,,4,17.11426,0,1,1,87,1,people are at an outdoor event. there is a man looking to the right in a yellow shirt.,people seated at an outdoor event. there is a man looking to the right in a brown shirt.,wolfe1,image-105,4,38,A38ZLNCTSUGW7,2021-02-18_09h48.39.924,MetaAwareness,2020.1.2,Win32,60,338431Z1FMI95P1R0KPBPIQYZQDOR2,A38ZLNCTSUGW7,3JNQLM5FT5PNH4F3Y4ZKKC9KKFU2L0,FLNJ9,FLNJ9,3JNQLM5FT5PNH4F3Y4ZKKC9KKFU2L0,3JNQLM5FT5PNH4F3Y4ZKKC9KKFU2L0,276349,276349,,,,,,,,,,
,,,,5,16.60823,0,2,2,12,1,a short coffee table bearing two small cactuses and other objects sits near a chair in a room,a short coffee table bearing a cactus and other objects sits hear a chair in a room,wolfe1,image-011,5,38,A38ZLNCTSUGW7,2021-02-18_09h48.39.924,MetaAwareness,2020.1.2,Win32,60,338431Z1FMI95P1R0KPBPIQYZQDOR2,A38ZLNCTSUGW7,3JNQLM5FT5PNH4F3Y4ZKKC9KKFU2L0,FLNJ9,FLNJ9,3JNQLM5FT5PNH4F3Y4ZKKC9KKFU2L0,3JNQLM5FT5PNH4F3Y4ZKKC9KKFU2L0,276349,276349,,,,,,,,,,
,,,,5,14.027125,0,3,3,28,1,three runners jogging next to a building and two patches of grass that contain an object on one of them,three runners jogging next to a building and two patches of grass that are open and do not have any objects on them,wolfe1,image-022,1,38,A38ZLNCTSUGW7,2021-02-18_09h48.39.924,MetaAwareness,2020.1.2,Win32,60,338431Z1FMI95P1R0KPBPIQYZQDOR2,A38ZLNCTSUGW7,3JNQLM5FT5PNH4F3Y4ZKKC9KKFU2L0,FLNJ9,FLNJ9,3JNQLM5FT5PNH4F3Y4ZKKC9KKFU2L0,3JNQLM5FT5PNH4F3Y4ZKKC9KKFU2L0,276349,276349,,,,,,,,,,
,,,,4,5.095965,0,4,4,1,1,salt and pepper shakers sit atop a wooden dining table of a restaurant outside on a beach overlooking the ocean,wooden dining tables sit atop a wooden floor outside on a beach overlooking the ocean; it is a restaurant with outdoor seating,wolfe1,image-001,3,38,A38ZLNCTSUGW7,2021-02-18_09h48.39.924,MetaAwareness,2020.1.2,Win32,60,338431Z1FMI95P1R0KPBPIQYZQDOR2,A38ZLNCTSUGW7,3JNQLM5FT5PNH4F3Y4ZKKC9KKFU2L0,FLNJ9,FLNJ9,3JNQLM5FT5PNH4F3Y4ZKKC9KKFU2L0,3JNQLM5FT5PNH4F3Y4ZKKC9KKFU2L0,276349,276349,,,,,,,,,,
,,,,5,6.474705,0,5,5,81,1,a tent set up in the woods with several red striped towels and one blue stripped towel hanging up.,a tent set up in the woods with red striped towels hanging up.,wolfe1,image-100,3,38,A38ZLNCTSUGW7,2021-02-18_09h48.39.924,MetaAwareness,2020.1.2,Win32,60,338431Z1FMI95P1R0KPBPIQYZQDOR2,A38ZLNCTSUGW7,3JNQLM5FT5PNH4F3Y4ZKKC9KKFU2L0,FLNJ9,FLNJ9,3JNQLM5FT5PNH4F3Y4ZKKC9KKFU2L0,3JNQLM5FT5PNH4F3Y4ZKKC9KKFU2L0,276349,276349,,,,,,,,,,
,,,,5,5.407665,0,6,6,20,1,four men playing golf and the current golfer has something behind him.,four men playing golf,wolfe1,image-017,9,38,A38ZLNCTSUGW7,2021-02-18_09h48.39.924,MetaAwareness,2020.1.2,Win32,60,338431Z1FMI95P1R0KPBPIQYZQDOR2,A38ZLNCTSUGW7,3JNQLM5FT5PNH4F3Y4ZKKC9KKFU2L0,FLNJ9,FLNJ9,3JNQLM5FT5PNH4F3Y4ZKKC9KKFU2L0,3JNQLM5FT5PNH4F3Y4ZKKC9KKFU2L0,276349,276349,,,,,,,,,,
,,,,5,29.324195,0,7,7,54,1,a waiting room with a few seats and a table decorated with a white vase,a waiting room with a few seats and a table,wolfe1,image-043,1,38,A38ZLNCTSUGW7,2021-02-18_09h48.39.924,MetaAwareness,2020.1.2,Win32,60,338431Z1FMI95P1R0KPBPIQYZQDOR2,A38ZLNCTSUGW7,3JNQLM5FT5PNH4F3Y4ZKKC9KKFU2L0,FLNJ9,FLNJ9,3JNQLM5FT5PNH4F3Y4ZKKC9KKFU2L0,3JNQLM5FT5PNH4F3Y4ZKKC9KKFU2L0,276349,276349,,,,,,,,,,
,,,,5,3.354435,0,8,8,121,1,umbrellas sit on a beach with a blue one at the rear,umbrellas sit on a beach with a yellow one at the rear,wolfe1,image-137,3,38,A38ZLNCTSUGW7,2021-02-18_09h48.39.924,MetaAwareness,2020.1.2,Win32,60,338431Z1FMI95P1R0KPBPIQYZQDOR2,A38ZLNCTSUGW7,3JNQLM5FT5PNH4F3Y4ZKKC9KKFU2L0,FLNJ9,FLNJ9,3JNQLM5FT5PNH4F3Y4ZKKC9KKFU2L0,3JNQLM5FT5PNH4F3Y4ZKKC9KKFU2L0,276349,276349,,,,,,,,,,
,,,,5,5.278955,0,9,9,82,1,a person with green shoes walks with a crowd down a rainy sidewalk,a person with red shoes walks with a crowd down a rainy sidewalk,wolfe1,image-103,2,38,A38ZLNCTSUGW7,2021-02-18_09h48.39.924,MetaAwareness,2020.1.2,Win32,60,338431Z1FMI95P1R0KPBPIQYZQDOR2,A38ZLNCTSUGW7,3JNQLM5FT5PNH4F3Y4ZKKC9KKFU2L0,FLNJ9,FLNJ9,3JNQLM5FT5PNH4F3Y4ZKKC9KKFU2L0,3JNQLM5FT5PNH4F3Y4ZKKC9KKFU2L0,276349,276349,,,,,,,,,,
,,,,5,7.02128,0,10,10,94,1,a busy street with a man walking down the middle of the crowd wearing a red shirt.,a busy street with a man walking down the middle of the crowd wearing a blue shirt.,wolfe1,image-112,2,38,A38ZLNCTSUGW7,2021-02-18_09h48.39.924,MetaAwareness,2020.1.2,Win32,60,338431Z1FMI95P1R0KPBPIQYZQDOR2,A38ZLNCTSUGW7,3JNQLM5FT5PNH4F3Y4ZKKC9KKFU2L0,FLNJ9,FLNJ9,3JNQLM5FT5PNH4F3Y4ZKKC9KKFU2L0,3JNQLM5FT5PNH4F3Y4ZKKC9KKFU2L0,276349,276349,,,,,,,,,,
,,,,5,10.74667,0,11,11,16,1,two guys pose with an eagle cutout with a building and a garbage can in the background,two guys pose with an eagle cutout with a building in the background,wolfe1,image-015,3,38,A38ZLNCTSUGW7,2021-02-18_09h48.39.924,MetaAwareness,2020.1.2,Win32,60,338431Z1FMI95P1R0KPBPIQYZQDOR2,A38ZLNCTSUGW7,3JNQLM5FT5PNH4F3Y4ZKKC9KKFU2L0,FLNJ9,FLNJ9,3JNQLM5FT5PNH4F3Y4ZKKC9KKFU2L0,3JNQLM5FT5PNH4F3Y4ZKKC9KKFU2L0,276349,276349,,,,,,,,,,
,,,,5,5.438595,0,12,12,73,1,"an outdoor area with building, trees, people sitting down and eating, including a woman in red clothing","an outdoor area with building, trees, people sitting down and eating, including a woman in purple clothing",wolfe1,image-091,2,38,A38ZLNCTSUGW7,2021-02-18_09h48.39.924,MetaAwareness,2020.1.2,Win32,60,338431Z1FMI95P1R0KPBPIQYZQDOR2,A38ZLNCTSUGW7,3JNQLM5FT5PNH4F3Y4ZKKC9KKFU2L0,FLNJ9,FLNJ9,3JNQLM5FT5PNH4F3Y4ZKKC9KKFU2L0,3JNQLM5FT5PNH4F3Y4ZKKC9KKFU2L0,276349,276349,,,,,,,,,,
,,,,5,6.84915,0,13,13,50,1,"a mossy, marsh like scene with mountains and blue sky in the background as well as a red, farmlike facility, with one of the marsh rocks in the foreground","a marshlike, rocky setting with water and moutains and a red, farmlike facility in the background and a swatch of lake and plant growth in the foreground",wolfe1,image-041,2,38,A38ZLNCTSUGW7,2021-02-18_09h48.39.924,MetaAwareness,2020.1.2,Win32,60,338431Z1FMI95P1R0KPBPIQYZQDOR2,A38ZLNCTSUGW7,3JNQLM5FT5PNH4F3Y4ZKKC9KKFU2L0,FLNJ9,FLNJ9,3JNQLM5FT5PNH4F3Y4ZKKC9KKFU2L0,3JNQLM5FT5PNH4F3Y4ZKKC9KKFU2L0,276349,276349,,,,,,,,,,
,,,,5,5.245085,0,14,14,61,1,a group of men shoveling gravel. there is a yellow object next to a wooden stake.,a group of men shoveling gravel. there is only a wooden stake.,wolfe1,image-047,3,38,A38ZLNCTSUGW7,2021-02-18_09h48.39.924,MetaAwareness,2020.1.2,Win32,60,338431Z1FMI95P1R0KPBPIQYZQDOR2,A38ZLNCTSUGW7,3JNQLM5FT5PNH4F3Y4ZKKC9KKFU2L0,FLNJ9,FLNJ9,3JNQLM5FT5PNH4F3Y4ZKKC9KKFU2L0,3JNQLM5FT5PNH4F3Y4ZKKC9KKFU2L0,276349,276349,,,,,,,,,,
,,,,5,1.611025,0,15,15,3,1,eight people sitting in a classroom with a window with a closed curtain in the far corner.,eight people sitting in a classroom with no window in the corner.,wolfe1,image-003,3,38,A38ZLNCTSUGW7,2021-02-18_09h48.39.924,MetaAwareness,2020.1.2,Win32,60,338431Z1FMI95P1R0KPBPIQYZQDOR2,A38ZLNCTSUGW7,3JNQLM5FT5PNH4F3Y4ZKKC9KKFU2L0,FLNJ9,FLNJ9,3JNQLM5FT5PNH4F3Y4ZKKC9KKFU2L0,3JNQLM5FT5PNH4F3Y4ZKKC9KKFU2L0,276349,276349,,,,,,,,,,
,,,,5,6.858755,0,16,16,18,1,there is a crowded city park with a playground and many children.  there is a dark object on the ground.,there is a crowded city park with a playground and many children.  the sidewalk is clear of objects.,wolfe1,image-016,4,38,A38ZLNCTSUGW7,2021-02-18_09h48.39.924,MetaAwareness,2020.1.2,Win32,60,338431Z1FMI95P1R0KPBPIQYZQDOR2,A38ZLNCTSUGW7,3JNQLM5FT5PNH4F3Y4ZKKC9KKFU2L0,FLNJ9,FLNJ9,3JNQLM5FT5PNH4F3Y4ZKKC9KKFU2L0,3JNQLM5FT5PNH4F3Y4ZKKC9KKFU2L0,276349,276349,,,,,,,,,,
,,,,5,2.58762,0,17,17,90,1,a series of buildings. one has a red roof,a series of buildings. one has a dark blue roof,wolfe1,image-110,6,38,A38ZLNCTSUGW7,2021-02-18_09h48.39.924,MetaAwareness,2020.1.2,Win32,60,338431Z1FMI95P1R0KPBPIQYZQDOR2,A38ZLNCTSUGW7,3JNQLM5FT5PNH4F3Y4ZKKC9KKFU2L0,FLNJ9,FLNJ9,3JNQLM5FT5PNH4F3Y4ZKKC9KKFU2L0,3JNQLM5FT5PNH4F3Y4ZKKC9KKFU2L0,276349,276349,,,,,,,,,,
,,,,5,3.47406,0,18,18,32,1,"an outdoor festival with various tents, two trees can be seen in the background","an outdoor festival with various tents, a tree can be seen in  the background",wolfe1,image-025,1,38,A38ZLNCTSUGW7,2021-02-18_09h48.39.924,MetaAwareness,2020.1.2,Win32,60,338431Z1FMI95P1R0KPBPIQYZQDOR2,A38ZLNCTSUGW7,3JNQLM5FT5PNH4F3Y4ZKKC9KKFU2L0,FLNJ9,FLNJ9,3JNQLM5FT5PNH4F3Y4ZKKC9KKFU2L0,3JNQLM5FT5PNH4F3Y4ZKKC9KKFU2L0,276349,276349,,,,,,,,,,
,,,,5,5.70833,0,19,19,0,1,there is a table by the beach with 8 place settings.,there is a table by the beach with 8 place settings and two glass jars in the center.,wolfe1,image-001,1,38,A38ZLNCTSUGW7,2021-02-18_09h48.39.924,MetaAwareness,2020.1.2,Win32,60,338431Z1FMI95P1R0KPBPIQYZQDOR2,A38ZLNCTSUGW7,3JNQLM5FT5PNH4F3Y4ZKKC9KKFU2L0,FLNJ9,FLNJ9,3JNQLM5FT5PNH4F3Y4ZKKC9KKFU2L0,3JNQLM5FT5PNH4F3Y4ZKKC9KKFU2L0,276349,276349,,,,,,,,,,
,,,,4,6.153035,0,20,20,72,1,on the left of the table there is a blue container,on the left of the table there is a purple container,wolfe1,image-087,3,38,A38ZLNCTSUGW7,2021-02-18_09h48.39.924,MetaAwareness,2020.1.2,Win32,60,338431Z1FMI95P1R0KPBPIQYZQDOR2,A38ZLNCTSUGW7,3JNQLM5FT5PNH4F3Y4ZKKC9KKFU2L0,FLNJ9,FLNJ9,3JNQLM5FT5PNH4F3Y4ZKKC9KKFU2L0,3JNQLM5FT5PNH4F3Y4ZKKC9KKFU2L0,276349,276349,,,,,,,,,,
,,,,5,3.1637,0,21,21,104,1,two people walking their dog in a park next to the marina with a dull green colored post.,two people walking their dog in a park next to the marina with a brown colored post.,wolfe1,image-124,1,38,A38ZLNCTSUGW7,2021-02-18_09h48.39.924,MetaAwareness,2020.1.2,Win32,60,338431Z1FMI95P1R0KPBPIQYZQDOR2,A38ZLNCTSUGW7,3JNQLM5FT5PNH4F3Y4ZKKC9KKFU2L0,FLNJ9,FLNJ9,3JNQLM5FT5PNH4F3Y4ZKKC9KKFU2L0,3JNQLM5FT5PNH4F3Y4ZKKC9KKFU2L0,276349,276349,,,,,,,,,,
,,,,5,8.457325,0,22,22,62,1,men spreading gravel with an orange object near the shovel,men spreading gravel without an orange object near the shovel,wolfe1,image-047,6,38,A38ZLNCTSUGW7,2021-02-18_09h48.39.924,MetaAwareness,2020.1.2,Win32,60,338431Z1FMI95P1R0KPBPIQYZQDOR2,A38ZLNCTSUGW7,3JNQLM5FT5PNH4F3Y4ZKKC9KKFU2L0,FLNJ9,FLNJ9,3JNQLM5FT5PNH4F3Y4ZKKC9KKFU2L0,3JNQLM5FT5PNH4F3Y4ZKKC9KKFU2L0,276349,276349,,,,,,,,,,
,,,,5,14.556885,0,23,23,22,1,people climbing the face of a short cliff with bags and gear on the ground and one man in a red shirt almost reaching the top.,people climbing the face of a short cliff with bags and gear on the ground.,wolfe1,image-019,4,38,A38ZLNCTSUGW7,2021-02-18_09h48.39.924,MetaAwareness,2020.1.2,Win32,60,338431Z1FMI95P1R0KPBPIQYZQDOR2,A38ZLNCTSUGW7,3JNQLM5FT5PNH4F3Y4ZKKC9KKFU2L0,FLNJ9,FLNJ9,3JNQLM5FT5PNH4F3Y4ZKKC9KKFU2L0,3JNQLM5FT5PNH4F3Y4ZKKC9KKFU2L0,276349,276349,,,,,,,,,,
,,,,5,3.1828,0,24,24,85,1,a man attending a meeting wearing a light blue shirt.,a man attending a meeting wearing a green shirt.,wolfe1,image-104,9,38,A38ZLNCTSUGW7,2021-02-18_09h48.39.924,MetaAwareness,2020.1.2,Win32,60,338431Z1FMI95P1R0KPBPIQYZQDOR2,A38ZLNCTSUGW7,3JNQLM5FT5PNH4F3Y4ZKKC9KKFU2L0,FLNJ9,FLNJ9,3JNQLM5FT5PNH4F3Y4ZKKC9KKFU2L0,3JNQLM5FT5PNH4F3Y4ZKKC9KKFU2L0,276349,276349,,,,,,,,,,
,,,,5,2.271025,0,25,25,7,1,train station on milwaukie has building in the distance with a large window in the center.,train station on milwaukie has a building in the distance.,wolfe1,image-007,2,38,A38ZLNCTSUGW7,2021-02-18_09h48.39.924,MetaAwareness,2020.1.2,Win32,60,338431Z1FMI95P1R0KPBPIQYZQDOR2,A38ZLNCTSUGW7,3JNQLM5FT5PNH4F3Y4ZKKC9KKFU2L0,FLNJ9,FLNJ9,3JNQLM5FT5PNH4F3Y4ZKKC9KKFU2L0,3JNQLM5FT5PNH4F3Y4ZKKC9KKFU2L0,276349,276349,,,,,,,,,,
,,,,5,3.756145,0,26,26,37,1,a building front with some stores and a sign for a business.,a building front with some stores.,wolfe1,image-030,4,38,A38ZLNCTSUGW7,2021-02-18_09h48.39.924,MetaAwareness,2020.1.2,Win32,60,338431Z1FMI95P1R0KPBPIQYZQDOR2,A38ZLNCTSUGW7,3JNQLM5FT5PNH4F3Y4ZKKC9KKFU2L0,FLNJ9,FLNJ9,3JNQLM5FT5PNH4F3Y4ZKKC9KKFU2L0,3JNQLM5FT5PNH4F3Y4ZKKC9KKFU2L0,276349,276349,,,,,,,,,,
,,,,5,4.62009,0,27,27,101,1,there are some purple and black color cloths on the boat,there are some green and black color cloths on the boat,wolfe1,image-121,4,38,A38ZLNCTSUGW7,2021-02-18_09h48.39.924,MetaAwareness,2020.1.2,Win32,60,338431Z1FMI95P1R0KPBPIQYZQDOR2,A38ZLNCTSUGW7,3JNQLM5FT5PNH4F3Y4ZKKC9KKFU2L0,FLNJ9,FLNJ9,3JNQLM5FT5PNH4F3Y4ZKKC9KKFU2L0,3JNQLM5FT5PNH4F3Y4ZKKC9KKFU2L0,276349,276349,,,,,,,,,,
,,,,5,2.825005,0,28,28,110,1,woman in blue jeans walking,woman in gray jeans walking,wolfe1,image-129,1,38,A38ZLNCTSUGW7,2021-02-18_09h48.39.924,MetaAwareness,2020.1.2,Win32,60,338431Z1FMI95P1R0KPBPIQYZQDOR2,A38ZLNCTSUGW7,3JNQLM5FT5PNH4F3Y4ZKKC9KKFU2L0,FLNJ9,FLNJ9,3JNQLM5FT5PNH4F3Y4ZKKC9KKFU2L0,3JNQLM5FT5PNH4F3Y4ZKKC9KKFU2L0,276349,276349,,,,,,,,,,
,,,,5,4.4292,0,29,29,80,1,people standing on dirt in traditional indian garb and a man dressed casually with a peach collared shirt,people standing on dirt in traditional indian garb and a man dressed casually with a green collared shirt,wolfe1,image-099,4,38,A38ZLNCTSUGW7,2021-02-18_09h48.39.924,MetaAwareness,2020.1.2,Win32,60,338431Z1FMI95P1R0KPBPIQYZQDOR2,A38ZLNCTSUGW7,3JNQLM5FT5PNH4F3Y4ZKKC9KKFU2L0,FLNJ9,FLNJ9,3JNQLM5FT5PNH4F3Y4ZKKC9KKFU2L0,3JNQLM5FT5PNH4F3Y4ZKKC9KKFU2L0,276349,276349,,,,,,,,,,
,,,,,,,,,,,,,,,,38,A38ZLNCTSUGW7,2021-02-18_09h48.39.924,MetaAwareness,2020.1.2,Win32,60,338431Z1FMI95P1R0KPBPIQYZQDOR2,A38ZLNCTSUGW7,3JNQLM5FT5PNH4F3Y4ZKKC9KKFU2L0,FLNJ9,FLNJ9,3JNQLM5FT5PNH4F3Y4ZKKC9KKFU2L0,3JNQLM5FT5PNH4F3Y4ZKKC9KKFU2L0,276349,276349,6,12.476125,someone laying underneath a blue beach umbrella on a crowded beach,someone laying underneath a blue beach umbrella on a crowded beach,same,1,14.586615,members of a marching band crossing a track that all have feather plumes at the front of their hats,a cluttered and rustic looking cafe with 10 hanging lights,different
