consent_response.keys,consent_response.rt,key_resp_2.keys,key_resp_2.rt,user_resp.keys,user_resp.rt,trials.thisRepN,trials.thisTrialN,trials.thisN,trials.thisIndex,trials.ran,image_1_text,image_2_text,database,image,number,age,worker_ID,date,expName,psychopyVersion,OS,frameRate,hitId,workerId,assignmentId,a,tp_a,b,tp_b,c,tp_c,catch_same_resp.keys,catch_same_resp.rt,image_1_text_catch_same,image_2_text_catch_same,image_catch_same,catch_different_resp.keys,catch_different_resp.rt,image_1_text_catch_different,image_2_text_catch_different,image_catch_different
space,5.27425,space,1.867285,4,5.703555,0,0,0,94,1,a busy street with a man walking down the middle of the crowd wearing a red shirt.,a busy street with a man walking down the middle of the crowd wearing a blue shirt.,wolfe1,image-112,2,25,APUZW7OGUAYR5,2021-02-18_14h28.56.524,MetaAwareness,2020.1.2,Win32,60,3KTZHH2ONJIFNH1JOV4Y6X6OEY88MT,APUZW7OGUAYR5,3O7L7BFSHFSDMJJD6LX8UXQH0EDEIN,S77O9,S77O9,3O7L7BFSHFSDMJJD6LX8UXQH0EDEIN,3O7L7BFSHFSDMJJD6LX8UXQH0EDEIN,276349,276349,,,,,,,,,,
,,,,3,1.55562,0,1,1,117,1,a comfortable outdoor lounge area with a red surfboard laying against a wall,a comfortable outdoor lounge area with a green surfboard laying against a wal,wolfe1,image-133,5,25,APUZW7OGUAYR5,2021-02-18_14h28.56.524,MetaAwareness,2020.1.2,Win32,60,3KTZHH2ONJIFNH1JOV4Y6X6OEY88MT,APUZW7OGUAYR5,3O7L7BFSHFSDMJJD6LX8UXQH0EDEIN,S77O9,S77O9,3O7L7BFSHFSDMJJD6LX8UXQH0EDEIN,3O7L7BFSHFSDMJJD6LX8UXQH0EDEIN,276349,276349,,,,,,,,,,
,,,,5,1.813365,0,2,2,22,1,people climbing the face of a short cliff with bags and gear on the ground and one man in a red shirt almost reaching the top.,people climbing the face of a short cliff with bags and gear on the ground.,wolfe1,image-019,4,25,APUZW7OGUAYR5,2021-02-18_14h28.56.524,MetaAwareness,2020.1.2,Win32,60,3KTZHH2ONJIFNH1JOV4Y6X6OEY88MT,APUZW7OGUAYR5,3O7L7BFSHFSDMJJD6LX8UXQH0EDEIN,S77O9,S77O9,3O7L7BFSHFSDMJJD6LX8UXQH0EDEIN,3O7L7BFSHFSDMJJD6LX8UXQH0EDEIN,276349,276349,,,,,,,,,,
,,,,4,1.38484,0,3,3,91,1,a plane at the airport with a yellow jet truck parked next to it,a plane at the airport with a red jet truck parked next to it,wolfe1,image-111,1,25,APUZW7OGUAYR5,2021-02-18_14h28.56.524,MetaAwareness,2020.1.2,Win32,60,3KTZHH2ONJIFNH1JOV4Y6X6OEY88MT,APUZW7OGUAYR5,3O7L7BFSHFSDMJJD6LX8UXQH0EDEIN,S77O9,S77O9,3O7L7BFSHFSDMJJD6LX8UXQH0EDEIN,3O7L7BFSHFSDMJJD6LX8UXQH0EDEIN,276349,276349,,,,,,,,,,
,,,,3,1.59748,0,4,4,41,1,a scout troop marches in a parade. one of the scouts in front has badges on both sides of her uniform.,a scout troop marches in a parade. one of the scouts in front has badges on one side of her uniform.,wolfe1,image-031,7,25,APUZW7OGUAYR5,2021-02-18_14h28.56.524,MetaAwareness,2020.1.2,Win32,60,3KTZHH2ONJIFNH1JOV4Y6X6OEY88MT,APUZW7OGUAYR5,3O7L7BFSHFSDMJJD6LX8UXQH0EDEIN,S77O9,S77O9,3O7L7BFSHFSDMJJD6LX8UXQH0EDEIN,3O7L7BFSHFSDMJJD6LX8UXQH0EDEIN,276349,276349,,,,,,,,,,
,,,,5,1.558345,0,5,5,48,1,there was one light placed in the photo,no lights are paced in the photo,wolfe1,image-040,1,25,APUZW7OGUAYR5,2021-02-18_14h28.56.524,MetaAwareness,2020.1.2,Win32,60,3KTZHH2ONJIFNH1JOV4Y6X6OEY88MT,APUZW7OGUAYR5,3O7L7BFSHFSDMJJD6LX8UXQH0EDEIN,S77O9,S77O9,3O7L7BFSHFSDMJJD6LX8UXQH0EDEIN,3O7L7BFSHFSDMJJD6LX8UXQH0EDEIN,276349,276349,,,,,,,,,,
,,,,5,1.678095,0,6,6,46,1,6 various colored containers sitting on a picnic table in a green house.,5 various colored container sitting on a picnic table in a green house.,wolfe1,image-037,2,25,APUZW7OGUAYR5,2021-02-18_14h28.56.524,MetaAwareness,2020.1.2,Win32,60,3KTZHH2ONJIFNH1JOV4Y6X6OEY88MT,APUZW7OGUAYR5,3O7L7BFSHFSDMJJD6LX8UXQH0EDEIN,S77O9,S77O9,3O7L7BFSHFSDMJJD6LX8UXQH0EDEIN,3O7L7BFSHFSDMJJD6LX8UXQH0EDEIN,276349,276349,,,,,,,,,,
,,,,4,1.410995,0,7,7,12,1,a short coffee table bearing two small cactuses and other objects sits near a chair in a room,a short coffee table bearing a cactus and other objects sits hear a chair in a room,wolfe1,image-011,5,25,APUZW7OGUAYR5,2021-02-18_14h28.56.524,MetaAwareness,2020.1.2,Win32,60,3KTZHH2ONJIFNH1JOV4Y6X6OEY88MT,APUZW7OGUAYR5,3O7L7BFSHFSDMJJD6LX8UXQH0EDEIN,S77O9,S77O9,3O7L7BFSHFSDMJJD6LX8UXQH0EDEIN,3O7L7BFSHFSDMJJD6LX8UXQH0EDEIN,276349,276349,,,,,,,,,,
,,,,4,1.79582,0,8,8,111,1,elderly tour group in asia with one lady wearing blue jeans,elderly tour group in asia with one lady wearing grey jeans,wolfe1,image-129,2,25,APUZW7OGUAYR5,2021-02-18_14h28.56.524,MetaAwareness,2020.1.2,Win32,60,3KTZHH2ONJIFNH1JOV4Y6X6OEY88MT,APUZW7OGUAYR5,3O7L7BFSHFSDMJJD6LX8UXQH0EDEIN,S77O9,S77O9,3O7L7BFSHFSDMJJD6LX8UXQH0EDEIN,3O7L7BFSHFSDMJJD6LX8UXQH0EDEIN,276349,276349,,,,,,,,,,
,,,,3,1.455845,0,9,9,101,1,there are some purple and black color cloths on the boat,there are some green and black color cloths on the boat,wolfe1,image-121,4,25,APUZW7OGUAYR5,2021-02-18_14h28.56.524,MetaAwareness,2020.1.2,Win32,60,3KTZHH2ONJIFNH1JOV4Y6X6OEY88MT,APUZW7OGUAYR5,3O7L7BFSHFSDMJJD6LX8UXQH0EDEIN,S77O9,S77O9,3O7L7BFSHFSDMJJD6LX8UXQH0EDEIN,3O7L7BFSHFSDMJJD6LX8UXQH0EDEIN,276349,276349,,,,,,,,,,
,,,,5,1.34687,0,10,10,88,1,a set of stairs with a yellow cushion on the top stair.,a set of stairs with a white cushion on the top stair.,wolfe1,image-106,1,25,APUZW7OGUAYR5,2021-02-18_14h28.56.524,MetaAwareness,2020.1.2,Win32,60,3KTZHH2ONJIFNH1JOV4Y6X6OEY88MT,APUZW7OGUAYR5,3O7L7BFSHFSDMJJD6LX8UXQH0EDEIN,S77O9,S77O9,3O7L7BFSHFSDMJJD6LX8UXQH0EDEIN,3O7L7BFSHFSDMJJD6LX8UXQH0EDEIN,276349,276349,,,,,,,,,,
,,,,4,1.743095,0,11,11,98,1,large jungle gym park with parents and kids playing. one parent watches their kid wearing a red backpack,large jungle gym park with parents and kids playing. one parent watches their kid wearing a orange backpack.,wolfe1,image-118,3,25,APUZW7OGUAYR5,2021-02-18_14h28.56.524,MetaAwareness,2020.1.2,Win32,60,3KTZHH2ONJIFNH1JOV4Y6X6OEY88MT,APUZW7OGUAYR5,3O7L7BFSHFSDMJJD6LX8UXQH0EDEIN,S77O9,S77O9,3O7L7BFSHFSDMJJD6LX8UXQH0EDEIN,3O7L7BFSHFSDMJJD6LX8UXQH0EDEIN,276349,276349,,,,,,,,,,
,,,,3,1.693625,0,12,12,72,1,on the left of the table there is a blue container,on the left of the table there is a purple container,wolfe1,image-087,3,25,APUZW7OGUAYR5,2021-02-18_14h28.56.524,MetaAwareness,2020.1.2,Win32,60,3KTZHH2ONJIFNH1JOV4Y6X6OEY88MT,APUZW7OGUAYR5,3O7L7BFSHFSDMJJD6LX8UXQH0EDEIN,S77O9,S77O9,3O7L7BFSHFSDMJJD6LX8UXQH0EDEIN,3O7L7BFSHFSDMJJD6LX8UXQH0EDEIN,276349,276349,,,,,,,,,,
,,,,4,1.814355,0,13,13,10,1,preparing for skiis with yellow plate,preparing for skiis with luggage,wolfe1,image-010,1,25,APUZW7OGUAYR5,2021-02-18_14h28.56.524,MetaAwareness,2020.1.2,Win32,60,3KTZHH2ONJIFNH1JOV4Y6X6OEY88MT,APUZW7OGUAYR5,3O7L7BFSHFSDMJJD6LX8UXQH0EDEIN,S77O9,S77O9,3O7L7BFSHFSDMJJD6LX8UXQH0EDEIN,3O7L7BFSHFSDMJJD6LX8UXQH0EDEIN,276349,276349,,,,,,,,,,
,,,,5,1.955545,0,14,14,70,1,2 women talking with papers with red margins on table,2 women with papers with blue margins on table,wolfe1,image-081,2,25,APUZW7OGUAYR5,2021-02-18_14h28.56.524,MetaAwareness,2020.1.2,Win32,60,3KTZHH2ONJIFNH1JOV4Y6X6OEY88MT,APUZW7OGUAYR5,3O7L7BFSHFSDMJJD6LX8UXQH0EDEIN,S77O9,S77O9,3O7L7BFSHFSDMJJD6LX8UXQH0EDEIN,3O7L7BFSHFSDMJJD6LX8UXQH0EDEIN,276349,276349,,,,,,,,,,
,,,,3,1.509555,0,15,15,9,1,"a woman pettin a deer at what appears to be a petting zoo, there is a person in all black behind her to the right.","a woman petting a deer at a zoo, there is no person dressed in all black behind her",wolfe1,image-008,5,25,APUZW7OGUAYR5,2021-02-18_14h28.56.524,MetaAwareness,2020.1.2,Win32,60,3KTZHH2ONJIFNH1JOV4Y6X6OEY88MT,APUZW7OGUAYR5,3O7L7BFSHFSDMJJD6LX8UXQH0EDEIN,S77O9,S77O9,3O7L7BFSHFSDMJJD6LX8UXQH0EDEIN,3O7L7BFSHFSDMJJD6LX8UXQH0EDEIN,276349,276349,,,,,,,,,,
,,,,4,1.600955,0,16,16,28,1,three runners jogging next to a building and two patches of grass that contain an object on one of them,three runners jogging next to a building and two patches of grass that are open and do not have any objects on them,wolfe1,image-022,1,25,APUZW7OGUAYR5,2021-02-18_14h28.56.524,MetaAwareness,2020.1.2,Win32,60,3KTZHH2ONJIFNH1JOV4Y6X6OEY88MT,APUZW7OGUAYR5,3O7L7BFSHFSDMJJD6LX8UXQH0EDEIN,S77O9,S77O9,3O7L7BFSHFSDMJJD6LX8UXQH0EDEIN,3O7L7BFSHFSDMJJD6LX8UXQH0EDEIN,276349,276349,,,,,,,,,,
,,,,5,1.782665,0,17,17,92,1,airplanes next to yellow truck,airplanes next to red truck,wolfe1,image-111,3,25,APUZW7OGUAYR5,2021-02-18_14h28.56.524,MetaAwareness,2020.1.2,Win32,60,3KTZHH2ONJIFNH1JOV4Y6X6OEY88MT,APUZW7OGUAYR5,3O7L7BFSHFSDMJJD6LX8UXQH0EDEIN,S77O9,S77O9,3O7L7BFSHFSDMJJD6LX8UXQH0EDEIN,3O7L7BFSHFSDMJJD6LX8UXQH0EDEIN,276349,276349,,,,,,,,,,
,,,,5,2.36006,0,18,18,25,1,an outdoor event with many people and a white tent. there is a pink and white striped bag on the grass,"an outdoor event with many people and a whitee tent, there is no pink and white striped bag on the grass in this image",wolfe1,image-020,6,25,APUZW7OGUAYR5,2021-02-18_14h28.56.524,MetaAwareness,2020.1.2,Win32,60,3KTZHH2ONJIFNH1JOV4Y6X6OEY88MT,APUZW7OGUAYR5,3O7L7BFSHFSDMJJD6LX8UXQH0EDEIN,S77O9,S77O9,3O7L7BFSHFSDMJJD6LX8UXQH0EDEIN,3O7L7BFSHFSDMJJD6LX8UXQH0EDEIN,276349,276349,,,,,,,,,,
,,,,3,1.356275,0,19,19,85,1,a man attending a meeting wearing a light blue shirt.,a man attending a meeting wearing a green shirt.,wolfe1,image-104,9,25,APUZW7OGUAYR5,2021-02-18_14h28.56.524,MetaAwareness,2020.1.2,Win32,60,3KTZHH2ONJIFNH1JOV4Y6X6OEY88MT,APUZW7OGUAYR5,3O7L7BFSHFSDMJJD6LX8UXQH0EDEIN,S77O9,S77O9,3O7L7BFSHFSDMJJD6LX8UXQH0EDEIN,3O7L7BFSHFSDMJJD6LX8UXQH0EDEIN,276349,276349,,,,,,,,,,
,,,,4,1.887685,0,20,20,44,1,a group of men playing basketball on a court next to a blue building and a crowd of people watching,a group of men playing basketball on a court next to no building and a crowd of people watching,wolfe1,image-033,2,25,APUZW7OGUAYR5,2021-02-18_14h28.56.524,MetaAwareness,2020.1.2,Win32,60,3KTZHH2ONJIFNH1JOV4Y6X6OEY88MT,APUZW7OGUAYR5,3O7L7BFSHFSDMJJD6LX8UXQH0EDEIN,S77O9,S77O9,3O7L7BFSHFSDMJJD6LX8UXQH0EDEIN,3O7L7BFSHFSDMJJD6LX8UXQH0EDEIN,276349,276349,,,,,,,,,,
,,,,3,1.63195,0,21,21,53,1,a crowd is in front of an ornate church with statues at the top of each arch on its facade,a crowd is in front of an ornate church with statues at the top of each arch on its facade except for the leftmost arch,wolfe1,image-042,6,25,APUZW7OGUAYR5,2021-02-18_14h28.56.524,MetaAwareness,2020.1.2,Win32,60,3KTZHH2ONJIFNH1JOV4Y6X6OEY88MT,APUZW7OGUAYR5,3O7L7BFSHFSDMJJD6LX8UXQH0EDEIN,S77O9,S77O9,3O7L7BFSHFSDMJJD6LX8UXQH0EDEIN,3O7L7BFSHFSDMJJD6LX8UXQH0EDEIN,276349,276349,,,,,,,,,,
,,,,5,1.45665,0,22,22,39,1,a parade of people are on the stree and the girl has a badge on her right chest,a parade of people are on the street and the girl has no badge on her right chest,wolfe1,image-031,4,25,APUZW7OGUAYR5,2021-02-18_14h28.56.524,MetaAwareness,2020.1.2,Win32,60,3KTZHH2ONJIFNH1JOV4Y6X6OEY88MT,APUZW7OGUAYR5,3O7L7BFSHFSDMJJD6LX8UXQH0EDEIN,S77O9,S77O9,3O7L7BFSHFSDMJJD6LX8UXQH0EDEIN,3O7L7BFSHFSDMJJD6LX8UXQH0EDEIN,276349,276349,,,,,,,,,,
,,,,3,1.50842,0,23,23,105,1,a walk in the park on a gated path along the water with green posts sticking out of the water,a walk in the park on a gated path along the water with green and brown posts sticking out of the water,wolfe1,image-124,6,25,APUZW7OGUAYR5,2021-02-18_14h28.56.524,MetaAwareness,2020.1.2,Win32,60,3KTZHH2ONJIFNH1JOV4Y6X6OEY88MT,APUZW7OGUAYR5,3O7L7BFSHFSDMJJD6LX8UXQH0EDEIN,S77O9,S77O9,3O7L7BFSHFSDMJJD6LX8UXQH0EDEIN,3O7L7BFSHFSDMJJD6LX8UXQH0EDEIN,276349,276349,,,,,,,,,,
,,,,4,2.54552,0,24,24,82,1,a person with green shoes walks with a crowd down a rainy sidewalk,a person with red shoes walks with a crowd down a rainy sidewalk,wolfe1,image-103,2,25,APUZW7OGUAYR5,2021-02-18_14h28.56.524,MetaAwareness,2020.1.2,Win32,60,3KTZHH2ONJIFNH1JOV4Y6X6OEY88MT,APUZW7OGUAYR5,3O7L7BFSHFSDMJJD6LX8UXQH0EDEIN,S77O9,S77O9,3O7L7BFSHFSDMJJD6LX8UXQH0EDEIN,3O7L7BFSHFSDMJJD6LX8UXQH0EDEIN,276349,276349,,,,,,,,,,
,,,,3,1.63674,0,25,25,20,1,four men playing golf and the current golfer has something behind him.,four men playing golf,wolfe1,image-017,9,25,APUZW7OGUAYR5,2021-02-18_14h28.56.524,MetaAwareness,2020.1.2,Win32,60,3KTZHH2ONJIFNH1JOV4Y6X6OEY88MT,APUZW7OGUAYR5,3O7L7BFSHFSDMJJD6LX8UXQH0EDEIN,S77O9,S77O9,3O7L7BFSHFSDMJJD6LX8UXQH0EDEIN,3O7L7BFSHFSDMJJD6LX8UXQH0EDEIN,276349,276349,,,,,,,,,,
,,,,4,1.338685,0,26,26,73,1,"an outdoor area with building, trees, people sitting down and eating, including a woman in red clothing","an outdoor area with building, trees, people sitting down and eating, including a woman in purple clothing",wolfe1,image-091,2,25,APUZW7OGUAYR5,2021-02-18_14h28.56.524,MetaAwareness,2020.1.2,Win32,60,3KTZHH2ONJIFNH1JOV4Y6X6OEY88MT,APUZW7OGUAYR5,3O7L7BFSHFSDMJJD6LX8UXQH0EDEIN,S77O9,S77O9,3O7L7BFSHFSDMJJD6LX8UXQH0EDEIN,3O7L7BFSHFSDMJJD6LX8UXQH0EDEIN,276349,276349,,,,,,,,,,
,,,,4,1.31091,0,27,27,84,1,twelve people a a conference table face a woman at the end of the table. the man to the left of the woman at the front is wearing a blue shirt,twelve people at a conference table face a woman at the end of the table. the man to the left of the woman at the front is wearing a green shirt,wolfe1,image-104,7,25,APUZW7OGUAYR5,2021-02-18_14h28.56.524,MetaAwareness,2020.1.2,Win32,60,3KTZHH2ONJIFNH1JOV4Y6X6OEY88MT,APUZW7OGUAYR5,3O7L7BFSHFSDMJJD6LX8UXQH0EDEIN,S77O9,S77O9,3O7L7BFSHFSDMJJD6LX8UXQH0EDEIN,3O7L7BFSHFSDMJJD6LX8UXQH0EDEIN,276349,276349,,,,,,,,,,
,,,,3,1.426955,0,28,28,17,1,a bunch of people enjoying a day at the park where someone has dropped something,a bunch of people enjoying a day at the park with the pavement clear of debris,wolfe1,image-016,1,25,APUZW7OGUAYR5,2021-02-18_14h28.56.524,MetaAwareness,2020.1.2,Win32,60,3KTZHH2ONJIFNH1JOV4Y6X6OEY88MT,APUZW7OGUAYR5,3O7L7BFSHFSDMJJD6LX8UXQH0EDEIN,S77O9,S77O9,3O7L7BFSHFSDMJJD6LX8UXQH0EDEIN,3O7L7BFSHFSDMJJD6LX8UXQH0EDEIN,276349,276349,,,,,,,,,,
,,,,4,1.642335,0,29,29,81,1,a tent set up in the woods with several red striped towels and one blue stripped towel hanging up.,a tent set up in the woods with red striped towels hanging up.,wolfe1,image-100,3,25,APUZW7OGUAYR5,2021-02-18_14h28.56.524,MetaAwareness,2020.1.2,Win32,60,3KTZHH2ONJIFNH1JOV4Y6X6OEY88MT,APUZW7OGUAYR5,3O7L7BFSHFSDMJJD6LX8UXQH0EDEIN,S77O9,S77O9,3O7L7BFSHFSDMJJD6LX8UXQH0EDEIN,3O7L7BFSHFSDMJJD6LX8UXQH0EDEIN,276349,276349,,,,,,,,,,
,,,,,,,,,,,,,,,,25,APUZW7OGUAYR5,2021-02-18_14h28.56.524,MetaAwareness,2020.1.2,Win32,60,3KTZHH2ONJIFNH1JOV4Y6X6OEY88MT,APUZW7OGUAYR5,3O7L7BFSHFSDMJJD6LX8UXQH0EDEIN,S77O9,S77O9,3O7L7BFSHFSDMJJD6LX8UXQH0EDEIN,3O7L7BFSHFSDMJJD6LX8UXQH0EDEIN,276349,276349,3,0.68953,someone laying underneath a blue beach umbrella on a crowded beach,someone laying underneath a blue beach umbrella on a crowded beach,same,4,0.469295,members of a marching band crossing a track that all have feather plumes at the front of their hats,a cluttered and rustic looking cafe with 10 hanging lights,different
