consent_response.keys,consent_response.rt,key_resp_2.keys,key_resp_2.rt,user_resp.keys,user_resp.rt,trials.thisRepN,trials.thisTrialN,trials.thisN,trials.thisIndex,trials.ran,image_1_text,image_2_text,database,image,number,age,worker_ID,date,expName,psychopyVersion,OS,frameRate,hitId,workerId,assignmentId,a,tp_a,b,tp_b,c,tp_c,catch_same_resp.keys,catch_same_resp.rt,image_1_text_catch_same,image_2_text_catch_same,image_catch_same,catch_different_resp.keys,catch_different_resp.rt,image_1_text_catch_different,image_2_text_catch_different,image_catch_different
space,11.63556,space,12.263425,2,7.28994,0,0,0,366,1,a clear wall,a picture hang on the wall,wolfe2,040_L_painting,3,33,A1HMO9XPRPUPWJ,2021-01-24_20h33.59.714,MetaAwareness,2020.1.2,Win32,60,37PGLWGSJU9DMZDTC539498YRMIIKZ,A1HMO9XPRPUPWJ,3K4J6M3CXFWW0FW60SVJD2NAXA6GAU,C64K3,C64K3,3K4J6M3CXFWW0FW60SVJD2NAXA6GAU,3K4J6M3CXFWW0FW60SVJD2NAXA6GAU,271073,271073,,,,,,,,,,
,,,,5,8.69321,0,1,1,604,1,family room office area with books,the office holds the book shelf for the family room,wolfe2,065_R_cd,5,33,A1HMO9XPRPUPWJ,2021-01-24_20h33.59.714,MetaAwareness,2020.1.2,Win32,60,37PGLWGSJU9DMZDTC539498YRMIIKZ,A1HMO9XPRPUPWJ,3K4J6M3CXFWW0FW60SVJD2NAXA6GAU,C64K3,C64K3,3K4J6M3CXFWW0FW60SVJD2NAXA6GAU,3K4J6M3CXFWW0FW60SVJD2NAXA6GAU,271073,271073,,,,,,,,,,
,,,,4,6.15632,0,2,2,218,1,a glass table in between chairs,a tv remote sitting on a glass table,wolfe2,023_L_remote,8,33,A1HMO9XPRPUPWJ,2021-01-24_20h33.59.714,MetaAwareness,2020.1.2,Win32,60,37PGLWGSJU9DMZDTC539498YRMIIKZ,A1HMO9XPRPUPWJ,3K4J6M3CXFWW0FW60SVJD2NAXA6GAU,C64K3,C64K3,3K4J6M3CXFWW0FW60SVJD2NAXA6GAU,3K4J6M3CXFWW0FW60SVJD2NAXA6GAU,271073,271073,,,,,,,,,,
,,,,5,8.875925,0,3,3,821,1,an empty salon with five stations on the right wall.  there's a clock next to the far left mirror.,an empty salon with five stations on the right wall.,wolfe2,088_R_clock,1,33,A1HMO9XPRPUPWJ,2021-01-24_20h33.59.714,MetaAwareness,2020.1.2,Win32,60,37PGLWGSJU9DMZDTC539498YRMIIKZ,A1HMO9XPRPUPWJ,3K4J6M3CXFWW0FW60SVJD2NAXA6GAU,C64K3,C64K3,3K4J6M3CXFWW0FW60SVJD2NAXA6GAU,3K4J6M3CXFWW0FW60SVJD2NAXA6GAU,271073,271073,,,,,,,,,,
,,,,4,5.798105,0,4,4,173,1,an outside living space with chairs and a stained glass window.,an outside living space with a deck and chairs and a plant on the far edge.,wolfe2,018_R_plant,4,33,A1HMO9XPRPUPWJ,2021-01-24_20h33.59.714,MetaAwareness,2020.1.2,Win32,60,37PGLWGSJU9DMZDTC539498YRMIIKZ,A1HMO9XPRPUPWJ,3K4J6M3CXFWW0FW60SVJD2NAXA6GAU,C64K3,C64K3,3K4J6M3CXFWW0FW60SVJD2NAXA6GAU,3K4J6M3CXFWW0FW60SVJD2NAXA6GAU,271073,271073,,,,,,,,,,
,,,,6,7.69682,0,5,5,393,1,"comfortable and beautiful living room has modern technology available but feels like home with features like a built in wood unit for books, clocks and decor",comfortable and beautiful living room has modern technology available but feels like home with features like a built in wood unit for clocks.,wolfe2,043_L_clock,1,33,A1HMO9XPRPUPWJ,2021-01-24_20h33.59.714,MetaAwareness,2020.1.2,Win32,60,37PGLWGSJU9DMZDTC539498YRMIIKZ,A1HMO9XPRPUPWJ,3K4J6M3CXFWW0FW60SVJD2NAXA6GAU,C64K3,C64K3,3K4J6M3CXFWW0FW60SVJD2NAXA6GAU,3K4J6M3CXFWW0FW60SVJD2NAXA6GAU,271073,271073,,,,,,,,,,
,,,,6,8.257775,0,6,6,147,1,"a view of a modern family room with wood floors, gray walls, a large television, and two recessed lights in the ceiling","a view of a modern family room with wood floors, gray walls, a large television, and three recessed lights in the ceiling",wolfe2,015_R_ceilinglight,4,33,A1HMO9XPRPUPWJ,2021-01-24_20h33.59.714,MetaAwareness,2020.1.2,Win32,60,37PGLWGSJU9DMZDTC539498YRMIIKZ,A1HMO9XPRPUPWJ,3K4J6M3CXFWW0FW60SVJD2NAXA6GAU,C64K3,C64K3,3K4J6M3CXFWW0FW60SVJD2NAXA6GAU,3K4J6M3CXFWW0FW60SVJD2NAXA6GAU,271073,271073,,,,,,,,,,
,,,,5,7.096315,0,7,7,129,1,a loft type living space. has a dining area with one light hanging above the table,a loft type living space. has a dining area with two lights hanging above the table.,wolfe2,013_R_lamp,5,33,A1HMO9XPRPUPWJ,2021-01-24_20h33.59.714,MetaAwareness,2020.1.2,Win32,60,37PGLWGSJU9DMZDTC539498YRMIIKZ,A1HMO9XPRPUPWJ,3K4J6M3CXFWW0FW60SVJD2NAXA6GAU,C64K3,C64K3,3K4J6M3CXFWW0FW60SVJD2NAXA6GAU,3K4J6M3CXFWW0FW60SVJD2NAXA6GAU,271073,271073,,,,,,,,,,
,,,,2,12.09207,0,8,8,692,1,i really think that this image provides a classic home.  there should really be more lights in this area but overall it looks great.,i love the extra lighting.  the whole decor is welcoming.,wolfe2,075_R_light,2,33,A1HMO9XPRPUPWJ,2021-01-24_20h33.59.714,MetaAwareness,2020.1.2,Win32,60,37PGLWGSJU9DMZDTC539498YRMIIKZ,A1HMO9XPRPUPWJ,3K4J6M3CXFWW0FW60SVJD2NAXA6GAU,C64K3,C64K3,3K4J6M3CXFWW0FW60SVJD2NAXA6GAU,3K4J6M3CXFWW0FW60SVJD2NAXA6GAU,271073,271073,,,,,,,,,,
,,,,5,8.55414,0,9,9,1003,1,a long view of a contemporary livingroom toward the exterior wall of windows.  there is a with sofa with an orange throw pillow.,a long view of a contemporary livingroom toward the exterior wall of windows. there is a white sofa with cushions.,wolfe2,109_L_pillow,3,33,A1HMO9XPRPUPWJ,2021-01-24_20h33.59.714,MetaAwareness,2020.1.2,Win32,60,37PGLWGSJU9DMZDTC539498YRMIIKZ,A1HMO9XPRPUPWJ,3K4J6M3CXFWW0FW60SVJD2NAXA6GAU,C64K3,C64K3,3K4J6M3CXFWW0FW60SVJD2NAXA6GAU,3K4J6M3CXFWW0FW60SVJD2NAXA6GAU,271073,271073,,,,,,,,,,
,,,,3,8.42485,0,10,10,398,1,a modern living room with no clock in the cupboard,a modern living room with a clock in the cupboard,wolfe2,043_R_clock,1,33,A1HMO9XPRPUPWJ,2021-01-24_20h33.59.714,MetaAwareness,2020.1.2,Win32,60,37PGLWGSJU9DMZDTC539498YRMIIKZ,A1HMO9XPRPUPWJ,3K4J6M3CXFWW0FW60SVJD2NAXA6GAU,C64K3,C64K3,3K4J6M3CXFWW0FW60SVJD2NAXA6GAU,3K4J6M3CXFWW0FW60SVJD2NAXA6GAU,271073,271073,,,,,,,,,,
,,,,4,6.25699,0,11,11,934,1,this bathroom has a modern design and both wine glasses and a jar,you can find two wine glasses in this modern bathroom,wolfe2,101_R_cup,3,33,A1HMO9XPRPUPWJ,2021-01-24_20h33.59.714,MetaAwareness,2020.1.2,Win32,60,37PGLWGSJU9DMZDTC539498YRMIIKZ,A1HMO9XPRPUPWJ,3K4J6M3CXFWW0FW60SVJD2NAXA6GAU,C64K3,C64K3,3K4J6M3CXFWW0FW60SVJD2NAXA6GAU,3K4J6M3CXFWW0FW60SVJD2NAXA6GAU,271073,271073,,,,,,,,,,
,,,,5,7.13424,0,12,12,1053,1,"a gorgeous open concept house that shows the kitchen flowing into the living room, their is a plant in front of the kitchen window","a gorgeous open concept house that shows the kitchen flowing into the living room, it appears that there is a perfect window for a plant in the kitchen",wolfe2,115_L_pot,4,33,A1HMO9XPRPUPWJ,2021-01-24_20h33.59.714,MetaAwareness,2020.1.2,Win32,60,37PGLWGSJU9DMZDTC539498YRMIIKZ,A1HMO9XPRPUPWJ,3K4J6M3CXFWW0FW60SVJD2NAXA6GAU,C64K3,C64K3,3K4J6M3CXFWW0FW60SVJD2NAXA6GAU,3K4J6M3CXFWW0FW60SVJD2NAXA6GAU,271073,271073,,,,,,,,,,
,,,,4,8.656945,0,13,13,283,1,there is a gap between two countertops in this bathroom,there is a lower countertop that connects two countertops in this bathroom,wolfe2,030_R_drawer,4,33,A1HMO9XPRPUPWJ,2021-01-24_20h33.59.714,MetaAwareness,2020.1.2,Win32,60,37PGLWGSJU9DMZDTC539498YRMIIKZ,A1HMO9XPRPUPWJ,3K4J6M3CXFWW0FW60SVJD2NAXA6GAU,C64K3,C64K3,3K4J6M3CXFWW0FW60SVJD2NAXA6GAU,3K4J6M3CXFWW0FW60SVJD2NAXA6GAU,271073,271073,,,,,,,,,,
,,,,4,8.09561,0,14,14,172,1,a deck of a house with only short plants in the front garden.,a deck of a house that has one tall plant amongst the short plants in the garden.,wolfe2,018_R_plant,3,33,A1HMO9XPRPUPWJ,2021-01-24_20h33.59.714,MetaAwareness,2020.1.2,Win32,60,37PGLWGSJU9DMZDTC539498YRMIIKZ,A1HMO9XPRPUPWJ,3K4J6M3CXFWW0FW60SVJD2NAXA6GAU,C64K3,C64K3,3K4J6M3CXFWW0FW60SVJD2NAXA6GAU,3K4J6M3CXFWW0FW60SVJD2NAXA6GAU,271073,271073,,,,,,,,,,
,,,,3,5.675855,0,15,15,450,1,theres a dresser with a small picture to the left,theres a dresser with no pictures around it,wolfe2,049_L_painting,4,33,A1HMO9XPRPUPWJ,2021-01-24_20h33.59.714,MetaAwareness,2020.1.2,Win32,60,37PGLWGSJU9DMZDTC539498YRMIIKZ,A1HMO9XPRPUPWJ,3K4J6M3CXFWW0FW60SVJD2NAXA6GAU,C64K3,C64K3,3K4J6M3CXFWW0FW60SVJD2NAXA6GAU,3K4J6M3CXFWW0FW60SVJD2NAXA6GAU,271073,271073,,,,,,,,,,
,,,,4,9.160535,0,16,16,841,1,a red and white bedroom with a small lamp in the corner,a red and white bedroom with no clutter or objects on the floor,wolfe2,090_R_lamp,2,33,A1HMO9XPRPUPWJ,2021-01-24_20h33.59.714,MetaAwareness,2020.1.2,Win32,60,37PGLWGSJU9DMZDTC539498YRMIIKZ,A1HMO9XPRPUPWJ,3K4J6M3CXFWW0FW60SVJD2NAXA6GAU,C64K3,C64K3,3K4J6M3CXFWW0FW60SVJD2NAXA6GAU,3K4J6M3CXFWW0FW60SVJD2NAXA6GAU,271073,271073,,,,,,,,,,
,,,,5,6.245295,0,17,17,476,1,a living room with couches facing a flat screen tv,a living room with courches facing a flat screen tv and three speakers,wolfe2,052_L_speaker,1,33,A1HMO9XPRPUPWJ,2021-01-24_20h33.59.714,MetaAwareness,2020.1.2,Win32,60,37PGLWGSJU9DMZDTC539498YRMIIKZ,A1HMO9XPRPUPWJ,3K4J6M3CXFWW0FW60SVJD2NAXA6GAU,C64K3,C64K3,3K4J6M3CXFWW0FW60SVJD2NAXA6GAU,3K4J6M3CXFWW0FW60SVJD2NAXA6GAU,271073,271073,,,,,,,,,,
,,,,5,7.062205,0,18,18,685,1,family coffee table in living room,the living room space includes a coffee table,wolfe2,074_R_book,6,33,A1HMO9XPRPUPWJ,2021-01-24_20h33.59.714,MetaAwareness,2020.1.2,Win32,60,37PGLWGSJU9DMZDTC539498YRMIIKZ,A1HMO9XPRPUPWJ,3K4J6M3CXFWW0FW60SVJD2NAXA6GAU,C64K3,C64K3,3K4J6M3CXFWW0FW60SVJD2NAXA6GAU,3K4J6M3CXFWW0FW60SVJD2NAXA6GAU,271073,271073,,,,,,,,,,
,,,,4,6.320665,0,19,19,436,1,there is a desk in a well-appointed guest room.,a missing drawer-pull is added to a desk in the well-appointed guest room.,wolfe2,047_R_handle,5,33,A1HMO9XPRPUPWJ,2021-01-24_20h33.59.714,MetaAwareness,2020.1.2,Win32,60,37PGLWGSJU9DMZDTC539498YRMIIKZ,A1HMO9XPRPUPWJ,3K4J6M3CXFWW0FW60SVJD2NAXA6GAU,C64K3,C64K3,3K4J6M3CXFWW0FW60SVJD2NAXA6GAU,3K4J6M3CXFWW0FW60SVJD2NAXA6GAU,271073,271073,,,,,,,,,,
,,,,4,5.975185,0,20,20,46,1,a bedroom with a bedside table with only a lamp,a bedroom with a bedside table and alamp and a vase,wolfe2,006_L_vase,3,33,A1HMO9XPRPUPWJ,2021-01-24_20h33.59.714,MetaAwareness,2020.1.2,Win32,60,37PGLWGSJU9DMZDTC539498YRMIIKZ,A1HMO9XPRPUPWJ,3K4J6M3CXFWW0FW60SVJD2NAXA6GAU,C64K3,C64K3,3K4J6M3CXFWW0FW60SVJD2NAXA6GAU,3K4J6M3CXFWW0FW60SVJD2NAXA6GAU,271073,271073,,,,,,,,,,
,,,,5,3.970535,0,21,21,979,1,a very monotone public bathroom with a hand dryer by the door,a very monotone public bathroom,wolfe2,106_L_toweldispenser,9,33,A1HMO9XPRPUPWJ,2021-01-24_20h33.59.714,MetaAwareness,2020.1.2,Win32,60,37PGLWGSJU9DMZDTC539498YRMIIKZ,A1HMO9XPRPUPWJ,3K4J6M3CXFWW0FW60SVJD2NAXA6GAU,C64K3,C64K3,3K4J6M3CXFWW0FW60SVJD2NAXA6GAU,3K4J6M3CXFWW0FW60SVJD2NAXA6GAU,271073,271073,,,,,,,,,,
,,,,5,5.34011,0,22,22,1098,1,a living room with a screen door to the outside and a flower and two gold statues on the mantle,a living room with a screen door to the outside and a flower and one gold statue on the mantle,wolfe2,120_L_art,4,33,A1HMO9XPRPUPWJ,2021-01-24_20h33.59.714,MetaAwareness,2020.1.2,Win32,60,37PGLWGSJU9DMZDTC539498YRMIIKZ,A1HMO9XPRPUPWJ,3K4J6M3CXFWW0FW60SVJD2NAXA6GAU,C64K3,C64K3,3K4J6M3CXFWW0FW60SVJD2NAXA6GAU,3K4J6M3CXFWW0FW60SVJD2NAXA6GAU,271073,271073,,,,,,,,,,
,,,,5,7.34153,0,23,23,472,1,a section of a living area with a lot of decor and a white mantle,a section of a living area with a lot of decor and a figurine on top of a white mantle,wolfe2,051_R_owl,4,33,A1HMO9XPRPUPWJ,2021-01-24_20h33.59.714,MetaAwareness,2020.1.2,Win32,60,37PGLWGSJU9DMZDTC539498YRMIIKZ,A1HMO9XPRPUPWJ,3K4J6M3CXFWW0FW60SVJD2NAXA6GAU,C64K3,C64K3,3K4J6M3CXFWW0FW60SVJD2NAXA6GAU,3K4J6M3CXFWW0FW60SVJD2NAXA6GAU,271073,271073,,,,,,,,,,
,,,,4,6.181465,0,24,24,784,1,a well appointed living area contains a vast assortment of accoutremonts.,a wall sconce appears in the busy livingroom,wolfe2,084_R_light,5,33,A1HMO9XPRPUPWJ,2021-01-24_20h33.59.714,MetaAwareness,2020.1.2,Win32,60,37PGLWGSJU9DMZDTC539498YRMIIKZ,A1HMO9XPRPUPWJ,3K4J6M3CXFWW0FW60SVJD2NAXA6GAU,C64K3,C64K3,3K4J6M3CXFWW0FW60SVJD2NAXA6GAU,3K4J6M3CXFWW0FW60SVJD2NAXA6GAU,271073,271073,,,,,,,,,,
,,,,6,8.439665,0,25,25,935,1,"a bathroom with a toilet, mirror and a shelf full of items including glasses, various products and a red cup","a bathroom with a toilet, mirror, and a  shelf full of items including glasses and various products",wolfe2,101_R_cup,4,33,A1HMO9XPRPUPWJ,2021-01-24_20h33.59.714,MetaAwareness,2020.1.2,Win32,60,37PGLWGSJU9DMZDTC539498YRMIIKZ,A1HMO9XPRPUPWJ,3K4J6M3CXFWW0FW60SVJD2NAXA6GAU,C64K3,C64K3,3K4J6M3CXFWW0FW60SVJD2NAXA6GAU,3K4J6M3CXFWW0FW60SVJD2NAXA6GAU,271073,271073,,,,,,,,,,
,,,,4,9.925745,0,26,26,1072,1,a clean traditional living room with a plant on a small table by the door leading outside,a clean traditional living room with nothing on the table by the door leading outside,wolfe2,117_R_plant_sized,1,33,A1HMO9XPRPUPWJ,2021-01-24_20h33.59.714,MetaAwareness,2020.1.2,Win32,60,37PGLWGSJU9DMZDTC539498YRMIIKZ,A1HMO9XPRPUPWJ,3K4J6M3CXFWW0FW60SVJD2NAXA6GAU,C64K3,C64K3,3K4J6M3CXFWW0FW60SVJD2NAXA6GAU,3K4J6M3CXFWW0FW60SVJD2NAXA6GAU,271073,271073,,,,,,,,,,
,,,,5,5.15726,0,27,27,1010,1,a mud room with a pool outside with a small plant in the corner,a mud room with a pool outside,wolfe2,110_L_plant,2,33,A1HMO9XPRPUPWJ,2021-01-24_20h33.59.714,MetaAwareness,2020.1.2,Win32,60,37PGLWGSJU9DMZDTC539498YRMIIKZ,A1HMO9XPRPUPWJ,3K4J6M3CXFWW0FW60SVJD2NAXA6GAU,C64K3,C64K3,3K4J6M3CXFWW0FW60SVJD2NAXA6GAU,3K4J6M3CXFWW0FW60SVJD2NAXA6GAU,271073,271073,,,,,,,,,,
,,,,3,3.59385,0,28,28,98,1,a short candlestick by a bed,two long candlesticks sitting on small end table,wolfe2,010_R_candle,7,33,A1HMO9XPRPUPWJ,2021-01-24_20h33.59.714,MetaAwareness,2020.1.2,Win32,60,37PGLWGSJU9DMZDTC539498YRMIIKZ,A1HMO9XPRPUPWJ,3K4J6M3CXFWW0FW60SVJD2NAXA6GAU,C64K3,C64K3,3K4J6M3CXFWW0FW60SVJD2NAXA6GAU,3K4J6M3CXFWW0FW60SVJD2NAXA6GAU,271073,271073,,,,,,,,,,
,,,,5,5.10828,0,29,29,924,1,a bathroom with dark accents that has a magnifyer mirror on the right side of the sink area below the shelf,a bathroom with dark accents that has only a shelf area on the right side of the sink area,wolfe2,100_R_mirror,1,33,A1HMO9XPRPUPWJ,2021-01-24_20h33.59.714,MetaAwareness,2020.1.2,Win32,60,37PGLWGSJU9DMZDTC539498YRMIIKZ,A1HMO9XPRPUPWJ,3K4J6M3CXFWW0FW60SVJD2NAXA6GAU,C64K3,C64K3,3K4J6M3CXFWW0FW60SVJD2NAXA6GAU,3K4J6M3CXFWW0FW60SVJD2NAXA6GAU,271073,271073,,,,,,,,,,
,,,,,,,,,,,,,,,,33,A1HMO9XPRPUPWJ,2021-01-24_20h33.59.714,MetaAwareness,2020.1.2,Win32,60,37PGLWGSJU9DMZDTC539498YRMIIKZ,A1HMO9XPRPUPWJ,3K4J6M3CXFWW0FW60SVJD2NAXA6GAU,C64K3,C64K3,3K4J6M3CXFWW0FW60SVJD2NAXA6GAU,3K4J6M3CXFWW0FW60SVJD2NAXA6GAU,271073,271073,6,9.07797,someone laying underneath a blue beach umbrella on a crowded beach,someone laying underneath a blue beach umbrella on a crowded beach,same,1,7.59086,members of a marching band crossing a track that all have feather plumes at the front of their hats,a cluttered and rustic looking cafe with 10 hanging lights,different
