consent_response.keys,consent_response.rt,key_resp_2.keys,key_resp_2.rt,user_resp.keys,user_resp.rt,trials.thisRepN,trials.thisTrialN,trials.thisN,trials.thisIndex,trials.ran,image_1_text,image_2_text,database,image,number,age,worker_ID,date,expName,psychopyVersion,OS,frameRate,hitId,workerId,assignmentId,a,tp_a,b,tp_b,c,tp_c,catch_same_resp.keys,catch_same_resp.rt,image_1_text_catch_same,image_2_text_catch_same,image_catch_same,catch_different_resp.keys,catch_different_resp.rt,image_1_text_catch_different,image_2_text_catch_different,image_catch_different
space,37.092325,space,29.79223,5,19.44795,0,0,0,525,1,a library with low bookcases and three metal trash cans under various study tables,a library with low bookcases and four metal trash cans under various study tables,wolfe2,057_L_bin,3,60,A1N8TKTLXV92QR,2021-01-24_20h40.31.140,MetaAwareness,2020.1.2,Win32,60,3UUSLRKAUM68J9QN1XDP97NZTXC7DI,A1N8TKTLXV92QR,3QRYMNZ7FZK7P3C1TWZVYRMZMCINT1,7MRQ3,7MRQ3,3QRYMNZ7FZK7P3C1TWZVYRMZMCINT1,3QRYMNZ7FZK7P3C1TWZVYRMZMCINT1,271073,271073,,,,,,,,,,
,,,,5,15.12271,0,1,1,789,1,a bathroom with a big mirror over a sink. there is an outlet on both sides of the mirror.,a bathroom with a big mirror over a sink. there is an outlet on the one side of the mirror near a towel.,wolfe2,085_L_switchboard,1,60,A1N8TKTLXV92QR,2021-01-24_20h40.31.140,MetaAwareness,2020.1.2,Win32,60,3UUSLRKAUM68J9QN1XDP97NZTXC7DI,A1N8TKTLXV92QR,3QRYMNZ7FZK7P3C1TWZVYRMZMCINT1,7MRQ3,7MRQ3,3QRYMNZ7FZK7P3C1TWZVYRMZMCINT1,3QRYMNZ7FZK7P3C1TWZVYRMZMCINT1,271073,271073,,,,,,,,,,
,,,,2,14.69202,0,2,2,1149,1,there is a box on the right side of the large living room,there is nothing on the right side of the large living room,wolfe2,125_R_sofa,3,60,A1N8TKTLXV92QR,2021-01-24_20h40.31.140,MetaAwareness,2020.1.2,Win32,60,3UUSLRKAUM68J9QN1XDP97NZTXC7DI,A1N8TKTLXV92QR,3QRYMNZ7FZK7P3C1TWZVYRMZMCINT1,7MRQ3,7MRQ3,3QRYMNZ7FZK7P3C1TWZVYRMZMCINT1,3QRYMNZ7FZK7P3C1TWZVYRMZMCINT1,271073,271073,,,,,,,,,,
,,,,3,12.59754,0,3,3,813,1,hotel bathroom with a towel hanger by the sink,hotel bathroom with no place to hang a hand towel,wolfe2,087_L_towelhandle,4,60,A1N8TKTLXV92QR,2021-01-24_20h40.31.140,MetaAwareness,2020.1.2,Win32,60,3UUSLRKAUM68J9QN1XDP97NZTXC7DI,A1N8TKTLXV92QR,3QRYMNZ7FZK7P3C1TWZVYRMZMCINT1,7MRQ3,7MRQ3,3QRYMNZ7FZK7P3C1TWZVYRMZMCINT1,3QRYMNZ7FZK7P3C1TWZVYRMZMCINT1,271073,271073,,,,,,,,,,
,,,,4,8.938135,0,4,4,101,1,"a bright, modern bathroom with 1 bottle on the counter","a bright, modern bathroom with 2 bottles on the counter",wolfe2,011_L_parfum,2,60,A1N8TKTLXV92QR,2021-01-24_20h40.31.140,MetaAwareness,2020.1.2,Win32,60,3UUSLRKAUM68J9QN1XDP97NZTXC7DI,A1N8TKTLXV92QR,3QRYMNZ7FZK7P3C1TWZVYRMZMCINT1,7MRQ3,7MRQ3,3QRYMNZ7FZK7P3C1TWZVYRMZMCINT1,3QRYMNZ7FZK7P3C1TWZVYRMZMCINT1,271073,271073,,,,,,,,,,
,,,,5,7.88235,0,5,5,404,1,a very modern bathroom with a large white marble tub,a very modern bathroom with a large white marble tub with lights,wolfe2,044_L_light,1,60,A1N8TKTLXV92QR,2021-01-24_20h40.31.140,MetaAwareness,2020.1.2,Win32,60,3UUSLRKAUM68J9QN1XDP97NZTXC7DI,A1N8TKTLXV92QR,3QRYMNZ7FZK7P3C1TWZVYRMZMCINT1,7MRQ3,7MRQ3,3QRYMNZ7FZK7P3C1TWZVYRMZMCINT1,3QRYMNZ7FZK7P3C1TWZVYRMZMCINT1,271073,271073,,,,,,,,,,
,,,,5,7.63905,0,6,6,138,1,atrium area of a business with three lights on the wall,atrium area of a business with four lights on the wall,wolfe2,014_R_lamp,4,60,A1N8TKTLXV92QR,2021-01-24_20h40.31.140,MetaAwareness,2020.1.2,Win32,60,3UUSLRKAUM68J9QN1XDP97NZTXC7DI,A1N8TKTLXV92QR,3QRYMNZ7FZK7P3C1TWZVYRMZMCINT1,7MRQ3,7MRQ3,3QRYMNZ7FZK7P3C1TWZVYRMZMCINT1,3QRYMNZ7FZK7P3C1TWZVYRMZMCINT1,271073,271073,,,,,,,,,,
,,,,5,20.71586,0,7,7,372,1,a dining room with wooden furnature and two photos haning on the wall,a dining room with wooden furnature and three photos hanging on the wall,wolfe2,040_R_painting,5,60,A1N8TKTLXV92QR,2021-01-24_20h40.31.140,MetaAwareness,2020.1.2,Win32,60,3UUSLRKAUM68J9QN1XDP97NZTXC7DI,A1N8TKTLXV92QR,3QRYMNZ7FZK7P3C1TWZVYRMZMCINT1,7MRQ3,7MRQ3,3QRYMNZ7FZK7P3C1TWZVYRMZMCINT1,3QRYMNZ7FZK7P3C1TWZVYRMZMCINT1,271073,271073,,,,,,,,,,
,,,,4,9.20078,0,8,8,906,1,an unkempt bedroom with a towel on the floor,an unkempt bedroom with no towel on the floor,wolfe2,098_R_slippers,1,60,A1N8TKTLXV92QR,2021-01-24_20h40.31.140,MetaAwareness,2020.1.2,Win32,60,3UUSLRKAUM68J9QN1XDP97NZTXC7DI,A1N8TKTLXV92QR,3QRYMNZ7FZK7P3C1TWZVYRMZMCINT1,7MRQ3,7MRQ3,3QRYMNZ7FZK7P3C1TWZVYRMZMCINT1,3QRYMNZ7FZK7P3C1TWZVYRMZMCINT1,271073,271073,,,,,,,,,,
,,,,5,10.33282,0,9,9,956,1,a restaruaunt seating area with an extra pillow on a seat,a restaraunt seating area with a seat with only one pillow,wolfe2,104_L_bottle,4,60,A1N8TKTLXV92QR,2021-01-24_20h40.31.140,MetaAwareness,2020.1.2,Win32,60,3UUSLRKAUM68J9QN1XDP97NZTXC7DI,A1N8TKTLXV92QR,3QRYMNZ7FZK7P3C1TWZVYRMZMCINT1,7MRQ3,7MRQ3,3QRYMNZ7FZK7P3C1TWZVYRMZMCINT1,3QRYMNZ7FZK7P3C1TWZVYRMZMCINT1,271073,271073,,,,,,,,,,
,,,,5,7.073085,0,10,10,341,1,a white bathroom with a brown shelf that has 5 rolled up towels,a white bathroom with a brown shelf that has 6 rolled up towels on it,wolfe2,037_L_towel,3,60,A1N8TKTLXV92QR,2021-01-24_20h40.31.140,MetaAwareness,2020.1.2,Win32,60,3UUSLRKAUM68J9QN1XDP97NZTXC7DI,A1N8TKTLXV92QR,3QRYMNZ7FZK7P3C1TWZVYRMZMCINT1,7MRQ3,7MRQ3,3QRYMNZ7FZK7P3C1TWZVYRMZMCINT1,3QRYMNZ7FZK7P3C1TWZVYRMZMCINT1,271073,271073,,,,,,,,,,
,,,,2,11.10426,0,11,11,444,1,a fancy bedroom with a short glass sculpture to the right of the mirror,a fancy bedroom with a tall glass sculpture to the right of the mirror,wolfe2,048_R_art,2,60,A1N8TKTLXV92QR,2021-01-24_20h40.31.140,MetaAwareness,2020.1.2,Win32,60,3UUSLRKAUM68J9QN1XDP97NZTXC7DI,A1N8TKTLXV92QR,3QRYMNZ7FZK7P3C1TWZVYRMZMCINT1,7MRQ3,7MRQ3,3QRYMNZ7FZK7P3C1TWZVYRMZMCINT1,3QRYMNZ7FZK7P3C1TWZVYRMZMCINT1,271073,271073,,,,,,,,,,
,,,,4,15.003885,0,12,12,548,1,this living room has lovely natural wood floors and a nice l shaped sofa with cream cushions on top.,"this lovely living room has natural wood floors and a nice l shaped soda adorned with cream cushions, and a black accent cushion as well.",wolfe2,060_L_pillow,3,60,A1N8TKTLXV92QR,2021-01-24_20h40.31.140,MetaAwareness,2020.1.2,Win32,60,3UUSLRKAUM68J9QN1XDP97NZTXC7DI,A1N8TKTLXV92QR,3QRYMNZ7FZK7P3C1TWZVYRMZMCINT1,7MRQ3,7MRQ3,3QRYMNZ7FZK7P3C1TWZVYRMZMCINT1,3QRYMNZ7FZK7P3C1TWZVYRMZMCINT1,271073,271073,,,,,,,,,,
,,,,4,7.348915,0,13,13,68,1,blue bathroom with window shelf,blue bathroom with window shelf with bottle on shelf,wolfe2,008_L_bottle,1,60,A1N8TKTLXV92QR,2021-01-24_20h40.31.140,MetaAwareness,2020.1.2,Win32,60,3UUSLRKAUM68J9QN1XDP97NZTXC7DI,A1N8TKTLXV92QR,3QRYMNZ7FZK7P3C1TWZVYRMZMCINT1,7MRQ3,7MRQ3,3QRYMNZ7FZK7P3C1TWZVYRMZMCINT1,3QRYMNZ7FZK7P3C1TWZVYRMZMCINT1,271073,271073,,,,,,,,,,
,,,,5,21.269365,0,14,14,716,1,"a clean and modern kitchen with 4 stool chairs, one stool missing a foot rest",a clean and modern kitchen with 4 stool chairs that all have foot rests,wolfe2,077_R_footrest,2,60,A1N8TKTLXV92QR,2021-01-24_20h40.31.140,MetaAwareness,2020.1.2,Win32,60,3UUSLRKAUM68J9QN1XDP97NZTXC7DI,A1N8TKTLXV92QR,3QRYMNZ7FZK7P3C1TWZVYRMZMCINT1,7MRQ3,7MRQ3,3QRYMNZ7FZK7P3C1TWZVYRMZMCINT1,3QRYMNZ7FZK7P3C1TWZVYRMZMCINT1,271073,271073,,,,,,,,,,
,,,,3,8.4324,0,15,15,914,1,a white dining room with no small mirrors on the wall,a white dining room with a small mirror on the wall,wolfe2,099_L_sconce,4,60,A1N8TKTLXV92QR,2021-01-24_20h40.31.140,MetaAwareness,2020.1.2,Win32,60,3UUSLRKAUM68J9QN1XDP97NZTXC7DI,A1N8TKTLXV92QR,3QRYMNZ7FZK7P3C1TWZVYRMZMCINT1,7MRQ3,7MRQ3,3QRYMNZ7FZK7P3C1TWZVYRMZMCINT1,3QRYMNZ7FZK7P3C1TWZVYRMZMCINT1,271073,271073,,,,,,,,,,
,,,,4,8.10517,0,16,16,559,1,a dining room that has one wine glass on the table,a dining room that has two wine glasses on the table,wolfe2,061_L_glass,6,60,A1N8TKTLXV92QR,2021-01-24_20h40.31.140,MetaAwareness,2020.1.2,Win32,60,3UUSLRKAUM68J9QN1XDP97NZTXC7DI,A1N8TKTLXV92QR,3QRYMNZ7FZK7P3C1TWZVYRMZMCINT1,7MRQ3,7MRQ3,3QRYMNZ7FZK7P3C1TWZVYRMZMCINT1,3QRYMNZ7FZK7P3C1TWZVYRMZMCINT1,271073,271073,,,,,,,,,,
,,,,3,16.98617,0,17,17,275,1,a long bathroom with nothing between the two bathroom sink counters,a long bathroom with an addiional platform between the two bathroom sink counters,wolfe2,030_L_drawer,2,60,A1N8TKTLXV92QR,2021-01-24_20h40.31.140,MetaAwareness,2020.1.2,Win32,60,3UUSLRKAUM68J9QN1XDP97NZTXC7DI,A1N8TKTLXV92QR,3QRYMNZ7FZK7P3C1TWZVYRMZMCINT1,7MRQ3,7MRQ3,3QRYMNZ7FZK7P3C1TWZVYRMZMCINT1,3QRYMNZ7FZK7P3C1TWZVYRMZMCINT1,271073,271073,,,,,,,,,,
,,,,4,17.71154,0,18,18,69,1,a blue bathroom. there is a mirror in the center with a sink below it. there is a window to the left of the mirror with a shade drawn on it with a bottle with a spray bottle with a red cap on it.,a blue bathroom. there is a mirror in the center with a sink below it. there is a window to the left of the mirror with a shade drawn on it with a spray bottle with a red cape with a smaller bottle next to it.,wolfe2,008_L_bottle,2,60,A1N8TKTLXV92QR,2021-01-24_20h40.31.140,MetaAwareness,2020.1.2,Win32,60,3UUSLRKAUM68J9QN1XDP97NZTXC7DI,A1N8TKTLXV92QR,3QRYMNZ7FZK7P3C1TWZVYRMZMCINT1,7MRQ3,7MRQ3,3QRYMNZ7FZK7P3C1TWZVYRMZMCINT1,3QRYMNZ7FZK7P3C1TWZVYRMZMCINT1,271073,271073,,,,,,,,,,
,,,,5,7.10862,0,19,19,41,1,an apartment living room with a large window,an apartment living room with a mirror and a large window,wolfe2,005_R_mirror,3,60,A1N8TKTLXV92QR,2021-01-24_20h40.31.140,MetaAwareness,2020.1.2,Win32,60,3UUSLRKAUM68J9QN1XDP97NZTXC7DI,A1N8TKTLXV92QR,3QRYMNZ7FZK7P3C1TWZVYRMZMCINT1,7MRQ3,7MRQ3,3QRYMNZ7FZK7P3C1TWZVYRMZMCINT1,3QRYMNZ7FZK7P3C1TWZVYRMZMCINT1,271073,271073,,,,,,,,,,
,,,,5,18.35577,0,20,20,205,1,"a kitchen area with white cabinets, granite countertops, stainless steel appliances, and 2 hanging glass lights","a kitchen area with white cabinets, granite countertops, stainless steel appliances, and 3 hanging glass lights",wolfe2,022_L_lamp,4,60,A1N8TKTLXV92QR,2021-01-24_20h40.31.140,MetaAwareness,2020.1.2,Win32,60,3UUSLRKAUM68J9QN1XDP97NZTXC7DI,A1N8TKTLXV92QR,3QRYMNZ7FZK7P3C1TWZVYRMZMCINT1,7MRQ3,7MRQ3,3QRYMNZ7FZK7P3C1TWZVYRMZMCINT1,3QRYMNZ7FZK7P3C1TWZVYRMZMCINT1,271073,271073,,,,,,,,,,
,,,,5,8.895945,0,21,21,861,1,a living room with a white couch and a large mirror,"a living room with a white couch, a large mirror and candles on the floor",wolfe2,092_R_candles,5,60,A1N8TKTLXV92QR,2021-01-24_20h40.31.140,MetaAwareness,2020.1.2,Win32,60,3UUSLRKAUM68J9QN1XDP97NZTXC7DI,A1N8TKTLXV92QR,3QRYMNZ7FZK7P3C1TWZVYRMZMCINT1,7MRQ3,7MRQ3,3QRYMNZ7FZK7P3C1TWZVYRMZMCINT1,3QRYMNZ7FZK7P3C1TWZVYRMZMCINT1,271073,271073,,,,,,,,,,
,,,,3,9.74171,0,22,22,1107,1,a child's bedroom with a nightstand holding a lamp with a red shade and a black car at its base,a child's bedroom with a nightstand holding a lamp with a red shade,wolfe2,121_L_car,5,60,A1N8TKTLXV92QR,2021-01-24_20h40.31.140,MetaAwareness,2020.1.2,Win32,60,3UUSLRKAUM68J9QN1XDP97NZTXC7DI,A1N8TKTLXV92QR,3QRYMNZ7FZK7P3C1TWZVYRMZMCINT1,7MRQ3,7MRQ3,3QRYMNZ7FZK7P3C1TWZVYRMZMCINT1,3QRYMNZ7FZK7P3C1TWZVYRMZMCINT1,271073,271073,,,,,,,,,,
,,,,2,8.470495,0,23,23,9,1,bedroom with a fireplace that has two photos on the walls and no mirror.,bedroom with fireplace that has two photos and a small mirror on the walls.,wolfe2,001_R_mirror,5,60,A1N8TKTLXV92QR,2021-01-24_20h40.31.140,MetaAwareness,2020.1.2,Win32,60,3UUSLRKAUM68J9QN1XDP97NZTXC7DI,A1N8TKTLXV92QR,3QRYMNZ7FZK7P3C1TWZVYRMZMCINT1,7MRQ3,7MRQ3,3QRYMNZ7FZK7P3C1TWZVYRMZMCINT1,3QRYMNZ7FZK7P3C1TWZVYRMZMCINT1,271073,271073,,,,,,,,,,
,,,,4,12.2668,0,24,24,299,1,this modern styled bathroom has two round shelves with a bottle on the left of the mirror,this modern styled bathroom has two round shelves with two bottles on the left of the mirror,wolfe2,032_R_bottle,2,60,A1N8TKTLXV92QR,2021-01-24_20h40.31.140,MetaAwareness,2020.1.2,Win32,60,3UUSLRKAUM68J9QN1XDP97NZTXC7DI,A1N8TKTLXV92QR,3QRYMNZ7FZK7P3C1TWZVYRMZMCINT1,7MRQ3,7MRQ3,3QRYMNZ7FZK7P3C1TWZVYRMZMCINT1,3QRYMNZ7FZK7P3C1TWZVYRMZMCINT1,271073,271073,,,,,,,,,,
,,,,4,12.22511,0,25,25,1024,1,"a bright, sunny living area with a short, stout vase on the floor near a potted plant.","a bright, sunny living area with no vase sitting next to a potted plant.",wolfe2,111_R_pot,3,60,A1N8TKTLXV92QR,2021-01-24_20h40.31.140,MetaAwareness,2020.1.2,Win32,60,3UUSLRKAUM68J9QN1XDP97NZTXC7DI,A1N8TKTLXV92QR,3QRYMNZ7FZK7P3C1TWZVYRMZMCINT1,7MRQ3,7MRQ3,3QRYMNZ7FZK7P3C1TWZVYRMZMCINT1,3QRYMNZ7FZK7P3C1TWZVYRMZMCINT1,271073,271073,,,,,,,,,,
,,,,3,10.23985,0,26,26,179,1,an outdoor space at a contemporary home with white exterior,an outdoor space that has a floodlight at a contemporary home with white exterior,wolfe2,019_R_lamp_sized,2,60,A1N8TKTLXV92QR,2021-01-24_20h40.31.140,MetaAwareness,2020.1.2,Win32,60,3UUSLRKAUM68J9QN1XDP97NZTXC7DI,A1N8TKTLXV92QR,3QRYMNZ7FZK7P3C1TWZVYRMZMCINT1,7MRQ3,7MRQ3,3QRYMNZ7FZK7P3C1TWZVYRMZMCINT1,3QRYMNZ7FZK7P3C1TWZVYRMZMCINT1,271073,271073,,,,,,,,,,
,,,,4,12.061835,0,27,27,739,1,"a kitchen with white cabinets, wood countertops, a baker's rack and black shelving in the corner with 1 small plant","a kitchen with white cabinets, wood countertop, a baker's rack and black shelving in the corner with 2 small plants",wolfe2,080_L_plant,2,60,A1N8TKTLXV92QR,2021-01-24_20h40.31.140,MetaAwareness,2020.1.2,Win32,60,3UUSLRKAUM68J9QN1XDP97NZTXC7DI,A1N8TKTLXV92QR,3QRYMNZ7FZK7P3C1TWZVYRMZMCINT1,7MRQ3,7MRQ3,3QRYMNZ7FZK7P3C1TWZVYRMZMCINT1,3QRYMNZ7FZK7P3C1TWZVYRMZMCINT1,271073,271073,,,,,,,,,,
,,,,5,7.374975,0,28,28,591,1,a bottle sits on top of a wooden buffet table,2 bottles sits on top of a wooden buffet table,wolfe2,064_R_bottles,3,60,A1N8TKTLXV92QR,2021-01-24_20h40.31.140,MetaAwareness,2020.1.2,Win32,60,3UUSLRKAUM68J9QN1XDP97NZTXC7DI,A1N8TKTLXV92QR,3QRYMNZ7FZK7P3C1TWZVYRMZMCINT1,7MRQ3,7MRQ3,3QRYMNZ7FZK7P3C1TWZVYRMZMCINT1,3QRYMNZ7FZK7P3C1TWZVYRMZMCINT1,271073,271073,,,,,,,,,,
,,,,2,4.960765,0,29,29,188,1,round design has,round design has been missing,wolfe2,020_R_walldeco,3,60,A1N8TKTLXV92QR,2021-01-24_20h40.31.140,MetaAwareness,2020.1.2,Win32,60,3UUSLRKAUM68J9QN1XDP97NZTXC7DI,A1N8TKTLXV92QR,3QRYMNZ7FZK7P3C1TWZVYRMZMCINT1,7MRQ3,7MRQ3,3QRYMNZ7FZK7P3C1TWZVYRMZMCINT1,3QRYMNZ7FZK7P3C1TWZVYRMZMCINT1,271073,271073,,,,,,,,,,
,,,,,,,,,,,,,,,,60,A1N8TKTLXV92QR,2021-01-24_20h40.31.140,MetaAwareness,2020.1.2,Win32,60,3UUSLRKAUM68J9QN1XDP97NZTXC7DI,A1N8TKTLXV92QR,3QRYMNZ7FZK7P3C1TWZVYRMZMCINT1,7MRQ3,7MRQ3,3QRYMNZ7FZK7P3C1TWZVYRMZMCINT1,3QRYMNZ7FZK7P3C1TWZVYRMZMCINT1,271073,271073,6,16.10813,someone laying underneath a blue beach umbrella on a crowded beach,someone laying underneath a blue beach umbrella on a crowded beach,same,1,10.16673,members of a marching band crossing a track that all have feather plumes at the front of their hats,a cluttered and rustic looking cafe with 10 hanging lights,different
