consent_response.keys,consent_response.rt,key_resp_2.keys,key_resp_2.rt,user_resp.keys,user_resp.rt,trials.thisRepN,trials.thisTrialN,trials.thisN,trials.thisIndex,trials.ran,image_1_text,image_2_text,database,image,number,age,worker_ID,date,expName,psychopyVersion,OS,frameRate,hitId,workerId,assignmentId,a,tp_a,b,tp_b,c,tp_c,catch_same_resp.keys,catch_same_resp.rt,image_1_text_catch_same,image_2_text_catch_same,image_catch_same,catch_different_resp.keys,catch_different_resp.rt,image_1_text_catch_different,image_2_text_catch_different,image_catch_different
space,3.075025,space,6.22382,4,3.413715,0,0,0,209,1,"a large, well furnished kitchen with two hanging lights","a large, well furnished kitchen with trhee hanging lights",wolfe2,022_R_lamp,4,31,A1NUUKKYT5XLUC,2021-01-24_19h12.27.850,MetaAwareness,2020.1.2,Win32,60,3UUSLRKAUM68J9QN1XDP97NZTXC7DI,A1NUUKKYT5XLUC,3LUY3GC6303KUQR7W89MXKZCXUT7P6,63UL3,63UL3,3LUY3GC6303KUQR7W89MXKZCXUT7P6,3LUY3GC6303KUQR7W89MXKZCXUT7P6,271073,271073,,,,,,,,,,
,,,,3,2.45791,0,1,1,613,1,"a living room painted black and white with white and black chair, as well as some black, white and red decorations.","a living room painted black and white, with a white and black chair, as well as  some black, white and red decorations.",wolfe2,066_R_vase,2,31,A1NUUKKYT5XLUC,2021-01-24_19h12.27.850,MetaAwareness,2020.1.2,Win32,60,3UUSLRKAUM68J9QN1XDP97NZTXC7DI,A1NUUKKYT5XLUC,3LUY3GC6303KUQR7W89MXKZCXUT7P6,63UL3,63UL3,3LUY3GC6303KUQR7W89MXKZCXUT7P6,3LUY3GC6303KUQR7W89MXKZCXUT7P6,271073,271073,,,,,,,,,,
,,,,4,2.3749,0,2,2,917,1,"a dining room area with a table, four chairs, a large mirror and three hanging candles on the wall","a dining room area with a table, four chairs, a large mirror and two hanging candles on the wall",wolfe2,099_R_sconce,2,31,A1NUUKKYT5XLUC,2021-01-24_19h12.27.850,MetaAwareness,2020.1.2,Win32,60,3UUSLRKAUM68J9QN1XDP97NZTXC7DI,A1NUUKKYT5XLUC,3LUY3GC6303KUQR7W89MXKZCXUT7P6,63UL3,63UL3,3LUY3GC6303KUQR7W89MXKZCXUT7P6,3LUY3GC6303KUQR7W89MXKZCXUT7P6,271073,271073,,,,,,,,,,
,,,,3,1.8898,0,3,3,692,1,i really think that this image provides a classic home.  there should really be more lights in this area but overall it looks great.,i love the extra lighting.  the whole decor is welcoming.,wolfe2,075_R_light,2,31,A1NUUKKYT5XLUC,2021-01-24_19h12.27.850,MetaAwareness,2020.1.2,Win32,60,3UUSLRKAUM68J9QN1XDP97NZTXC7DI,A1NUUKKYT5XLUC,3LUY3GC6303KUQR7W89MXKZCXUT7P6,63UL3,63UL3,3LUY3GC6303KUQR7W89MXKZCXUT7P6,3LUY3GC6303KUQR7W89MXKZCXUT7P6,271073,271073,,,,,,,,,,
,,,,4,0.06483,0,4,4,397,1,"a fancy living room with a television, and storage shelf.","a fancy living room with a televsion, and a storage shelf that has a clock.",wolfe2,043_L_clock,5,31,A1NUUKKYT5XLUC,2021-01-24_19h12.27.850,MetaAwareness,2020.1.2,Win32,60,3UUSLRKAUM68J9QN1XDP97NZTXC7DI,A1NUUKKYT5XLUC,3LUY3GC6303KUQR7W89MXKZCXUT7P6,63UL3,63UL3,3LUY3GC6303KUQR7W89MXKZCXUT7P6,3LUY3GC6303KUQR7W89MXKZCXUT7P6,271073,271073,,,,,,,,,,
,,,,6,3.614755,0,5,5,877,1,"a bright living room set up with a mirror, a coffee table, and candles in light votives and a candle in a dark votive on the fireplace","a bright living room set up with a mirror, a coffee table, and candles in light colored votives on the fireplace",wolfe2,095_R_candle,1,31,A1NUUKKYT5XLUC,2021-01-24_19h12.27.850,MetaAwareness,2020.1.2,Win32,60,3UUSLRKAUM68J9QN1XDP97NZTXC7DI,A1NUUKKYT5XLUC,3LUY3GC6303KUQR7W89MXKZCXUT7P6,63UL3,63UL3,3LUY3GC6303KUQR7W89MXKZCXUT7P6,3LUY3GC6303KUQR7W89MXKZCXUT7P6,271073,271073,,,,,,,,,,
,,,,3,1.332755,0,6,6,344,1,a bathroom area with two brown towels,a bathroom area with three brown towels,wolfe2,037_R_towel,2,31,A1NUUKKYT5XLUC,2021-01-24_19h12.27.850,MetaAwareness,2020.1.2,Win32,60,3UUSLRKAUM68J9QN1XDP97NZTXC7DI,A1NUUKKYT5XLUC,3LUY3GC6303KUQR7W89MXKZCXUT7P6,63UL3,63UL3,3LUY3GC6303KUQR7W89MXKZCXUT7P6,3LUY3GC6303KUQR7W89MXKZCXUT7P6,271073,271073,,,,,,,,,,
,,,,4,1.27215,0,7,7,595,1,a beige and white bedroom with desk and a shelf with books,a beige and white bedroom with desk and a shelf with books and cds,wolfe2,065_L_cd,1,31,A1NUUKKYT5XLUC,2021-01-24_19h12.27.850,MetaAwareness,2020.1.2,Win32,60,3UUSLRKAUM68J9QN1XDP97NZTXC7DI,A1NUUKKYT5XLUC,3LUY3GC6303KUQR7W89MXKZCXUT7P6,63UL3,63UL3,3LUY3GC6303KUQR7W89MXKZCXUT7P6,3LUY3GC6303KUQR7W89MXKZCXUT7P6,271073,271073,,,,,,,,,,
,,,,3,1.83154,0,8,8,73,1,its a cool colored bathroom with everything you need and a window,"its a cool colored bathroom with everything you need, but now theres an extra cleaning product on the window sill",wolfe2,008_R_bottle,3,31,A1NUUKKYT5XLUC,2021-01-24_19h12.27.850,MetaAwareness,2020.1.2,Win32,60,3UUSLRKAUM68J9QN1XDP97NZTXC7DI,A1NUUKKYT5XLUC,3LUY3GC6303KUQR7W89MXKZCXUT7P6,63UL3,63UL3,3LUY3GC6303KUQR7W89MXKZCXUT7P6,3LUY3GC6303KUQR7W89MXKZCXUT7P6,271073,271073,,,,,,,,,,
,,,,4,4.52653,0,9,9,284,1,a kitchen with a only three drawers for items,a kitchen with four different drawers,wolfe2,030_R_drawer,5,31,A1NUUKKYT5XLUC,2021-01-24_19h12.27.850,MetaAwareness,2020.1.2,Win32,60,3UUSLRKAUM68J9QN1XDP97NZTXC7DI,A1NUUKKYT5XLUC,3LUY3GC6303KUQR7W89MXKZCXUT7P6,63UL3,63UL3,3LUY3GC6303KUQR7W89MXKZCXUT7P6,3LUY3GC6303KUQR7W89MXKZCXUT7P6,271073,271073,,,,,,,,,,
,,,,3,2.08677,0,10,10,416,1,hotel room with yellow accent furniture,hotel room with yellow accent furniture. there is an ipod charger and speaker on the nightstand,wolfe2,045_L_musicdock,4,31,A1NUUKKYT5XLUC,2021-01-24_19h12.27.850,MetaAwareness,2020.1.2,Win32,60,3UUSLRKAUM68J9QN1XDP97NZTXC7DI,A1NUUKKYT5XLUC,3LUY3GC6303KUQR7W89MXKZCXUT7P6,63UL3,63UL3,3LUY3GC6303KUQR7W89MXKZCXUT7P6,3LUY3GC6303KUQR7W89MXKZCXUT7P6,271073,271073,,,,,,,,,,
,,,,1,0.02001,0,11,11,499,1,a study with suttle colors and a fireplace on thewall,a study with suttle colors and a ready to lit fireplace on the wall,wolfe2,054_R_firewood,4,31,A1NUUKKYT5XLUC,2021-01-24_19h12.27.850,MetaAwareness,2020.1.2,Win32,60,3UUSLRKAUM68J9QN1XDP97NZTXC7DI,A1NUUKKYT5XLUC,3LUY3GC6303KUQR7W89MXKZCXUT7P6,63UL3,63UL3,3LUY3GC6303KUQR7W89MXKZCXUT7P6,3LUY3GC6303KUQR7W89MXKZCXUT7P6,271073,271073,,,,,,,,,,
,,,,3,2.305465,0,12,12,606,1,this is an interesting bedroom. there is a book shelf with an empty spac ein the middle.,this is an interesting bedroom. there is a completely full book shelf on the wall.,wolfe2,065_R_cd,7,31,A1NUUKKYT5XLUC,2021-01-24_19h12.27.850,MetaAwareness,2020.1.2,Win32,60,3UUSLRKAUM68J9QN1XDP97NZTXC7DI,A1NUUKKYT5XLUC,3LUY3GC6303KUQR7W89MXKZCXUT7P6,63UL3,63UL3,3LUY3GC6303KUQR7W89MXKZCXUT7P6,3LUY3GC6303KUQR7W89MXKZCXUT7P6,271073,271073,,,,,,,,,,
,,,,1,0.009695,0,13,13,694,1,there is no light on the ceiling,there is a light in the cielin,wolfe2,075_R_light,4,31,A1NUUKKYT5XLUC,2021-01-24_19h12.27.850,MetaAwareness,2020.1.2,Win32,60,3UUSLRKAUM68J9QN1XDP97NZTXC7DI,A1NUUKKYT5XLUC,3LUY3GC6303KUQR7W89MXKZCXUT7P6,63UL3,63UL3,3LUY3GC6303KUQR7W89MXKZCXUT7P6,3LUY3GC6303KUQR7W89MXKZCXUT7P6,271073,271073,,,,,,,,,,
,,,,6,2.000475,0,14,14,355,1,a dining area with brown chairs and table,"a dining area with brown chairs, a table, and artwork hanging near the table",wolfe2,038_R_art,4,31,A1NUUKKYT5XLUC,2021-01-24_19h12.27.850,MetaAwareness,2020.1.2,Win32,60,3UUSLRKAUM68J9QN1XDP97NZTXC7DI,A1NUUKKYT5XLUC,3LUY3GC6303KUQR7W89MXKZCXUT7P6,63UL3,63UL3,3LUY3GC6303KUQR7W89MXKZCXUT7P6,3LUY3GC6303KUQR7W89MXKZCXUT7P6,271073,271073,,,,,,,,,,
,,,,3,1.89984,0,15,15,743,1,there is a black cabinet in a sunny kitchen with white cabinets.,there is a cactus plant on the kitchen counter that is housed by white shelves.,wolfe2,080_R_plant,2,31,A1NUUKKYT5XLUC,2021-01-24_19h12.27.850,MetaAwareness,2020.1.2,Win32,60,3UUSLRKAUM68J9QN1XDP97NZTXC7DI,A1NUUKKYT5XLUC,3LUY3GC6303KUQR7W89MXKZCXUT7P6,63UL3,63UL3,3LUY3GC6303KUQR7W89MXKZCXUT7P6,3LUY3GC6303KUQR7W89MXKZCXUT7P6,271073,271073,,,,,,,,,,
,,,,3,1.53066,0,16,16,477,1,an empty wall,a speaker mounted on the wall undr a television set,wolfe2,052_L_speaker,2,31,A1NUUKKYT5XLUC,2021-01-24_19h12.27.850,MetaAwareness,2020.1.2,Win32,60,3UUSLRKAUM68J9QN1XDP97NZTXC7DI,A1NUUKKYT5XLUC,3LUY3GC6303KUQR7W89MXKZCXUT7P6,63UL3,63UL3,3LUY3GC6303KUQR7W89MXKZCXUT7P6,3LUY3GC6303KUQR7W89MXKZCXUT7P6,271073,271073,,,,,,,,,,
,,,,3,1.60412,0,17,17,649,1,"a living area with fancy decor, white couches and white walls.","a mostly white living area with white couches, white walls, and a candle holder hanging on the wall",wolfe2,070_R_lamp,4,31,A1NUUKKYT5XLUC,2021-01-24_19h12.27.850,MetaAwareness,2020.1.2,Win32,60,3UUSLRKAUM68J9QN1XDP97NZTXC7DI,A1NUUKKYT5XLUC,3LUY3GC6303KUQR7W89MXKZCXUT7P6,63UL3,63UL3,3LUY3GC6303KUQR7W89MXKZCXUT7P6,3LUY3GC6303KUQR7W89MXKZCXUT7P6,271073,271073,,,,,,,,,,
,,,,1,1.621745,0,18,18,0,1,"a bedroom with green panels on the walls, one of which has been left unadorned","a bedroom with green panels on the walls, one of which contains a small black-bordered mirror",wolfe2,001_L_mirror,1,31,A1NUUKKYT5XLUC,2021-01-24_19h12.27.850,MetaAwareness,2020.1.2,Win32,60,3UUSLRKAUM68J9QN1XDP97NZTXC7DI,A1NUUKKYT5XLUC,3LUY3GC6303KUQR7W89MXKZCXUT7P6,63UL3,63UL3,3LUY3GC6303KUQR7W89MXKZCXUT7P6,3LUY3GC6303KUQR7W89MXKZCXUT7P6,271073,271073,,,,,,,,,,
,,,,3,1.485615,0,19,19,395,1,a high end living room with a bookcase,a high end livig room with a bookcase that has a clock on it,wolfe2,043_L_clock,3,31,A1NUUKKYT5XLUC,2021-01-24_19h12.27.850,MetaAwareness,2020.1.2,Win32,60,3UUSLRKAUM68J9QN1XDP97NZTXC7DI,A1NUUKKYT5XLUC,3LUY3GC6303KUQR7W89MXKZCXUT7P6,63UL3,63UL3,3LUY3GC6303KUQR7W89MXKZCXUT7P6,3LUY3GC6303KUQR7W89MXKZCXUT7P6,271073,271073,,,,,,,,,,
,,,,1,0.295975,0,20,20,1173,1,"a home office, with access to a balcony, with a lily plant on the desk.","a home office, with access to a balcony, without any office plants.",wolfe2,128_L_pot,5,31,A1NUUKKYT5XLUC,2021-01-24_19h12.27.850,MetaAwareness,2020.1.2,Win32,60,3UUSLRKAUM68J9QN1XDP97NZTXC7DI,A1NUUKKYT5XLUC,3LUY3GC6303KUQR7W89MXKZCXUT7P6,63UL3,63UL3,3LUY3GC6303KUQR7W89MXKZCXUT7P6,3LUY3GC6303KUQR7W89MXKZCXUT7P6,271073,271073,,,,,,,,,,
,,,,3,1.441505,0,21,21,54,1,the well-outfitted bedroom is missing a vase.,a vase balances the bedroom in this image,wolfe2,006_R_vase,4,31,A1NUUKKYT5XLUC,2021-01-24_19h12.27.850,MetaAwareness,2020.1.2,Win32,60,3UUSLRKAUM68J9QN1XDP97NZTXC7DI,A1NUUKKYT5XLUC,3LUY3GC6303KUQR7W89MXKZCXUT7P6,63UL3,63UL3,3LUY3GC6303KUQR7W89MXKZCXUT7P6,3LUY3GC6303KUQR7W89MXKZCXUT7P6,271073,271073,,,,,,,,,,
,,,,4,0.09597,0,22,22,248,1,"a bathroom containing a shower, toilet, sink, counter, and one shelf on the wall","a bathroom containing a shower, toilet, sink, counter, and two shelves on the wall",wolfe2,026_R_rack,4,31,A1NUUKKYT5XLUC,2021-01-24_19h12.27.850,MetaAwareness,2020.1.2,Win32,60,3UUSLRKAUM68J9QN1XDP97NZTXC7DI,A1NUUKKYT5XLUC,3LUY3GC6303KUQR7W89MXKZCXUT7P6,63UL3,63UL3,3LUY3GC6303KUQR7W89MXKZCXUT7P6,3LUY3GC6303KUQR7W89MXKZCXUT7P6,271073,271073,,,,,,,,,,
,,,,6,0.131095,0,23,23,967,1,a cluttered room with a hat and various clothes thrown on the bed,a cluttered room with various clothes thrown on the bed,wolfe2,105_R_hat,1,31,A1NUUKKYT5XLUC,2021-01-24_19h12.27.850,MetaAwareness,2020.1.2,Win32,60,3UUSLRKAUM68J9QN1XDP97NZTXC7DI,A1NUUKKYT5XLUC,3LUY3GC6303KUQR7W89MXKZCXUT7P6,63UL3,63UL3,3LUY3GC6303KUQR7W89MXKZCXUT7P6,3LUY3GC6303KUQR7W89MXKZCXUT7P6,271073,271073,,,,,,,,,,
,,,,1,2.417195,0,24,24,996,1,a closet with a dresser at the end with a blue thing on top,a closet with a dresser and many clothes,wolfe2,108_L_boa,4,31,A1NUUKKYT5XLUC,2021-01-24_19h12.27.850,MetaAwareness,2020.1.2,Win32,60,3UUSLRKAUM68J9QN1XDP97NZTXC7DI,A1NUUKKYT5XLUC,3LUY3GC6303KUQR7W89MXKZCXUT7P6,63UL3,63UL3,3LUY3GC6303KUQR7W89MXKZCXUT7P6,3LUY3GC6303KUQR7W89MXKZCXUT7P6,271073,271073,,,,,,,,,,
,,,,4,0.037635,0,25,25,935,1,"a bathroom with a toilet, mirror and a shelf full of items including glasses, various products and a red cup","a bathroom with a toilet, mirror, and a  shelf full of items including glasses and various products",wolfe2,101_R_cup,4,31,A1NUUKKYT5XLUC,2021-01-24_19h12.27.850,MetaAwareness,2020.1.2,Win32,60,3UUSLRKAUM68J9QN1XDP97NZTXC7DI,A1NUUKKYT5XLUC,3LUY3GC6303KUQR7W89MXKZCXUT7P6,63UL3,63UL3,3LUY3GC6303KUQR7W89MXKZCXUT7P6,3LUY3GC6303KUQR7W89MXKZCXUT7P6,271073,271073,,,,,,,,,,
,,,,5,0.04698,0,26,26,44,1,a clean and well kept master bedroom that has a night stand with a lamp on it.,a clean and well kept master bedroom that has a night stand with a lamp and vase on it,wolfe2,006_L_vase,1,31,A1NUUKKYT5XLUC,2021-01-24_19h12.27.850,MetaAwareness,2020.1.2,Win32,60,3UUSLRKAUM68J9QN1XDP97NZTXC7DI,A1NUUKKYT5XLUC,3LUY3GC6303KUQR7W89MXKZCXUT7P6,63UL3,63UL3,3LUY3GC6303KUQR7W89MXKZCXUT7P6,3LUY3GC6303KUQR7W89MXKZCXUT7P6,271073,271073,,,,,,,,,,
,,,,6,0.0059,0,27,27,961,1,a rustic looking cafe with a table that has a vase and flowers,a rustic looking cafe with tables that don't have a vase or flowers on them,wolfe2,104_R_bottle,4,31,A1NUUKKYT5XLUC,2021-01-24_19h12.27.850,MetaAwareness,2020.1.2,Win32,60,3UUSLRKAUM68J9QN1XDP97NZTXC7DI,A1NUUKKYT5XLUC,3LUY3GC6303KUQR7W89MXKZCXUT7P6,63UL3,63UL3,3LUY3GC6303KUQR7W89MXKZCXUT7P6,3LUY3GC6303KUQR7W89MXKZCXUT7P6,271073,271073,,,,,,,,,,
,,,,3,1.56005,0,28,28,301,1,a bathroom with a single dispenser,a bathroom with two dispenser,wolfe2,032_R_bottle,4,31,A1NUUKKYT5XLUC,2021-01-24_19h12.27.850,MetaAwareness,2020.1.2,Win32,60,3UUSLRKAUM68J9QN1XDP97NZTXC7DI,A1NUUKKYT5XLUC,3LUY3GC6303KUQR7W89MXKZCXUT7P6,63UL3,63UL3,3LUY3GC6303KUQR7W89MXKZCXUT7P6,3LUY3GC6303KUQR7W89MXKZCXUT7P6,271073,271073,,,,,,,,,,
,,,,6,0.065825,0,29,29,637,1,a living room having a shelf without decorations on top of the shelf,a living room having a shelf with decorations on top of the shelf,wolfe2,069_L_things,3,31,A1NUUKKYT5XLUC,2021-01-24_19h12.27.850,MetaAwareness,2020.1.2,Win32,60,3UUSLRKAUM68J9QN1XDP97NZTXC7DI,A1NUUKKYT5XLUC,3LUY3GC6303KUQR7W89MXKZCXUT7P6,63UL3,63UL3,3LUY3GC6303KUQR7W89MXKZCXUT7P6,3LUY3GC6303KUQR7W89MXKZCXUT7P6,271073,271073,,,,,,,,,,
,,,,,,,,,,,,,,,,31,A1NUUKKYT5XLUC,2021-01-24_19h12.27.850,MetaAwareness,2020.1.2,Win32,60,3UUSLRKAUM68J9QN1XDP97NZTXC7DI,A1NUUKKYT5XLUC,3LUY3GC6303KUQR7W89MXKZCXUT7P6,63UL3,63UL3,3LUY3GC6303KUQR7W89MXKZCXUT7P6,3LUY3GC6303KUQR7W89MXKZCXUT7P6,271073,271073,3,1.221035,someone laying underneath a blue beach umbrella on a crowded beach,someone laying underneath a blue beach umbrella on a crowded beach,same,1,1.56031,members of a marching band crossing a track that all have feather plumes at the front of their hats,a cluttered and rustic looking cafe with 10 hanging lights,different
