consent_response.keys,consent_response.rt,key_resp_2.keys,key_resp_2.rt,user_resp.keys,user_resp.rt,trials.thisRepN,trials.thisTrialN,trials.thisN,trials.thisIndex,trials.ran,image_1_text,image_2_text,database,image,number,age,worker_ID,date,expName,psychopyVersion,OS,frameRate,hitId,workerId,assignmentId,a,tp_a,b,tp_b,c,tp_c,catch_same_resp.keys,catch_same_resp.rt,image_1_text_catch_same,image_2_text_catch_same,image_catch_same,catch_different_resp.keys,catch_different_resp.rt,image_1_text_catch_different,image_2_text_catch_different,image_catch_different
space,24.990605,space,2.44498,6,7.232975,0,0,0,362,1,a large view of the living room and kitchen with no vent on the ceiling,a large view of the living room and kitchen with a vent on the ceiling,wolfe2,039_R_ventilator,3,28,A1PMZUBGXFANCI,2021-01-24_19h40.11.214,MetaAwareness,2020.1.2,Win32,60,3TFJJUELSISRSGN3VP1JTAO9XHC2CV,A1PMZUBGXFANCI,3OB0CAO74ISBWTPK04RH1OHIF1KHY2,7CBO3,7CBO3,3OB0CAO74ISBWTPK04RH1OHIF1KHY2,3OB0CAO74ISBWTPK04RH1OHIF1KHY2,271073,271073,,,,,,,,,,
,,,,3,2.77451,0,1,1,957,1,a restaurant that has food on one of the tables,a restaurant that does not have food on any of the tables,wolfe2,104_L_bottle,5,28,A1PMZUBGXFANCI,2021-01-24_19h40.11.214,MetaAwareness,2020.1.2,Win32,60,3TFJJUELSISRSGN3VP1JTAO9XHC2CV,A1PMZUBGXFANCI,3OB0CAO74ISBWTPK04RH1OHIF1KHY2,7CBO3,7CBO3,3OB0CAO74ISBWTPK04RH1OHIF1KHY2,3OB0CAO74ISBWTPK04RH1OHIF1KHY2,271073,271073,,,,,,,,,,
,,,,2,6.121385,0,2,2,783,1,nothing is on the wall,a light is on the wall,wolfe2,084_R_light,4,28,A1PMZUBGXFANCI,2021-01-24_19h40.11.214,MetaAwareness,2020.1.2,Win32,60,3TFJJUELSISRSGN3VP1JTAO9XHC2CV,A1PMZUBGXFANCI,3OB0CAO74ISBWTPK04RH1OHIF1KHY2,7CBO3,7CBO3,3OB0CAO74ISBWTPK04RH1OHIF1KHY2,3OB0CAO74ISBWTPK04RH1OHIF1KHY2,271073,271073,,,,,,,,,,
,,,,4,3.573565,0,3,3,695,1,a well painted ceiling appears in a well outfitted kitchen.,a can light appears in the kitchen.,wolfe2,075_R_light,5,28,A1PMZUBGXFANCI,2021-01-24_19h40.11.214,MetaAwareness,2020.1.2,Win32,60,3TFJJUELSISRSGN3VP1JTAO9XHC2CV,A1PMZUBGXFANCI,3OB0CAO74ISBWTPK04RH1OHIF1KHY2,7CBO3,7CBO3,3OB0CAO74ISBWTPK04RH1OHIF1KHY2,3OB0CAO74ISBWTPK04RH1OHIF1KHY2,271073,271073,,,,,,,,,,
,,,,5,2.59497,0,4,4,1045,1,a modern looking home with 2 trinkets sitting on the table,a modern looking home with 1 trinket sitting on the table,wolfe2,114_R_bird,1,28,A1PMZUBGXFANCI,2021-01-24_19h40.11.214,MetaAwareness,2020.1.2,Win32,60,3TFJJUELSISRSGN3VP1JTAO9XHC2CV,A1PMZUBGXFANCI,3OB0CAO74ISBWTPK04RH1OHIF1KHY2,7CBO3,7CBO3,3OB0CAO74ISBWTPK04RH1OHIF1KHY2,3OB0CAO74ISBWTPK04RH1OHIF1KHY2,271073,271073,,,,,,,,,,
,,,,3,4.320975,0,5,5,375,1,it is an empty bowlthere,the bowl contains a fruit in it,wolfe2,041_L_fruit,3,28,A1PMZUBGXFANCI,2021-01-24_19h40.11.214,MetaAwareness,2020.1.2,Win32,60,3TFJJUELSISRSGN3VP1JTAO9XHC2CV,A1PMZUBGXFANCI,3OB0CAO74ISBWTPK04RH1OHIF1KHY2,7CBO3,7CBO3,3OB0CAO74ISBWTPK04RH1OHIF1KHY2,3OB0CAO74ISBWTPK04RH1OHIF1KHY2,271073,271073,,,,,,,,,,
,,,,4,1.54075,0,6,6,1000,1,it is a picture of a closet and there is a dresser inside the closet with a blue item on top of the dresser.,"it is a picture of a closet and there is a dresser inside the closet with several items on top, but no blue items.",wolfe2,108_R_boa,4,28,A1PMZUBGXFANCI,2021-01-24_19h40.11.214,MetaAwareness,2020.1.2,Win32,60,3TFJJUELSISRSGN3VP1JTAO9XHC2CV,A1PMZUBGXFANCI,3OB0CAO74ISBWTPK04RH1OHIF1KHY2,7CBO3,7CBO3,3OB0CAO74ISBWTPK04RH1OHIF1KHY2,3OB0CAO74ISBWTPK04RH1OHIF1KHY2,271073,271073,,,,,,,,,,
,,,,5,2.088035,0,7,7,243,1,clean restroom without a storage shelf on the wall beneath the mirror,clean restroom with a storage shelf on the wall beneath the mirror,wolfe2,026_L_rack,3,28,A1PMZUBGXFANCI,2021-01-24_19h40.11.214,MetaAwareness,2020.1.2,Win32,60,3TFJJUELSISRSGN3VP1JTAO9XHC2CV,A1PMZUBGXFANCI,3OB0CAO74ISBWTPK04RH1OHIF1KHY2,7CBO3,7CBO3,3OB0CAO74ISBWTPK04RH1OHIF1KHY2,3OB0CAO74ISBWTPK04RH1OHIF1KHY2,271073,271073,,,,,,,,,,
,,,,3,2.1912,0,8,8,475,1,a bedroom with a fireplace has a photo of a couple on top with a missing object,a bedroom with a fireplace and a photo of a couple on top. an object appears next to the photo,wolfe2,051_R_owl,7,28,A1PMZUBGXFANCI,2021-01-24_19h40.11.214,MetaAwareness,2020.1.2,Win32,60,3TFJJUELSISRSGN3VP1JTAO9XHC2CV,A1PMZUBGXFANCI,3OB0CAO74ISBWTPK04RH1OHIF1KHY2,7CBO3,7CBO3,3OB0CAO74ISBWTPK04RH1OHIF1KHY2,3OB0CAO74ISBWTPK04RH1OHIF1KHY2,271073,271073,,,,,,,,,,
,,,,5,2.70734,0,9,9,271,1,"a bathroom with 2 sinks, a shower, and 4 shelves.  the bottom right shelf has 2 red cups","a bathroom with 2 sinks, a shower, and 4 shelves. the bottom right shelf has 3 red cups",wolfe2,029_R_glass,2,28,A1PMZUBGXFANCI,2021-01-24_19h40.11.214,MetaAwareness,2020.1.2,Win32,60,3TFJJUELSISRSGN3VP1JTAO9XHC2CV,A1PMZUBGXFANCI,3OB0CAO74ISBWTPK04RH1OHIF1KHY2,7CBO3,7CBO3,3OB0CAO74ISBWTPK04RH1OHIF1KHY2,3OB0CAO74ISBWTPK04RH1OHIF1KHY2,271073,271073,,,,,,,,,,
,,,,5,5.51268,0,10,10,932,1,a cluttered bathroom with many mirrors and a red glass on a shelf near the sink,a cluttered bathroom with many mirrors and two tall glasses on a shelf near the sink,wolfe2,101_R_cup,1,28,A1PMZUBGXFANCI,2021-01-24_19h40.11.214,MetaAwareness,2020.1.2,Win32,60,3TFJJUELSISRSGN3VP1JTAO9XHC2CV,A1PMZUBGXFANCI,3OB0CAO74ISBWTPK04RH1OHIF1KHY2,7CBO3,7CBO3,3OB0CAO74ISBWTPK04RH1OHIF1KHY2,3OB0CAO74ISBWTPK04RH1OHIF1KHY2,271073,271073,,,,,,,,,,
,,,,3,3.25386,0,11,11,132,1,a restaurant with very high ceilings and three light fixtures on the upper part of the wall,a restaurant with very high ceilings and four light fixgures on the upper part of the wall,wolfe2,014_L_lamp,2,28,A1PMZUBGXFANCI,2021-01-24_19h40.11.214,MetaAwareness,2020.1.2,Win32,60,3TFJJUELSISRSGN3VP1JTAO9XHC2CV,A1PMZUBGXFANCI,3OB0CAO74ISBWTPK04RH1OHIF1KHY2,7CBO3,7CBO3,3OB0CAO74ISBWTPK04RH1OHIF1KHY2,3OB0CAO74ISBWTPK04RH1OHIF1KHY2,271073,271073,,,,,,,,,,
,,,,3,5.18003,0,12,12,201,1,a room with a pink desk and a wall desk with a monitor and a black mat.,an open space room with matching chairs and pink desk with a yellow wall commputer and black keyboard.,wolfe2,021_R_keyboard,5,28,A1PMZUBGXFANCI,2021-01-24_19h40.11.214,MetaAwareness,2020.1.2,Win32,60,3TFJJUELSISRSGN3VP1JTAO9XHC2CV,A1PMZUBGXFANCI,3OB0CAO74ISBWTPK04RH1OHIF1KHY2,7CBO3,7CBO3,3OB0CAO74ISBWTPK04RH1OHIF1KHY2,3OB0CAO74ISBWTPK04RH1OHIF1KHY2,271073,271073,,,,,,,,,,
,,,,5,5.27944,0,13,13,1054,1,a large kitchen and living room with a potted plant on the kitchen counter.,a large kitchen and living room with no potted plant on the kitchen counter.,wolfe2,115_R_pot,1,28,A1PMZUBGXFANCI,2021-01-24_19h40.11.214,MetaAwareness,2020.1.2,Win32,60,3TFJJUELSISRSGN3VP1JTAO9XHC2CV,A1PMZUBGXFANCI,3OB0CAO74ISBWTPK04RH1OHIF1KHY2,7CBO3,7CBO3,3OB0CAO74ISBWTPK04RH1OHIF1KHY2,3OB0CAO74ISBWTPK04RH1OHIF1KHY2,271073,271073,,,,,,,,,,
,,,,2,1.721975,0,14,14,1062,1,"a modern style open living area with a large table, sliding doors opening to a patio, and a plant with a basket next to it","a modern style open living area with a large table, sliding doors opening to a patio, and a plant",wolfe2,116_L_basket,4,28,A1PMZUBGXFANCI,2021-01-24_19h40.11.214,MetaAwareness,2020.1.2,Win32,60,3TFJJUELSISRSGN3VP1JTAO9XHC2CV,A1PMZUBGXFANCI,3OB0CAO74ISBWTPK04RH1OHIF1KHY2,7CBO3,7CBO3,3OB0CAO74ISBWTPK04RH1OHIF1KHY2,3OB0CAO74ISBWTPK04RH1OHIF1KHY2,271073,271073,,,,,,,,,,
,,,,4,5.825935,0,15,15,710,1,"a very modern looking kitchen with four stools, one without a footrest","a very modern kitchen with four stools, all of which have a foot rest",wolfe2,077_L_footrest,2,28,A1PMZUBGXFANCI,2021-01-24_19h40.11.214,MetaAwareness,2020.1.2,Win32,60,3TFJJUELSISRSGN3VP1JTAO9XHC2CV,A1PMZUBGXFANCI,3OB0CAO74ISBWTPK04RH1OHIF1KHY2,7CBO3,7CBO3,3OB0CAO74ISBWTPK04RH1OHIF1KHY2,3OB0CAO74ISBWTPK04RH1OHIF1KHY2,271073,271073,,,,,,,,,,
,,,,3,2.140445,0,16,16,727,1,"a bathroom decorated with blue walls and white tile, with a black sink consisting of one faucet knob","a bathroom decorated with blue walls and white tile, with a black sink consisting of two faucet knobs",wolfe2,078_R_faucet,3,28,A1PMZUBGXFANCI,2021-01-24_19h40.11.214,MetaAwareness,2020.1.2,Win32,60,3TFJJUELSISRSGN3VP1JTAO9XHC2CV,A1PMZUBGXFANCI,3OB0CAO74ISBWTPK04RH1OHIF1KHY2,7CBO3,7CBO3,3OB0CAO74ISBWTPK04RH1OHIF1KHY2,3OB0CAO74ISBWTPK04RH1OHIF1KHY2,271073,271073,,,,,,,,,,
,,,,5,2.70561,0,17,17,139,1,"a room with two hightop tables, very high ceilings and 3 upward pointed lights very high up on the walls",a room with two hightop tables very high ceilings and 4 upward pointed lights very high up on the walls,wolfe2,014_R_lamp,6,28,A1PMZUBGXFANCI,2021-01-24_19h40.11.214,MetaAwareness,2020.1.2,Win32,60,3TFJJUELSISRSGN3VP1JTAO9XHC2CV,A1PMZUBGXFANCI,3OB0CAO74ISBWTPK04RH1OHIF1KHY2,7CBO3,7CBO3,3OB0CAO74ISBWTPK04RH1OHIF1KHY2,3OB0CAO74ISBWTPK04RH1OHIF1KHY2,271073,271073,,,,,,,,,,
,,,,5,7.36602,0,18,18,573,1,a living room with an empty fireplace.,a living room with something in the fireplace.,wolfe2,062_R_flowers,2,28,A1PMZUBGXFANCI,2021-01-24_19h40.11.214,MetaAwareness,2020.1.2,Win32,60,3TFJJUELSISRSGN3VP1JTAO9XHC2CV,A1PMZUBGXFANCI,3OB0CAO74ISBWTPK04RH1OHIF1KHY2,7CBO3,7CBO3,3OB0CAO74ISBWTPK04RH1OHIF1KHY2,3OB0CAO74ISBWTPK04RH1OHIF1KHY2,271073,271073,,,,,,,,,,
,,,,3,1.85384,0,19,19,1101,1,a living room with large couches by a fireplace with 3 objects resting above it,a living room with large couches by a fireplace with 2 objects resting above it,wolfe2,120_R_art,3,28,A1PMZUBGXFANCI,2021-01-24_19h40.11.214,MetaAwareness,2020.1.2,Win32,60,3TFJJUELSISRSGN3VP1JTAO9XHC2CV,A1PMZUBGXFANCI,3OB0CAO74ISBWTPK04RH1OHIF1KHY2,7CBO3,7CBO3,3OB0CAO74ISBWTPK04RH1OHIF1KHY2,3OB0CAO74ISBWTPK04RH1OHIF1KHY2,271073,271073,,,,,,,,,,
,,,,4,4.16083,0,20,20,1094,1,"a very sparsley decorated room with some furniture, a piano, and two pictures hanging on the walls.","a very sparsley decorated room with some furntiture, a piano, and one picture hanging on the wall.",wolfe2,119_R_painting,5,28,A1PMZUBGXFANCI,2021-01-24_19h40.11.214,MetaAwareness,2020.1.2,Win32,60,3TFJJUELSISRSGN3VP1JTAO9XHC2CV,A1PMZUBGXFANCI,3OB0CAO74ISBWTPK04RH1OHIF1KHY2,7CBO3,7CBO3,3OB0CAO74ISBWTPK04RH1OHIF1KHY2,3OB0CAO74ISBWTPK04RH1OHIF1KHY2,271073,271073,,,,,,,,,,
,,,,5,6.79534,0,21,21,368,1,a dinning room that only has two pictures above the cabinet.,a dinning room that has three pictures above the cabinet.,wolfe2,040_R_painting,1,28,A1PMZUBGXFANCI,2021-01-24_19h40.11.214,MetaAwareness,2020.1.2,Win32,60,3TFJJUELSISRSGN3VP1JTAO9XHC2CV,A1PMZUBGXFANCI,3OB0CAO74ISBWTPK04RH1OHIF1KHY2,7CBO3,7CBO3,3OB0CAO74ISBWTPK04RH1OHIF1KHY2,3OB0CAO74ISBWTPK04RH1OHIF1KHY2,271073,271073,,,,,,,,,,
,,,,5,3.315255,0,22,22,485,1,a stone floored bathroom with linen closet that has 1 large drawer on the bottom,a stone floored bathroom with linen closet that has 2 small drawers on the bottom,wolfe2,053_L_handle,2,28,A1PMZUBGXFANCI,2021-01-24_19h40.11.214,MetaAwareness,2020.1.2,Win32,60,3TFJJUELSISRSGN3VP1JTAO9XHC2CV,A1PMZUBGXFANCI,3OB0CAO74ISBWTPK04RH1OHIF1KHY2,7CBO3,7CBO3,3OB0CAO74ISBWTPK04RH1OHIF1KHY2,3OB0CAO74ISBWTPK04RH1OHIF1KHY2,271073,271073,,,,,,,,,,
,,,,4,5.979315,0,23,23,718,1,a chiar without leg support,a chair with leg support,wolfe2,077_R_footrest,4,28,A1PMZUBGXFANCI,2021-01-24_19h40.11.214,MetaAwareness,2020.1.2,Win32,60,3TFJJUELSISRSGN3VP1JTAO9XHC2CV,A1PMZUBGXFANCI,3OB0CAO74ISBWTPK04RH1OHIF1KHY2,7CBO3,7CBO3,3OB0CAO74ISBWTPK04RH1OHIF1KHY2,3OB0CAO74ISBWTPK04RH1OHIF1KHY2,271073,271073,,,,,,,,,,
,,,,4,2.30523,0,24,24,767,1,a child's bedroom that is very colorful with a knob missing on the blue drawer,a child's bedroom that is very colorful with all the knobs intact on the dresser,wolfe2,083_L_knob,1,28,A1PMZUBGXFANCI,2021-01-24_19h40.11.214,MetaAwareness,2020.1.2,Win32,60,3TFJJUELSISRSGN3VP1JTAO9XHC2CV,A1PMZUBGXFANCI,3OB0CAO74ISBWTPK04RH1OHIF1KHY2,7CBO3,7CBO3,3OB0CAO74ISBWTPK04RH1OHIF1KHY2,3OB0CAO74ISBWTPK04RH1OHIF1KHY2,271073,271073,,,,,,,,,,
,,,,5,5.740405,0,25,25,380,1,a brown kitchen that has an empty fruitbowl on the counter by the sink,a brown kitchen that has a fruitbowl containing two oranges on the counter by the sink,wolfe2,041_R_fruit,4,28,A1PMZUBGXFANCI,2021-01-24_19h40.11.214,MetaAwareness,2020.1.2,Win32,60,3TFJJUELSISRSGN3VP1JTAO9XHC2CV,A1PMZUBGXFANCI,3OB0CAO74ISBWTPK04RH1OHIF1KHY2,7CBO3,7CBO3,3OB0CAO74ISBWTPK04RH1OHIF1KHY2,3OB0CAO74ISBWTPK04RH1OHIF1KHY2,271073,271073,,,,,,,,,,
,,,,4,1.42463,0,26,26,774,1,"colorful bedroom with bunkbed, table and a row of drawers on the wall with one missing",colorful bedroom with an open window and the matching drawer has a white pull fr it.,wolfe2,083_R_knob,4,28,A1PMZUBGXFANCI,2021-01-24_19h40.11.214,MetaAwareness,2020.1.2,Win32,60,3TFJJUELSISRSGN3VP1JTAO9XHC2CV,A1PMZUBGXFANCI,3OB0CAO74ISBWTPK04RH1OHIF1KHY2,7CBO3,7CBO3,3OB0CAO74ISBWTPK04RH1OHIF1KHY2,3OB0CAO74ISBWTPK04RH1OHIF1KHY2,271073,271073,,,,,,,,,,
,,,,3,2.48979,0,27,27,910,1,a hotel room with mostly white and grey furniture plus a small dark grey object lying on the floor,a hotel room with mostly white and grey furniture,wolfe2,098_R_slippers,5,28,A1PMZUBGXFANCI,2021-01-24_19h40.11.214,MetaAwareness,2020.1.2,Win32,60,3TFJJUELSISRSGN3VP1JTAO9XHC2CV,A1PMZUBGXFANCI,3OB0CAO74ISBWTPK04RH1OHIF1KHY2,7CBO3,7CBO3,3OB0CAO74ISBWTPK04RH1OHIF1KHY2,3OB0CAO74ISBWTPK04RH1OHIF1KHY2,271073,271073,,,,,,,,,,
,,,,4,5.012485,0,28,28,121,1,living space with one white hanging light,living space with two white hanging lights,wolfe2,013_L_lamp,6,28,A1PMZUBGXFANCI,2021-01-24_19h40.11.214,MetaAwareness,2020.1.2,Win32,60,3TFJJUELSISRSGN3VP1JTAO9XHC2CV,A1PMZUBGXFANCI,3OB0CAO74ISBWTPK04RH1OHIF1KHY2,7CBO3,7CBO3,3OB0CAO74ISBWTPK04RH1OHIF1KHY2,3OB0CAO74ISBWTPK04RH1OHIF1KHY2,271073,271073,,,,,,,,,,
,,,,4,3.29171,0,29,29,266,1,in a bathroom there is a shelf with two red glasses,in a bathroom there is a shelf with three red glasses,wolfe2,029_L_glass,1,28,A1PMZUBGXFANCI,2021-01-24_19h40.11.214,MetaAwareness,2020.1.2,Win32,60,3TFJJUELSISRSGN3VP1JTAO9XHC2CV,A1PMZUBGXFANCI,3OB0CAO74ISBWTPK04RH1OHIF1KHY2,7CBO3,7CBO3,3OB0CAO74ISBWTPK04RH1OHIF1KHY2,3OB0CAO74ISBWTPK04RH1OHIF1KHY2,271073,271073,,,,,,,,,,
,,,,,,,,,,,,,,,,28,A1PMZUBGXFANCI,2021-01-24_19h40.11.214,MetaAwareness,2020.1.2,Win32,60,3TFJJUELSISRSGN3VP1JTAO9XHC2CV,A1PMZUBGXFANCI,3OB0CAO74ISBWTPK04RH1OHIF1KHY2,7CBO3,7CBO3,3OB0CAO74ISBWTPK04RH1OHIF1KHY2,3OB0CAO74ISBWTPK04RH1OHIF1KHY2,271073,271073,4,3.17072,someone laying underneath a blue beach umbrella on a crowded beach,someone laying underneath a blue beach umbrella on a crowded beach,same,2,6.17066,members of a marching band crossing a track that all have feather plumes at the front of their hats,a cluttered and rustic looking cafe with 10 hanging lights,different
