consent_response.keys,consent_response.rt,key_resp_2.keys,key_resp_2.rt,user_resp.keys,user_resp.rt,trials.thisRepN,trials.thisTrialN,trials.thisN,trials.thisIndex,trials.ran,image_1_text,image_2_text,database,image,number,age,worker_ID,date,expName,psychopyVersion,OS,frameRate,hitId,workerId,assignmentId,a,tp_a,b,tp_b,c,tp_c,catch_same_resp.keys,catch_same_resp.rt,image_1_text_catch_same,image_2_text_catch_same,image_catch_same,catch_different_resp.keys,catch_different_resp.rt,image_1_text_catch_different,image_2_text_catch_different,image_catch_different
space,6.09519,space,4.23412,4,8.27374,0,0,0,415,1,a hotel room with yellow designed carpet and a night stand,a hotel room with yellow designed carpet and an ipod on the night stand,wolfe2,045_L_musicdock,3,27,A26WVAVVE1RM47,2021-01-24_15h41.15.907,MetaAwareness,2020.1.2,Win32,60,37PGLWGSJU9DMZDTC539498YRMIIKZ,A26WVAVVE1RM47,35GMH2SV3FKNI5UG4GADEUM39BVOEK,VHG53,VHG53,35GMH2SV3FKNI5UG4GADEUM39BVOEK,35GMH2SV3FKNI5UG4GADEUM39BVOEK,271073,271073,,,,,,,,,,
,,,,3,1.456515,0,1,1,1148,1,a living room with an unknown item on the floor near the window.,a living room with nothing on the floor or near the windows.,wolfe2,125_R_sofa,2,27,A26WVAVVE1RM47,2021-01-24_15h41.15.907,MetaAwareness,2020.1.2,Win32,60,37PGLWGSJU9DMZDTC539498YRMIIKZ,A26WVAVVE1RM47,35GMH2SV3FKNI5UG4GADEUM39BVOEK,VHG53,VHG53,35GMH2SV3FKNI5UG4GADEUM39BVOEK,35GMH2SV3FKNI5UG4GADEUM39BVOEK,271073,271073,,,,,,,,,,
,,,,2,1.541995,0,2,2,32,1,"a hotel room with a large window and a dark red lounge chair, with no tower in the distant background outside","a hotel room with a large window and a dark red lounge chair, with a tower in the  distant background outside",wolfe2,004_R_electricalgrid,3,27,A26WVAVVE1RM47,2021-01-24_15h41.15.907,MetaAwareness,2020.1.2,Win32,60,37PGLWGSJU9DMZDTC539498YRMIIKZ,A26WVAVVE1RM47,35GMH2SV3FKNI5UG4GADEUM39BVOEK,VHG53,VHG53,35GMH2SV3FKNI5UG4GADEUM39BVOEK,35GMH2SV3FKNI5UG4GADEUM39BVOEK,271073,271073,,,,,,,,,,
,,,,3,1.21074,0,3,3,397,1,"a fancy living room with a television, and storage shelf.","a fancy living room with a televsion, and a storage shelf that has a clock.",wolfe2,043_L_clock,5,27,A26WVAVVE1RM47,2021-01-24_15h41.15.907,MetaAwareness,2020.1.2,Win32,60,37PGLWGSJU9DMZDTC539498YRMIIKZ,A26WVAVVE1RM47,35GMH2SV3FKNI5UG4GADEUM39BVOEK,VHG53,VHG53,35GMH2SV3FKNI5UG4GADEUM39BVOEK,35GMH2SV3FKNI5UG4GADEUM39BVOEK,271073,271073,,,,,,,,,,
,,,,4,1.1756,0,4,4,388,1,"a luxurious bathroom with two vessel sinks and mirrors, but one of the sinks has no faucet","a luxurious bathroom with two vessel sinks and mirrors, and both sinks have faucets",wolfe2,042_R_tap,1,27,A26WVAVVE1RM47,2021-01-24_15h41.15.907,MetaAwareness,2020.1.2,Win32,60,37PGLWGSJU9DMZDTC539498YRMIIKZ,A26WVAVVE1RM47,35GMH2SV3FKNI5UG4GADEUM39BVOEK,VHG53,VHG53,35GMH2SV3FKNI5UG4GADEUM39BVOEK,35GMH2SV3FKNI5UG4GADEUM39BVOEK,271073,271073,,,,,,,,,,
,,,,5,1.01826,0,5,5,785,1,a living room with a scenic view,a living room with a scenic view and wall light,wolfe2,084_R_light,6,27,A26WVAVVE1RM47,2021-01-24_15h41.15.907,MetaAwareness,2020.1.2,Win32,60,37PGLWGSJU9DMZDTC539498YRMIIKZ,A26WVAVVE1RM47,35GMH2SV3FKNI5UG4GADEUM39BVOEK,VHG53,VHG53,35GMH2SV3FKNI5UG4GADEUM39BVOEK,35GMH2SV3FKNI5UG4GADEUM39BVOEK,271073,271073,,,,,,,,,,
,,,,2,0.83646,0,6,6,952,1,a darker colored bathroom with a very large sink and mirror,"a darker colored bathroom with a very large sink and mirror, but now there isn't a wall hanger at the top right of the mirror.",wolfe2,103_R_hook,5,27,A26WVAVVE1RM47,2021-01-24_15h41.15.907,MetaAwareness,2020.1.2,Win32,60,37PGLWGSJU9DMZDTC539498YRMIIKZ,A26WVAVVE1RM47,35GMH2SV3FKNI5UG4GADEUM39BVOEK,VHG53,VHG53,35GMH2SV3FKNI5UG4GADEUM39BVOEK,35GMH2SV3FKNI5UG4GADEUM39BVOEK,271073,271073,,,,,,,,,,
,,,,4,0.759075,0,7,7,669,1,in a kitchen there is a pot with many utencils next to the stove,in a kitchen there is a pot with few utencils next to the stove,wolfe2,073_L_coffeemug,1,27,A26WVAVVE1RM47,2021-01-24_15h41.15.907,MetaAwareness,2020.1.2,Win32,60,37PGLWGSJU9DMZDTC539498YRMIIKZ,A26WVAVVE1RM47,35GMH2SV3FKNI5UG4GADEUM39BVOEK,VHG53,VHG53,35GMH2SV3FKNI5UG4GADEUM39BVOEK,35GMH2SV3FKNI5UG4GADEUM39BVOEK,271073,271073,,,,,,,,,,
,,,,3,0.775875,0,8,8,850,1,red colored washroom with several sinks and mirrors along with a smoke detector on the far wall.,red colored washroom with several sinks and mirrors,wolfe2,091_R_airfreshener,1,27,A26WVAVVE1RM47,2021-01-24_15h41.15.907,MetaAwareness,2020.1.2,Win32,60,37PGLWGSJU9DMZDTC539498YRMIIKZ,A26WVAVVE1RM47,35GMH2SV3FKNI5UG4GADEUM39BVOEK,VHG53,VHG53,35GMH2SV3FKNI5UG4GADEUM39BVOEK,35GMH2SV3FKNI5UG4GADEUM39BVOEK,271073,271073,,,,,,,,,,
,,,,2,0.652155,0,9,9,140,1,a quiet living room with 4 ceiling lights,a quiet living room with 6 ceiling lights,wolfe2,015_L_ceilinglight,1,27,A26WVAVVE1RM47,2021-01-24_15h41.15.907,MetaAwareness,2020.1.2,Win32,60,37PGLWGSJU9DMZDTC539498YRMIIKZ,A26WVAVVE1RM47,35GMH2SV3FKNI5UG4GADEUM39BVOEK,VHG53,VHG53,35GMH2SV3FKNI5UG4GADEUM39BVOEK,35GMH2SV3FKNI5UG4GADEUM39BVOEK,271073,271073,,,,,,,,,,
,,,,4,0.741275,0,10,10,436,1,there is a desk in a well-appointed guest room.,a missing drawer-pull is added to a desk in the well-appointed guest room.,wolfe2,047_R_handle,5,27,A26WVAVVE1RM47,2021-01-24_15h41.15.907,MetaAwareness,2020.1.2,Win32,60,37PGLWGSJU9DMZDTC539498YRMIIKZ,A26WVAVVE1RM47,35GMH2SV3FKNI5UG4GADEUM39BVOEK,VHG53,VHG53,35GMH2SV3FKNI5UG4GADEUM39BVOEK,35GMH2SV3FKNI5UG4GADEUM39BVOEK,271073,271073,,,,,,,,,,
,,,,2,0.76089,0,11,11,674,1,switch board has,in its does not have,wolfe2,073_R_coffeemug,2,27,A26WVAVVE1RM47,2021-01-24_15h41.15.907,MetaAwareness,2020.1.2,Win32,60,37PGLWGSJU9DMZDTC539498YRMIIKZ,A26WVAVVE1RM47,35GMH2SV3FKNI5UG4GADEUM39BVOEK,VHG53,VHG53,35GMH2SV3FKNI5UG4GADEUM39BVOEK,35GMH2SV3FKNI5UG4GADEUM39BVOEK,271073,271073,,,,,,,,,,
,,,,3,0.742705,0,12,12,595,1,a beige and white bedroom with desk and a shelf with books,a beige and white bedroom with desk and a shelf with books and cds,wolfe2,065_L_cd,1,27,A26WVAVVE1RM47,2021-01-24_15h41.15.907,MetaAwareness,2020.1.2,Win32,60,37PGLWGSJU9DMZDTC539498YRMIIKZ,A26WVAVVE1RM47,35GMH2SV3FKNI5UG4GADEUM39BVOEK,VHG53,VHG53,35GMH2SV3FKNI5UG4GADEUM39BVOEK,35GMH2SV3FKNI5UG4GADEUM39BVOEK,271073,271073,,,,,,,,,,
,,,,5,0.692765,0,13,13,322,1,a bedroom with a nightstand table,a bedroom with a nightstand table that has fake fruits on it,wolfe2,035_L_fruit,3,27,A26WVAVVE1RM47,2021-01-24_15h41.15.907,MetaAwareness,2020.1.2,Win32,60,37PGLWGSJU9DMZDTC539498YRMIIKZ,A26WVAVVE1RM47,35GMH2SV3FKNI5UG4GADEUM39BVOEK,VHG53,VHG53,35GMH2SV3FKNI5UG4GADEUM39BVOEK,35GMH2SV3FKNI5UG4GADEUM39BVOEK,271073,271073,,,,,,,,,,
,,,,5,1.06075,0,14,14,780,1,beach home with beige walls,beach home with beige wall and latern type lighting,wolfe2,084_R_light,1,27,A26WVAVVE1RM47,2021-01-24_15h41.15.907,MetaAwareness,2020.1.2,Win32,60,37PGLWGSJU9DMZDTC539498YRMIIKZ,A26WVAVVE1RM47,35GMH2SV3FKNI5UG4GADEUM39BVOEK,VHG53,VHG53,35GMH2SV3FKNI5UG4GADEUM39BVOEK,35GMH2SV3FKNI5UG4GADEUM39BVOEK,271073,271073,,,,,,,,,,
,,,,2,0.81799,0,15,15,378,1,a kitchen with an empty blue bowl.,a kitchen with a bowl filled with food.,wolfe2,041_R_fruit,2,27,A26WVAVVE1RM47,2021-01-24_15h41.15.907,MetaAwareness,2020.1.2,Win32,60,37PGLWGSJU9DMZDTC539498YRMIIKZ,A26WVAVVE1RM47,35GMH2SV3FKNI5UG4GADEUM39BVOEK,VHG53,VHG53,35GMH2SV3FKNI5UG4GADEUM39BVOEK,35GMH2SV3FKNI5UG4GADEUM39BVOEK,271073,271073,,,,,,,,,,
,,,,1,0.97041,0,16,16,101,1,"a bright, modern bathroom with 1 bottle on the counter","a bright, modern bathroom with 2 bottles on the counter",wolfe2,011_L_parfum,2,27,A26WVAVVE1RM47,2021-01-24_15h41.15.907,MetaAwareness,2020.1.2,Win32,60,37PGLWGSJU9DMZDTC539498YRMIIKZ,A26WVAVVE1RM47,35GMH2SV3FKNI5UG4GADEUM39BVOEK,VHG53,VHG53,35GMH2SV3FKNI5UG4GADEUM39BVOEK,35GMH2SV3FKNI5UG4GADEUM39BVOEK,271073,271073,,,,,,,,,,
,,,,5,0.877195,0,17,17,489,1,stone feeling bathroom with a cabinet and drawer missing a pull,stone feeling bathroom with a cabinet and drawer,wolfe2,053_R_handle,1,27,A26WVAVVE1RM47,2021-01-24_15h41.15.907,MetaAwareness,2020.1.2,Win32,60,37PGLWGSJU9DMZDTC539498YRMIIKZ,A26WVAVVE1RM47,35GMH2SV3FKNI5UG4GADEUM39BVOEK,VHG53,VHG53,35GMH2SV3FKNI5UG4GADEUM39BVOEK,35GMH2SV3FKNI5UG4GADEUM39BVOEK,271073,271073,,,,,,,,,,
,,,,2,1.36914,0,18,18,834,1,a four chair salon with a photo of a redhead on the wall,a four chair salon that does not have a photo of a redhead on the wall,wolfe2,089_R_poster,5,27,A26WVAVVE1RM47,2021-01-24_15h41.15.907,MetaAwareness,2020.1.2,Win32,60,37PGLWGSJU9DMZDTC539498YRMIIKZ,A26WVAVVE1RM47,35GMH2SV3FKNI5UG4GADEUM39BVOEK,VHG53,VHG53,35GMH2SV3FKNI5UG4GADEUM39BVOEK,35GMH2SV3FKNI5UG4GADEUM39BVOEK,271073,271073,,,,,,,,,,
,,,,5,2.03349,0,19,19,843,1,a relaxing bedroom that is colored mostly red with a lamp in the corner.,a relaxing bedroom that is colored mostly red.,wolfe2,090_R_lamp,4,27,A26WVAVVE1RM47,2021-01-24_15h41.15.907,MetaAwareness,2020.1.2,Win32,60,37PGLWGSJU9DMZDTC539498YRMIIKZ,A26WVAVVE1RM47,35GMH2SV3FKNI5UG4GADEUM39BVOEK,VHG53,VHG53,35GMH2SV3FKNI5UG4GADEUM39BVOEK,35GMH2SV3FKNI5UG4GADEUM39BVOEK,271073,271073,,,,,,,,,,
,,,,2,1.41902,0,20,20,504,1,a red decorated dorm room with 2 round rugs on the floor,a red decorated dorm room with 3 round rugs on the floor,wolfe2,055_L_carpet,4,27,A26WVAVVE1RM47,2021-01-24_15h41.15.907,MetaAwareness,2020.1.2,Win32,60,37PGLWGSJU9DMZDTC539498YRMIIKZ,A26WVAVVE1RM47,35GMH2SV3FKNI5UG4GADEUM39BVOEK,VHG53,VHG53,35GMH2SV3FKNI5UG4GADEUM39BVOEK,35GMH2SV3FKNI5UG4GADEUM39BVOEK,271073,271073,,,,,,,,,,
,,,,3,0.86023,0,21,21,408,1,a bathroom with a bathtub that has one light,a bathroom with a bathtub that has two lights,wolfe2,044_L_light,6,27,A26WVAVVE1RM47,2021-01-24_15h41.15.907,MetaAwareness,2020.1.2,Win32,60,37PGLWGSJU9DMZDTC539498YRMIIKZ,A26WVAVVE1RM47,35GMH2SV3FKNI5UG4GADEUM39BVOEK,VHG53,VHG53,35GMH2SV3FKNI5UG4GADEUM39BVOEK,35GMH2SV3FKNI5UG4GADEUM39BVOEK,271073,271073,,,,,,,,,,
,,,,2,1.025975,0,22,22,653,1,old fashioned living room with black and white table lamps having a white object on the end table,old fashioned living room with black and white table lamps having a brownish colored object on the end table,wolfe2,071_L_art,3,27,A26WVAVVE1RM47,2021-01-24_15h41.15.907,MetaAwareness,2020.1.2,Win32,60,37PGLWGSJU9DMZDTC539498YRMIIKZ,A26WVAVVE1RM47,35GMH2SV3FKNI5UG4GADEUM39BVOEK,VHG53,VHG53,35GMH2SV3FKNI5UG4GADEUM39BVOEK,35GMH2SV3FKNI5UG4GADEUM39BVOEK,271073,271073,,,,,,,,,,
,,,,2,0.896175,0,23,23,1174,1,there is flower pot in the room,no flower pots are appear in the room,wolfe2,128_R_pot,1,27,A26WVAVVE1RM47,2021-01-24_15h41.15.907,MetaAwareness,2020.1.2,Win32,60,37PGLWGSJU9DMZDTC539498YRMIIKZ,A26WVAVVE1RM47,35GMH2SV3FKNI5UG4GADEUM39BVOEK,VHG53,VHG53,35GMH2SV3FKNI5UG4GADEUM39BVOEK,35GMH2SV3FKNI5UG4GADEUM39BVOEK,271073,271073,,,,,,,,,,
,,,,5,0.80403,0,24,24,1049,1,"a room with a small couch and coffee table that has some things on it, including two nicknacks","a room with a small couch and coffee table that has some things on it, including one nicknack",wolfe2,114_R_bird,5,27,A26WVAVVE1RM47,2021-01-24_15h41.15.907,MetaAwareness,2020.1.2,Win32,60,37PGLWGSJU9DMZDTC539498YRMIIKZ,A26WVAVVE1RM47,35GMH2SV3FKNI5UG4GADEUM39BVOEK,VHG53,VHG53,35GMH2SV3FKNI5UG4GADEUM39BVOEK,35GMH2SV3FKNI5UG4GADEUM39BVOEK,271073,271073,,,,,,,,,,
,,,,4,0.949575,0,25,25,297,1,retro bathroom,retro bathroom with circular shelves. the shelves have tolietries,wolfe2,032_L_bottle,4,27,A26WVAVVE1RM47,2021-01-24_15h41.15.907,MetaAwareness,2020.1.2,Win32,60,37PGLWGSJU9DMZDTC539498YRMIIKZ,A26WVAVVE1RM47,35GMH2SV3FKNI5UG4GADEUM39BVOEK,VHG53,VHG53,35GMH2SV3FKNI5UG4GADEUM39BVOEK,35GMH2SV3FKNI5UG4GADEUM39BVOEK,271073,271073,,,,,,,,,,
,,,,2,1.12647,0,26,26,407,1,a modern looking bathroom with a large shower and a large tub with a light on the left front side of the tub,a modern looking bathroom with a large shower and a large tub with two lights on the front of the tub,wolfe2,044_L_light,5,27,A26WVAVVE1RM47,2021-01-24_15h41.15.907,MetaAwareness,2020.1.2,Win32,60,37PGLWGSJU9DMZDTC539498YRMIIKZ,A26WVAVVE1RM47,35GMH2SV3FKNI5UG4GADEUM39BVOEK,VHG53,VHG53,35GMH2SV3FKNI5UG4GADEUM39BVOEK,35GMH2SV3FKNI5UG4GADEUM39BVOEK,271073,271073,,,,,,,,,,
,,,,4,0.695245,0,27,27,682,1,bright and inviting living area. has a coffe table with plants on it.,bright and inviting living area. has a coffee table with plants and a book on it,wolfe2,074_R_book,3,27,A26WVAVVE1RM47,2021-01-24_15h41.15.907,MetaAwareness,2020.1.2,Win32,60,37PGLWGSJU9DMZDTC539498YRMIIKZ,A26WVAVVE1RM47,35GMH2SV3FKNI5UG4GADEUM39BVOEK,VHG53,VHG53,35GMH2SV3FKNI5UG4GADEUM39BVOEK,35GMH2SV3FKNI5UG4GADEUM39BVOEK,271073,271073,,,,,,,,,,
,,,,2,0.52302,0,28,28,398,1,a modern living room with no clock in the cupboard,a modern living room with a clock in the cupboard,wolfe2,043_R_clock,1,27,A26WVAVVE1RM47,2021-01-24_15h41.15.907,MetaAwareness,2020.1.2,Win32,60,37PGLWGSJU9DMZDTC539498YRMIIKZ,A26WVAVVE1RM47,35GMH2SV3FKNI5UG4GADEUM39BVOEK,VHG53,VHG53,35GMH2SV3FKNI5UG4GADEUM39BVOEK,35GMH2SV3FKNI5UG4GADEUM39BVOEK,271073,271073,,,,,,,,,,
,,,,4,0.669555,0,29,29,589,1,there is a white vase and tray next to the mirror on this desk.,"there is a white vase, tray and lantern next to the mirror on this desk.",wolfe2,064_R_bottles,1,27,A26WVAVVE1RM47,2021-01-24_15h41.15.907,MetaAwareness,2020.1.2,Win32,60,37PGLWGSJU9DMZDTC539498YRMIIKZ,A26WVAVVE1RM47,35GMH2SV3FKNI5UG4GADEUM39BVOEK,VHG53,VHG53,35GMH2SV3FKNI5UG4GADEUM39BVOEK,35GMH2SV3FKNI5UG4GADEUM39BVOEK,271073,271073,,,,,,,,,,
,,,,,,,,,,,,,,,,27,A26WVAVVE1RM47,2021-01-24_15h41.15.907,MetaAwareness,2020.1.2,Win32,60,37PGLWGSJU9DMZDTC539498YRMIIKZ,A26WVAVVE1RM47,35GMH2SV3FKNI5UG4GADEUM39BVOEK,VHG53,VHG53,35GMH2SV3FKNI5UG4GADEUM39BVOEK,35GMH2SV3FKNI5UG4GADEUM39BVOEK,271073,271073,3,0.495825,someone laying underneath a blue beach umbrella on a crowded beach,someone laying underneath a blue beach umbrella on a crowded beach,same,3,0.795545,members of a marching band crossing a track that all have feather plumes at the front of their hats,a cluttered and rustic looking cafe with 10 hanging lights,different
