consent_response.keys,consent_response.rt,key_resp_2.keys,key_resp_2.rt,user_resp.keys,user_resp.rt,trials.thisRepN,trials.thisTrialN,trials.thisN,trials.thisIndex,trials.ran,image_1_text,image_2_text,database,image,number,age,worker_ID,date,expName,psychopyVersion,OS,frameRate,hitId,workerId,assignmentId,a,tp_a,b,tp_b,c,tp_c,catch_same_resp.keys,catch_same_resp.rt,image_1_text_catch_same,image_2_text_catch_same,image_catch_same,catch_different_resp.keys,catch_different_resp.rt,image_1_text_catch_different,image_2_text_catch_different,image_catch_different
space,4.06778,space,19.499395,5,23.349185,0,0,0,149,1,a living room with a large walk out sliding glass door.,"a living room with a large glass sliding door, and an architectural piece.",wolfe2,016_L_art,2,57,A2A6FH0F7LD9ND,2021-01-24_18h37.59.853,MetaAwareness,2020.1.2,Win32,60,3YZ7A3YHR6WZYUVMAUTH6MV33UO5SS,A2A6FH0F7LD9ND,3HFNH7HEMIHONV3NPOS5322F1SNQG6,EHFH3,EHFH3,3HFNH7HEMIHONV3NPOS5322F1SNQG6,3HFNH7HEMIHONV3NPOS5322F1SNQG6,271073,271073,,,,,,,,,,
,,,,5,8.28419,0,1,1,197,1,a hippie-style office with a chair facing a desk that has a black mat on it.,a hippie-style office with a chair facing a desk that has a black mat with a keyboard on it.,wolfe2,021_R_keyboard,1,57,A2A6FH0F7LD9ND,2021-01-24_18h37.59.853,MetaAwareness,2020.1.2,Win32,60,3YZ7A3YHR6WZYUVMAUTH6MV33UO5SS,A2A6FH0F7LD9ND,3HFNH7HEMIHONV3NPOS5322F1SNQG6,EHFH3,EHFH3,3HFNH7HEMIHONV3NPOS5322F1SNQG6,3HFNH7HEMIHONV3NPOS5322F1SNQG6,271073,271073,,,,,,,,,,
,,,,2,9.542855,0,2,2,845,1,a lamp on the floor closed to the wall,an empty corner in the room,wolfe2,090_R_lamp,6,57,A2A6FH0F7LD9ND,2021-01-24_18h37.59.853,MetaAwareness,2020.1.2,Win32,60,3YZ7A3YHR6WZYUVMAUTH6MV33UO5SS,A2A6FH0F7LD9ND,3HFNH7HEMIHONV3NPOS5322F1SNQG6,EHFH3,EHFH3,3HFNH7HEMIHONV3NPOS5322F1SNQG6,3HFNH7HEMIHONV3NPOS5322F1SNQG6,271073,271073,,,,,,,,,,
,,,,4,24.43241,0,3,3,1016,1,an indoor patio with a pool on the outside of it and a bush in the corner of the patio.,an indoor patio with a pool in the backyard and brown carpeting in the patio area,wolfe2,110_R_plant,4,57,A2A6FH0F7LD9ND,2021-01-24_18h37.59.853,MetaAwareness,2020.1.2,Win32,60,3YZ7A3YHR6WZYUVMAUTH6MV33UO5SS,A2A6FH0F7LD9ND,3HFNH7HEMIHONV3NPOS5322F1SNQG6,EHFH3,EHFH3,3HFNH7HEMIHONV3NPOS5322F1SNQG6,3HFNH7HEMIHONV3NPOS5322F1SNQG6,271073,271073,,,,,,,,,,
,,,,5,9.235425,0,4,4,82,1,a modern bedroom with white walls and floors and brown furniture in it,"a modern bedroom with white walls and floors, brown furniture, and a round pale taupe rug in it",wolfe2,009_L_carpet,4,57,A2A6FH0F7LD9ND,2021-01-24_18h37.59.853,MetaAwareness,2020.1.2,Win32,60,3YZ7A3YHR6WZYUVMAUTH6MV33UO5SS,A2A6FH0F7LD9ND,3HFNH7HEMIHONV3NPOS5322F1SNQG6,EHFH3,EHFH3,3HFNH7HEMIHONV3NPOS5322F1SNQG6,3HFNH7HEMIHONV3NPOS5322F1SNQG6,271073,271073,,,,,,,,,,
,,,,5,10.320245,0,5,5,258,1,a simple bathroom with modern aesthetic which has 1 hand towel on the counter,a simple bathroom with modern aesthetic which has 2 hand towels on the counter,wolfe2,028_L_vase,1,57,A2A6FH0F7LD9ND,2021-01-24_18h37.59.853,MetaAwareness,2020.1.2,Win32,60,3YZ7A3YHR6WZYUVMAUTH6MV33UO5SS,A2A6FH0F7LD9ND,3HFNH7HEMIHONV3NPOS5322F1SNQG6,EHFH3,EHFH3,3HFNH7HEMIHONV3NPOS5322F1SNQG6,3HFNH7HEMIHONV3NPOS5322F1SNQG6,271073,271073,,,,,,,,,,
,,,,5,16.200145,0,6,6,1116,1,"a well-lit room with several empty chairs and tables, with one tablein the corner having two chairs","a well-lit room with several empty chairs and tables, with one chair missing from a table in the corner",wolfe2,122_L_chair,4,57,A2A6FH0F7LD9ND,2021-01-24_18h37.59.853,MetaAwareness,2020.1.2,Win32,60,3YZ7A3YHR6WZYUVMAUTH6MV33UO5SS,A2A6FH0F7LD9ND,3HFNH7HEMIHONV3NPOS5322F1SNQG6,EHFH3,EHFH3,3HFNH7HEMIHONV3NPOS5322F1SNQG6,3HFNH7HEMIHONV3NPOS5322F1SNQG6,271073,271073,,,,,,,,,,
,,,,4,8.783755,0,7,7,759,1,it is a picture of a bedroom with a bed side table to the side of the bed.,it is a picture of a bedroom with a bed side table to the side of the bed with a dish or maybe a jewelry holder under the top shelf on top of the drawer.,wolfe2,082_R_bowl,2,57,A2A6FH0F7LD9ND,2021-01-24_18h37.59.853,MetaAwareness,2020.1.2,Win32,60,3YZ7A3YHR6WZYUVMAUTH6MV33UO5SS,A2A6FH0F7LD9ND,3HFNH7HEMIHONV3NPOS5322F1SNQG6,EHFH3,EHFH3,3HFNH7HEMIHONV3NPOS5322F1SNQG6,3HFNH7HEMIHONV3NPOS5322F1SNQG6,271073,271073,,,,,,,,,,
,,,,5,7.30293,0,8,8,433,1,a bedroom with a black and white desk with three handles,a bedroom with a black and white desk with four handles,wolfe2,047_R_handle,1,57,A2A6FH0F7LD9ND,2021-01-24_18h37.59.853,MetaAwareness,2020.1.2,Win32,60,3YZ7A3YHR6WZYUVMAUTH6MV33UO5SS,A2A6FH0F7LD9ND,3HFNH7HEMIHONV3NPOS5322F1SNQG6,EHFH3,EHFH3,3HFNH7HEMIHONV3NPOS5322F1SNQG6,3HFNH7HEMIHONV3NPOS5322F1SNQG6,271073,271073,,,,,,,,,,
,,,,5,19.116255,0,9,9,231,1,a sink area that looks very zen and has a basket plus a stack of four towels under it,a sink area that looks very zen and has a basket plus two stacks of four towels each under it,wolfe2,024_R_towels,3,57,A2A6FH0F7LD9ND,2021-01-24_18h37.59.853,MetaAwareness,2020.1.2,Win32,60,3YZ7A3YHR6WZYUVMAUTH6MV33UO5SS,A2A6FH0F7LD9ND,3HFNH7HEMIHONV3NPOS5322F1SNQG6,EHFH3,EHFH3,3HFNH7HEMIHONV3NPOS5322F1SNQG6,3HFNH7HEMIHONV3NPOS5322F1SNQG6,271073,271073,,,,,,,,,,
,,,,5,10.557165,0,10,10,345,1,a large marble bathroom with two brown towels set on top of three white towels on a shelf,a large marble bathroom with three brown towels stacked on top of three white towels on a shelf,wolfe2,037_R_towel,3,57,A2A6FH0F7LD9ND,2021-01-24_18h37.59.853,MetaAwareness,2020.1.2,Win32,60,3YZ7A3YHR6WZYUVMAUTH6MV33UO5SS,A2A6FH0F7LD9ND,3HFNH7HEMIHONV3NPOS5322F1SNQG6,EHFH3,EHFH3,3HFNH7HEMIHONV3NPOS5322F1SNQG6,3HFNH7HEMIHONV3NPOS5322F1SNQG6,271073,271073,,,,,,,,,,
,,,,6,14.20887,0,11,11,483,1,a living room with a flat screen tv and sound systome on the wall. sound system does not have a cneter chanel speaker,a living room with a flat screen tv and sound systom on the wall. sound system includes a center channel speaker,wolfe2,052_R_speaker,4,57,A2A6FH0F7LD9ND,2021-01-24_18h37.59.853,MetaAwareness,2020.1.2,Win32,60,3YZ7A3YHR6WZYUVMAUTH6MV33UO5SS,A2A6FH0F7LD9ND,3HFNH7HEMIHONV3NPOS5322F1SNQG6,EHFH3,EHFH3,3HFNH7HEMIHONV3NPOS5322F1SNQG6,3HFNH7HEMIHONV3NPOS5322F1SNQG6,271073,271073,,,,,,,,,,
,,,,5,11.520035,0,12,12,536,1,a bedroom with a lot of pink in it . with a nightstand that has a furry surface.,a bedroom that has a lot of pink in it with a purse on the nightstand that has a furry surface.,wolfe2,058_R_clutch,2,57,A2A6FH0F7LD9ND,2021-01-24_18h37.59.853,MetaAwareness,2020.1.2,Win32,60,3YZ7A3YHR6WZYUVMAUTH6MV33UO5SS,A2A6FH0F7LD9ND,3HFNH7HEMIHONV3NPOS5322F1SNQG6,EHFH3,EHFH3,3HFNH7HEMIHONV3NPOS5322F1SNQG6,3HFNH7HEMIHONV3NPOS5322F1SNQG6,271073,271073,,,,,,,,,,
,,,,5,13.02945,0,13,13,456,1,a modern red and beige bedroom with a narrow black bookshelf that has one empty shelf,a modern red and beige bedroom with a narrow black bookshelf that has no empty shelves,wolfe2,050_L_book,2,57,A2A6FH0F7LD9ND,2021-01-24_18h37.59.853,MetaAwareness,2020.1.2,Win32,60,3YZ7A3YHR6WZYUVMAUTH6MV33UO5SS,A2A6FH0F7LD9ND,3HFNH7HEMIHONV3NPOS5322F1SNQG6,EHFH3,EHFH3,3HFNH7HEMIHONV3NPOS5322F1SNQG6,3HFNH7HEMIHONV3NPOS5322F1SNQG6,271073,271073,,,,,,,,,,
,,,,5,18.55618,0,14,14,191,1,a depicition of a home office with a yellow desk with very little on it,a picture of a home office with a keyboard on a yellow desk,wolfe2,021_L_keyboard,2,57,A2A6FH0F7LD9ND,2021-01-24_18h37.59.853,MetaAwareness,2020.1.2,Win32,60,3YZ7A3YHR6WZYUVMAUTH6MV33UO5SS,A2A6FH0F7LD9ND,3HFNH7HEMIHONV3NPOS5322F1SNQG6,EHFH3,EHFH3,3HFNH7HEMIHONV3NPOS5322F1SNQG6,3HFNH7HEMIHONV3NPOS5322F1SNQG6,271073,271073,,,,,,,,,,
,,,,5,11.58986,0,15,15,1031,1,"it is a picture of a family room with a couch and chair, and there is a pot on the floor next to the chair.","it is a picture of a family room with a couch and chair, and there is nothing next to the chair.",wolfe2,112_R_basket,3,57,A2A6FH0F7LD9ND,2021-01-24_18h37.59.853,MetaAwareness,2020.1.2,Win32,60,3YZ7A3YHR6WZYUVMAUTH6MV33UO5SS,A2A6FH0F7LD9ND,3HFNH7HEMIHONV3NPOS5322F1SNQG6,EHFH3,EHFH3,3HFNH7HEMIHONV3NPOS5322F1SNQG6,3HFNH7HEMIHONV3NPOS5322F1SNQG6,271073,271073,,,,,,,,,,
,,,,5,9.234005,0,16,16,45,1,a bedroom with multiple dressers and a rug with an empty nightstand,a bedroom with multiple dressers and a rug with a nightstand with a vase on it,wolfe2,006_L_vase,2,57,A2A6FH0F7LD9ND,2021-01-24_18h37.59.853,MetaAwareness,2020.1.2,Win32,60,3YZ7A3YHR6WZYUVMAUTH6MV33UO5SS,A2A6FH0F7LD9ND,3HFNH7HEMIHONV3NPOS5322F1SNQG6,EHFH3,EHFH3,3HFNH7HEMIHONV3NPOS5322F1SNQG6,3HFNH7HEMIHONV3NPOS5322F1SNQG6,271073,271073,,,,,,,,,,
,,,,5,7.494805,0,17,17,1112,1,a bedroom with a black item on a table,a table that only has a lamp on the table no other item,wolfe2,121_R_car,6,57,A2A6FH0F7LD9ND,2021-01-24_18h37.59.853,MetaAwareness,2020.1.2,Win32,60,3YZ7A3YHR6WZYUVMAUTH6MV33UO5SS,A2A6FH0F7LD9ND,3HFNH7HEMIHONV3NPOS5322F1SNQG6,EHFH3,EHFH3,3HFNH7HEMIHONV3NPOS5322F1SNQG6,3HFNH7HEMIHONV3NPOS5322F1SNQG6,271073,271073,,,,,,,,,,
,,,,5,7.00846,0,18,18,1049,1,"a room with a small couch and coffee table that has some things on it, including two nicknacks","a room with a small couch and coffee table that has some things on it, including one nicknack",wolfe2,114_R_bird,5,57,A2A6FH0F7LD9ND,2021-01-24_18h37.59.853,MetaAwareness,2020.1.2,Win32,60,3YZ7A3YHR6WZYUVMAUTH6MV33UO5SS,A2A6FH0F7LD9ND,3HFNH7HEMIHONV3NPOS5322F1SNQG6,EHFH3,EHFH3,3HFNH7HEMIHONV3NPOS5322F1SNQG6,3HFNH7HEMIHONV3NPOS5322F1SNQG6,271073,271073,,,,,,,,,,
,,,,4,12.953095,0,19,19,1075,1,a large living room with a potted plant by the back doors.,a large living room without a large potted plant by the back doors,wolfe2,117_R_plant_sized,4,57,A2A6FH0F7LD9ND,2021-01-24_18h37.59.853,MetaAwareness,2020.1.2,Win32,60,3YZ7A3YHR6WZYUVMAUTH6MV33UO5SS,A2A6FH0F7LD9ND,3HFNH7HEMIHONV3NPOS5322F1SNQG6,EHFH3,EHFH3,3HFNH7HEMIHONV3NPOS5322F1SNQG6,3HFNH7HEMIHONV3NPOS5322F1SNQG6,271073,271073,,,,,,,,,,
,,,,2,15.85002,0,20,20,692,1,i really think that this image provides a classic home.  there should really be more lights in this area but overall it looks great.,i love the extra lighting.  the whole decor is welcoming.,wolfe2,075_R_light,2,57,A2A6FH0F7LD9ND,2021-01-24_18h37.59.853,MetaAwareness,2020.1.2,Win32,60,3YZ7A3YHR6WZYUVMAUTH6MV33UO5SS,A2A6FH0F7LD9ND,3HFNH7HEMIHONV3NPOS5322F1SNQG6,EHFH3,EHFH3,3HFNH7HEMIHONV3NPOS5322F1SNQG6,3HFNH7HEMIHONV3NPOS5322F1SNQG6,271073,271073,,,,,,,,,,
,,,,4,11.6421,0,21,21,303,1,a bottle sitting on a circular structure and shelf,two bottles sitting on a floating shelf,wolfe2,032_R_bottle,6,57,A2A6FH0F7LD9ND,2021-01-24_18h37.59.853,MetaAwareness,2020.1.2,Win32,60,3YZ7A3YHR6WZYUVMAUTH6MV33UO5SS,A2A6FH0F7LD9ND,3HFNH7HEMIHONV3NPOS5322F1SNQG6,EHFH3,EHFH3,3HFNH7HEMIHONV3NPOS5322F1SNQG6,3HFNH7HEMIHONV3NPOS5322F1SNQG6,271073,271073,,,,,,,,,,
,,,,3,16.89993,0,22,22,849,1,a red public restroom with a window at the reflecting in a wall mirror,a red public restroom with thre sinks and a chair infront of a wall mirror.,wolfe2,091_L_airfreshener,4,57,A2A6FH0F7LD9ND,2021-01-24_18h37.59.853,MetaAwareness,2020.1.2,Win32,60,3YZ7A3YHR6WZYUVMAUTH6MV33UO5SS,A2A6FH0F7LD9ND,3HFNH7HEMIHONV3NPOS5322F1SNQG6,EHFH3,EHFH3,3HFNH7HEMIHONV3NPOS5322F1SNQG6,3HFNH7HEMIHONV3NPOS5322F1SNQG6,271073,271073,,,,,,,,,,
,,,,5,6.384285,0,23,23,736,1,a white kitchen with white bowls and plates on every shelf,a white kitchen with white bowls and plates on all but one shelf,wolfe2,079_R_bowl,3,57,A2A6FH0F7LD9ND,2021-01-24_18h37.59.853,MetaAwareness,2020.1.2,Win32,60,3YZ7A3YHR6WZYUVMAUTH6MV33UO5SS,A2A6FH0F7LD9ND,3HFNH7HEMIHONV3NPOS5322F1SNQG6,EHFH3,EHFH3,3HFNH7HEMIHONV3NPOS5322F1SNQG6,3HFNH7HEMIHONV3NPOS5322F1SNQG6,271073,271073,,,,,,,,,,
,,,,5,7.95803,0,24,24,648,1,a very elegant and modern living room of a big house,a very elegant and modern living room with 3 floating lights on the wall,wolfe2,070_R_lamp,3,57,A2A6FH0F7LD9ND,2021-01-24_18h37.59.853,MetaAwareness,2020.1.2,Win32,60,3YZ7A3YHR6WZYUVMAUTH6MV33UO5SS,A2A6FH0F7LD9ND,3HFNH7HEMIHONV3NPOS5322F1SNQG6,EHFH3,EHFH3,3HFNH7HEMIHONV3NPOS5322F1SNQG6,3HFNH7HEMIHONV3NPOS5322F1SNQG6,271073,271073,,,,,,,,,,
,,,,4,7.99175,0,25,25,1129,1,an indoor jacuzzi surrounded by plants and a pot to the right of it,an indoor jacuzzi surrounded by plants but only to the left of it,wolfe2,123_R_pot,3,57,A2A6FH0F7LD9ND,2021-01-24_18h37.59.853,MetaAwareness,2020.1.2,Win32,60,3YZ7A3YHR6WZYUVMAUTH6MV33UO5SS,A2A6FH0F7LD9ND,3HFNH7HEMIHONV3NPOS5322F1SNQG6,EHFH3,EHFH3,3HFNH7HEMIHONV3NPOS5322F1SNQG6,3HFNH7HEMIHONV3NPOS5322F1SNQG6,271073,271073,,,,,,,,,,
,,,,5,6.777755,0,26,26,229,1,a sink and counter in a room.,a sink and counter in a room with handtowels add the the bottom shelf.num_enter,wolfe2,024_R_towels,1,57,A2A6FH0F7LD9ND,2021-01-24_18h37.59.853,MetaAwareness,2020.1.2,Win32,60,3YZ7A3YHR6WZYUVMAUTH6MV33UO5SS,A2A6FH0F7LD9ND,3HFNH7HEMIHONV3NPOS5322F1SNQG6,EHFH3,EHFH3,3HFNH7HEMIHONV3NPOS5322F1SNQG6,3HFNH7HEMIHONV3NPOS5322F1SNQG6,271073,271073,,,,,,,,,,
,,,,6,12.192725,0,27,27,409,1,a modern bathroom with a large shower and bath with lower lights in the shower,a modern bathroom with a large shower and bath with lower lights in the shower and bath,wolfe2,044_R_light,1,57,A2A6FH0F7LD9ND,2021-01-24_18h37.59.853,MetaAwareness,2020.1.2,Win32,60,3YZ7A3YHR6WZYUVMAUTH6MV33UO5SS,A2A6FH0F7LD9ND,3HFNH7HEMIHONV3NPOS5322F1SNQG6,EHFH3,EHFH3,3HFNH7HEMIHONV3NPOS5322F1SNQG6,3HFNH7HEMIHONV3NPOS5322F1SNQG6,271073,271073,,,,,,,,,,
,,,,4,30.699675,0,28,28,349,1,this dining room is cozy and has a nice little table as well as plenty of natural light.,"this dining room has a lovely view of the outside, as well as a small but comfortable looking table set. on the wall there is a quaint looking piece of art that almost looks like a puzzle piece.",wolfe2,038_L_art,2,57,A2A6FH0F7LD9ND,2021-01-24_18h37.59.853,MetaAwareness,2020.1.2,Win32,60,3YZ7A3YHR6WZYUVMAUTH6MV33UO5SS,A2A6FH0F7LD9ND,3HFNH7HEMIHONV3NPOS5322F1SNQG6,EHFH3,EHFH3,3HFNH7HEMIHONV3NPOS5322F1SNQG6,3HFNH7HEMIHONV3NPOS5322F1SNQG6,271073,271073,,,,,,,,,,
,,,,5,9.768125,0,29,29,122,1,there are table and chairs at the office kitchen with one lamp hang on the top of ceiling,there are table and chairs at the office kitchen with two lamps hang on the top of ceiling,wolfe2,013_L_lamp,7,57,A2A6FH0F7LD9ND,2021-01-24_18h37.59.853,MetaAwareness,2020.1.2,Win32,60,3YZ7A3YHR6WZYUVMAUTH6MV33UO5SS,A2A6FH0F7LD9ND,3HFNH7HEMIHONV3NPOS5322F1SNQG6,EHFH3,EHFH3,3HFNH7HEMIHONV3NPOS5322F1SNQG6,3HFNH7HEMIHONV3NPOS5322F1SNQG6,271073,271073,,,,,,,,,,
,,,,,,,,,,,,,,,,57,A2A6FH0F7LD9ND,2021-01-24_18h37.59.853,MetaAwareness,2020.1.2,Win32,60,3YZ7A3YHR6WZYUVMAUTH6MV33UO5SS,A2A6FH0F7LD9ND,3HFNH7HEMIHONV3NPOS5322F1SNQG6,EHFH3,EHFH3,3HFNH7HEMIHONV3NPOS5322F1SNQG6,3HFNH7HEMIHONV3NPOS5322F1SNQG6,271073,271073,6,9.4566,someone laying underneath a blue beach umbrella on a crowded beach,someone laying underneath a blue beach umbrella on a crowded beach,same,1,6.6679,members of a marching band crossing a track that all have feather plumes at the front of their hats,a cluttered and rustic looking cafe with 10 hanging lights,different
