consent_response.keys,consent_response.rt,key_resp_2.keys,key_resp_2.rt,user_resp.keys,user_resp.rt,trials.thisRepN,trials.thisTrialN,trials.thisN,trials.thisIndex,trials.ran,image_1_text,image_2_text,database,image,number,age,worker_ID,date,expName,psychopyVersion,OS,frameRate,hitId,workerId,assignmentId,a,tp_a,b,tp_b,c,tp_c,catch_same_resp.keys,catch_same_resp.rt,image_1_text_catch_same,image_2_text_catch_same,image_catch_same,catch_different_resp.keys,catch_different_resp.rt,image_1_text_catch_different,image_2_text_catch_different,image_catch_different
space,25.56975,space,18.81015,2,34.568115,0,0,0,1000,1,it is a picture of a closet and there is a dresser inside the closet with a blue item on top of the dresser.,"it is a picture of a closet and there is a dresser inside the closet with several items on top, but no blue items.",wolfe2,108_R_boa,4,51,A2O5Z1YZDTNNXT,2021-01-24_21h21.50.194,MetaAwareness,2020.1.2,Win32,60,3BA7SXOG1KT6KXEBT30FSW0YJI8R8U,A2O5Z1YZDTNNXT,3UOUJI6MTEHR1A5UV7CE1PZZ74YUXI,MJOU3,MJOU3,3UOUJI6MTEHR1A5UV7CE1PZZ74YUXI,3UOUJI6MTEHR1A5UV7CE1PZZ74YUXI,271073,271073,,,,,,,,,,
,,,,5,20.481115,0,1,1,742,1,a kitche with white cabintry and wooden countertops that have one plant on the far left next to a shelf.,a kitchen with white cabentry and wooden countertops that have two plants on the far left next to a shelf.,wolfe2,080_R_plant,1,51,A2O5Z1YZDTNNXT,2021-01-24_21h21.50.194,MetaAwareness,2020.1.2,Win32,60,3BA7SXOG1KT6KXEBT30FSW0YJI8R8U,A2O5Z1YZDTNNXT,3UOUJI6MTEHR1A5UV7CE1PZZ74YUXI,MJOU3,MJOU3,3UOUJI6MTEHR1A5UV7CE1PZZ74YUXI,3UOUJI6MTEHR1A5UV7CE1PZZ74YUXI,271073,271073,,,,,,,,,,
,,,,6,13.605295,0,2,2,523,1,a library with several bookcases and the second bookcase on the left has no waste basket on the side of it,a library with several bookcases and the second bookcase on the left has a waste basket to the side of it,wolfe2,057_L_bin,1,51,A2O5Z1YZDTNNXT,2021-01-24_21h21.50.194,MetaAwareness,2020.1.2,Win32,60,3BA7SXOG1KT6KXEBT30FSW0YJI8R8U,A2O5Z1YZDTNNXT,3UOUJI6MTEHR1A5UV7CE1PZZ74YUXI,MJOU3,MJOU3,3UOUJI6MTEHR1A5UV7CE1PZZ74YUXI,3UOUJI6MTEHR1A5UV7CE1PZZ74YUXI,271073,271073,,,,,,,,,,
,,,,5,9.023785,0,3,3,527,1,a well lit library with two metal trash bins.,a well lit library with three trash bins.,wolfe2,057_L_bin,5,51,A2O5Z1YZDTNNXT,2021-01-24_21h21.50.194,MetaAwareness,2020.1.2,Win32,60,3BA7SXOG1KT6KXEBT30FSW0YJI8R8U,A2O5Z1YZDTNNXT,3UOUJI6MTEHR1A5UV7CE1PZZ74YUXI,MJOU3,MJOU3,3UOUJI6MTEHR1A5UV7CE1PZZ74YUXI,3UOUJI6MTEHR1A5UV7CE1PZZ74YUXI,271073,271073,,,,,,,,,,
,,,,3,11.771105,0,4,4,518,1,a modern bedroom without a blanket on the couch,a modern bedroom with a blanket folded up and sitting on the couch,wolfe2,056_R_comforter,3,51,A2O5Z1YZDTNNXT,2021-01-24_21h21.50.194,MetaAwareness,2020.1.2,Win32,60,3BA7SXOG1KT6KXEBT30FSW0YJI8R8U,A2O5Z1YZDTNNXT,3UOUJI6MTEHR1A5UV7CE1PZZ74YUXI,MJOU3,MJOU3,3UOUJI6MTEHR1A5UV7CE1PZZ74YUXI,3UOUJI6MTEHR1A5UV7CE1PZZ74YUXI,271073,271073,,,,,,,,,,
,,,,5,26.664555,0,5,5,52,1,the bed has a palm tree behind it. there is a white rug under the bed. next to the bed on the right is a lamp sitting on a table.,the bed has a palm tree behind it. there is a white rug under the bed. next to the bed on the right side is a lamp and a puple vase.,wolfe2,006_R_vase,2,51,A2O5Z1YZDTNNXT,2021-01-24_21h21.50.194,MetaAwareness,2020.1.2,Win32,60,3BA7SXOG1KT6KXEBT30FSW0YJI8R8U,A2O5Z1YZDTNNXT,3UOUJI6MTEHR1A5UV7CE1PZZ74YUXI,MJOU3,MJOU3,3UOUJI6MTEHR1A5UV7CE1PZZ74YUXI,3UOUJI6MTEHR1A5UV7CE1PZZ74YUXI,271073,271073,,,,,,,,,,
,,,,3,15.752585,0,6,6,667,1,"a bedroom with a bed, night stand, chair and dresser with a missing handle","a bedroom with a bed, night stand, chair and dresser",wolfe2,072_R_handle,4,51,A2O5Z1YZDTNNXT,2021-01-24_21h21.50.194,MetaAwareness,2020.1.2,Win32,60,3BA7SXOG1KT6KXEBT30FSW0YJI8R8U,A2O5Z1YZDTNNXT,3UOUJI6MTEHR1A5UV7CE1PZZ74YUXI,MJOU3,MJOU3,3UOUJI6MTEHR1A5UV7CE1PZZ74YUXI,3UOUJI6MTEHR1A5UV7CE1PZZ74YUXI,271073,271073,,,,,,,,,,
,,,,4,12.620945,0,7,7,261,1,a fully furnished bathroom with beautiful pictures on the walls,a fully furnished bathroom with beautiful pictures on the wall with a missing glass on the right of sink,wolfe2,028_L_vase,5,51,A2O5Z1YZDTNNXT,2021-01-24_21h21.50.194,MetaAwareness,2020.1.2,Win32,60,3BA7SXOG1KT6KXEBT30FSW0YJI8R8U,A2O5Z1YZDTNNXT,3UOUJI6MTEHR1A5UV7CE1PZZ74YUXI,MJOU3,MJOU3,3UOUJI6MTEHR1A5UV7CE1PZZ74YUXI,3UOUJI6MTEHR1A5UV7CE1PZZ74YUXI,271073,271073,,,,,,,,,,
,,,,5,7.27522,0,8,8,203,1,a dinning table with chair.  fruit and vegetable present on the table only two light is hanging,"a dinninig table with chair,  fruit and vegetables present on the table.  three light are hanging.",wolfe2,022_L_lamp,2,51,A2O5Z1YZDTNNXT,2021-01-24_21h21.50.194,MetaAwareness,2020.1.2,Win32,60,3BA7SXOG1KT6KXEBT30FSW0YJI8R8U,A2O5Z1YZDTNNXT,3UOUJI6MTEHR1A5UV7CE1PZZ74YUXI,MJOU3,MJOU3,3UOUJI6MTEHR1A5UV7CE1PZZ74YUXI,3UOUJI6MTEHR1A5UV7CE1PZZ74YUXI,271073,271073,,,,,,,,,,
,,,,6,6.683815,0,9,9,1072,1,a clean traditional living room with a plant on a small table by the door leading outside,a clean traditional living room with nothing on the table by the door leading outside,wolfe2,117_R_plant_sized,1,51,A2O5Z1YZDTNNXT,2021-01-24_21h21.50.194,MetaAwareness,2020.1.2,Win32,60,3BA7SXOG1KT6KXEBT30FSW0YJI8R8U,A2O5Z1YZDTNNXT,3UOUJI6MTEHR1A5UV7CE1PZZ74YUXI,MJOU3,MJOU3,3UOUJI6MTEHR1A5UV7CE1PZZ74YUXI,3UOUJI6MTEHR1A5UV7CE1PZZ74YUXI,271073,271073,,,,,,,,,,
,,,,5,10.068205,0,10,10,62,1,a bathroom that has a large mirror and doubles sinks with an area for soap to be held,a bathroom that has a large mirror and doubles sinks with an an area for soap to be held containing a bar of soap.,wolfe2,007_R_soap,1,51,A2O5Z1YZDTNNXT,2021-01-24_21h21.50.194,MetaAwareness,2020.1.2,Win32,60,3BA7SXOG1KT6KXEBT30FSW0YJI8R8U,A2O5Z1YZDTNNXT,3UOUJI6MTEHR1A5UV7CE1PZZ74YUXI,MJOU3,MJOU3,3UOUJI6MTEHR1A5UV7CE1PZZ74YUXI,3UOUJI6MTEHR1A5UV7CE1PZZ74YUXI,271073,271073,,,,,,,,,,
,,,,4,9.44625,0,11,11,463,1,an oldern looking living with a white fireplace,a feminine looking living room with a glass jar sitting above a fireplace,wolfe2,051_L_owl,1,51,A2O5Z1YZDTNNXT,2021-01-24_21h21.50.194,MetaAwareness,2020.1.2,Win32,60,3BA7SXOG1KT6KXEBT30FSW0YJI8R8U,A2O5Z1YZDTNNXT,3UOUJI6MTEHR1A5UV7CE1PZZ74YUXI,MJOU3,MJOU3,3UOUJI6MTEHR1A5UV7CE1PZZ74YUXI,3UOUJI6MTEHR1A5UV7CE1PZZ74YUXI,271073,271073,,,,,,,,,,
,,,,5,10.732335,0,12,12,198,1,an office space with a possible touch screen computer,an office space with a computer and keyboard,wolfe2,021_R_keyboard,2,51,A2O5Z1YZDTNNXT,2021-01-24_21h21.50.194,MetaAwareness,2020.1.2,Win32,60,3BA7SXOG1KT6KXEBT30FSW0YJI8R8U,A2O5Z1YZDTNNXT,3UOUJI6MTEHR1A5UV7CE1PZZ74YUXI,MJOU3,MJOU3,3UOUJI6MTEHR1A5UV7CE1PZZ74YUXI,3UOUJI6MTEHR1A5UV7CE1PZZ74YUXI,271073,271073,,,,,,,,,,
,,,,6,10.328775,0,13,13,336,1,a red kitchen with tiled floor with one bowl on a shelf underneath a cabinet door,a red kitchen with tiled floor with two bowls on a shelf underneath a cabinet door,wolfe2,036_R_bowl,3,51,A2O5Z1YZDTNNXT,2021-01-24_21h21.50.194,MetaAwareness,2020.1.2,Win32,60,3BA7SXOG1KT6KXEBT30FSW0YJI8R8U,A2O5Z1YZDTNNXT,3UOUJI6MTEHR1A5UV7CE1PZZ74YUXI,MJOU3,MJOU3,3UOUJI6MTEHR1A5UV7CE1PZZ74YUXI,3UOUJI6MTEHR1A5UV7CE1PZZ74YUXI,271073,271073,,,,,,,,,,
,,,,5,11.90221,0,14,14,447,1,a bed room with hot and night lamp.  there is no photo in the box,a bed room with hot and night lamp.  there is a photo in the box,wolfe2,049_L_painting,1,51,A2O5Z1YZDTNNXT,2021-01-24_21h21.50.194,MetaAwareness,2020.1.2,Win32,60,3BA7SXOG1KT6KXEBT30FSW0YJI8R8U,A2O5Z1YZDTNNXT,3UOUJI6MTEHR1A5UV7CE1PZZ74YUXI,MJOU3,MJOU3,3UOUJI6MTEHR1A5UV7CE1PZZ74YUXI,3UOUJI6MTEHR1A5UV7CE1PZZ74YUXI,271073,271073,,,,,,,,,,
,,,,5,10.016605,0,15,15,453,1,a very nice luxurious bedroom missing a picture,a very nice luxurious bedroom with a picture added,wolfe2,049_R_painting,3,51,A2O5Z1YZDTNNXT,2021-01-24_21h21.50.194,MetaAwareness,2020.1.2,Win32,60,3BA7SXOG1KT6KXEBT30FSW0YJI8R8U,A2O5Z1YZDTNNXT,3UOUJI6MTEHR1A5UV7CE1PZZ74YUXI,MJOU3,MJOU3,3UOUJI6MTEHR1A5UV7CE1PZZ74YUXI,3UOUJI6MTEHR1A5UV7CE1PZZ74YUXI,271073,271073,,,,,,,,,,
,,,,3,8.51026,0,16,16,772,1,the top blue drawer in the bedroom is missing a knob,all the drawers in the bedroom have knobs,wolfe2,083_R_knob,2,51,A2O5Z1YZDTNNXT,2021-01-24_21h21.50.194,MetaAwareness,2020.1.2,Win32,60,3BA7SXOG1KT6KXEBT30FSW0YJI8R8U,A2O5Z1YZDTNNXT,3UOUJI6MTEHR1A5UV7CE1PZZ74YUXI,MJOU3,MJOU3,3UOUJI6MTEHR1A5UV7CE1PZZ74YUXI,3UOUJI6MTEHR1A5UV7CE1PZZ74YUXI,271073,271073,,,,,,,,,,
,,,,5,4.131615,0,17,17,418,1,no cell phone are available in the room,cell available in the room,wolfe2,045_R_musicdock,1,51,A2O5Z1YZDTNNXT,2021-01-24_21h21.50.194,MetaAwareness,2020.1.2,Win32,60,3BA7SXOG1KT6KXEBT30FSW0YJI8R8U,A2O5Z1YZDTNNXT,3UOUJI6MTEHR1A5UV7CE1PZZ74YUXI,MJOU3,MJOU3,3UOUJI6MTEHR1A5UV7CE1PZZ74YUXI,3UOUJI6MTEHR1A5UV7CE1PZZ74YUXI,271073,271073,,,,,,,,,,
,,,,4,6.448145,0,18,18,621,1,there is a bare side table in this large meeting room,there is a photograph atop a side table in this large meeting room,wolfe2,067_R_painting,2,51,A2O5Z1YZDTNNXT,2021-01-24_21h21.50.194,MetaAwareness,2020.1.2,Win32,60,3BA7SXOG1KT6KXEBT30FSW0YJI8R8U,A2O5Z1YZDTNNXT,3UOUJI6MTEHR1A5UV7CE1PZZ74YUXI,MJOU3,MJOU3,3UOUJI6MTEHR1A5UV7CE1PZZ74YUXI,3UOUJI6MTEHR1A5UV7CE1PZZ74YUXI,271073,271073,,,,,,,,,,
,,,,5,21.185935,0,19,19,922,1,a bathroom with an object on the wall next to the sink and two faucets,a bathroom with a sink with two faucets,wolfe2,100_L_mirror,3,51,A2O5Z1YZDTNNXT,2021-01-24_21h21.50.194,MetaAwareness,2020.1.2,Win32,60,3BA7SXOG1KT6KXEBT30FSW0YJI8R8U,A2O5Z1YZDTNNXT,3UOUJI6MTEHR1A5UV7CE1PZZ74YUXI,MJOU3,MJOU3,3UOUJI6MTEHR1A5UV7CE1PZZ74YUXI,3UOUJI6MTEHR1A5UV7CE1PZZ74YUXI,271073,271073,,,,,,,,,,
,,,,5,8.854305,0,20,20,374,1,a kitchen with a blue bowl on the counter,a kitchen with a blue bowl on the counter full of oranges,wolfe2,041_L_fruit,2,51,A2O5Z1YZDTNNXT,2021-01-24_21h21.50.194,MetaAwareness,2020.1.2,Win32,60,3BA7SXOG1KT6KXEBT30FSW0YJI8R8U,A2O5Z1YZDTNNXT,3UOUJI6MTEHR1A5UV7CE1PZZ74YUXI,MJOU3,MJOU3,3UOUJI6MTEHR1A5UV7CE1PZZ74YUXI,3UOUJI6MTEHR1A5UV7CE1PZZ74YUXI,271073,271073,,,,,,,,,,
,,,,4,3.734515,0,21,21,1117,1,"a large waiting room with green carpet, green chairs, and large windows","a large waiting room with green carpet, green chairs, large windows, and brown cafeteria-type chairs",wolfe2,122_R_chair,1,51,A2O5Z1YZDTNNXT,2021-01-24_21h21.50.194,MetaAwareness,2020.1.2,Win32,60,3BA7SXOG1KT6KXEBT30FSW0YJI8R8U,A2O5Z1YZDTNNXT,3UOUJI6MTEHR1A5UV7CE1PZZ74YUXI,MJOU3,MJOU3,3UOUJI6MTEHR1A5UV7CE1PZZ74YUXI,3UOUJI6MTEHR1A5UV7CE1PZZ74YUXI,271073,271073,,,,,,,,,,
,,,,2,4.02682,0,22,22,442,1,"a quaint looking bedroom with a chaise lounger, a comfy looking bed, and a nice large mirror.","this bedroom has a lovely chaise lounger, a comfy looking bed, a large mirror, a beautiful vase display with one vase balancing on top of another.",wolfe2,048_L_art,4,51,A2O5Z1YZDTNNXT,2021-01-24_21h21.50.194,MetaAwareness,2020.1.2,Win32,60,3BA7SXOG1KT6KXEBT30FSW0YJI8R8U,A2O5Z1YZDTNNXT,3UOUJI6MTEHR1A5UV7CE1PZZ74YUXI,MJOU3,MJOU3,3UOUJI6MTEHR1A5UV7CE1PZZ74YUXI,3UOUJI6MTEHR1A5UV7CE1PZZ74YUXI,271073,271073,,,,,,,,,,
,,,,1,11.189185,0,23,23,329,1,a table in a bedroom with nothing on it,plastic fruit on a table in a bedroom,wolfe2,035_R_fruit,3,51,A2O5Z1YZDTNNXT,2021-01-24_21h21.50.194,MetaAwareness,2020.1.2,Win32,60,3BA7SXOG1KT6KXEBT30FSW0YJI8R8U,A2O5Z1YZDTNNXT,3UOUJI6MTEHR1A5UV7CE1PZZ74YUXI,MJOU3,MJOU3,3UOUJI6MTEHR1A5UV7CE1PZZ74YUXI,3UOUJI6MTEHR1A5UV7CE1PZZ74YUXI,271073,271073,,,,,,,,,,
,,,,3,4.97363,0,24,24,948,1,design tiles on the kitchen,the tiles has been missing on kitchen,wolfe2,103_R_hook,1,51,A2O5Z1YZDTNNXT,2021-01-24_21h21.50.194,MetaAwareness,2020.1.2,Win32,60,3BA7SXOG1KT6KXEBT30FSW0YJI8R8U,A2O5Z1YZDTNNXT,3UOUJI6MTEHR1A5UV7CE1PZZ74YUXI,MJOU3,MJOU3,3UOUJI6MTEHR1A5UV7CE1PZZ74YUXI,3UOUJI6MTEHR1A5UV7CE1PZZ74YUXI,271073,271073,,,,,,,,,,
,,,,4,4.89112,0,25,25,419,1,a modern bedroom with an empty nightstand,a modern bedroom with a phone on the nightstand,wolfe2,045_R_musicdock,2,51,A2O5Z1YZDTNNXT,2021-01-24_21h21.50.194,MetaAwareness,2020.1.2,Win32,60,3BA7SXOG1KT6KXEBT30FSW0YJI8R8U,A2O5Z1YZDTNNXT,3UOUJI6MTEHR1A5UV7CE1PZZ74YUXI,MJOU3,MJOU3,3UOUJI6MTEHR1A5UV7CE1PZZ74YUXI,3UOUJI6MTEHR1A5UV7CE1PZZ74YUXI,271073,271073,,,,,,,,,,
,,,,1,4.64368,0,26,26,761,1,the shelf is vacant,there is some type of bowl on the shelf,wolfe2,082_R_bowl,4,51,A2O5Z1YZDTNNXT,2021-01-24_21h21.50.194,MetaAwareness,2020.1.2,Win32,60,3BA7SXOG1KT6KXEBT30FSW0YJI8R8U,A2O5Z1YZDTNNXT,3UOUJI6MTEHR1A5UV7CE1PZZ74YUXI,MJOU3,MJOU3,3UOUJI6MTEHR1A5UV7CE1PZZ74YUXI,3UOUJI6MTEHR1A5UV7CE1PZZ74YUXI,271073,271073,,,,,,,,,,
,,,,6,5.805,0,27,27,598,1,a cozy room with a desk and small bed with a shelf above the desk that has an open space for more items,a cozy room with a desk and small bed with a shelf above the desk that has no open space for more items,wolfe2,065_L_cd,4,51,A2O5Z1YZDTNNXT,2021-01-24_21h21.50.194,MetaAwareness,2020.1.2,Win32,60,3BA7SXOG1KT6KXEBT30FSW0YJI8R8U,A2O5Z1YZDTNNXT,3UOUJI6MTEHR1A5UV7CE1PZZ74YUXI,MJOU3,MJOU3,3UOUJI6MTEHR1A5UV7CE1PZZ74YUXI,3UOUJI6MTEHR1A5UV7CE1PZZ74YUXI,271073,271073,,,,,,,,,,
,,,,4,4.9551,0,28,28,309,1,there is a brass candleholder on the black shelf.  the living room has a cream colored leather couch.,there is a glass vase next to the brass candleholder on the black shelf that houses books and knick knacks,wolfe2,033_R_vase,3,51,A2O5Z1YZDTNNXT,2021-01-24_21h21.50.194,MetaAwareness,2020.1.2,Win32,60,3BA7SXOG1KT6KXEBT30FSW0YJI8R8U,A2O5Z1YZDTNNXT,3UOUJI6MTEHR1A5UV7CE1PZZ74YUXI,MJOU3,MJOU3,3UOUJI6MTEHR1A5UV7CE1PZZ74YUXI,3UOUJI6MTEHR1A5UV7CE1PZZ74YUXI,271073,271073,,,,,,,,,,
,,,,5,5.722255,0,29,29,250,1,the bathroom is looks good and there is no soap box  in that room,the bathroom is looks good and there is a soap box in that room,wolfe2,027_L_soapdish,2,51,A2O5Z1YZDTNNXT,2021-01-24_21h21.50.194,MetaAwareness,2020.1.2,Win32,60,3BA7SXOG1KT6KXEBT30FSW0YJI8R8U,A2O5Z1YZDTNNXT,3UOUJI6MTEHR1A5UV7CE1PZZ74YUXI,MJOU3,MJOU3,3UOUJI6MTEHR1A5UV7CE1PZZ74YUXI,3UOUJI6MTEHR1A5UV7CE1PZZ74YUXI,271073,271073,,,,,,,,,,
,,,,,,,,,,,,,,,,51,A2O5Z1YZDTNNXT,2021-01-24_21h21.50.194,MetaAwareness,2020.1.2,Win32,60,3BA7SXOG1KT6KXEBT30FSW0YJI8R8U,A2O5Z1YZDTNNXT,3UOUJI6MTEHR1A5UV7CE1PZZ74YUXI,MJOU3,MJOU3,3UOUJI6MTEHR1A5UV7CE1PZZ74YUXI,3UOUJI6MTEHR1A5UV7CE1PZZ74YUXI,271073,271073,6,9.42865,someone laying underneath a blue beach umbrella on a crowded beach,someone laying underneath a blue beach umbrella on a crowded beach,same,2,5.872165,members of a marching band crossing a track that all have feather plumes at the front of their hats,a cluttered and rustic looking cafe with 10 hanging lights,different
