consent_response.keys,consent_response.rt,key_resp_2.keys,key_resp_2.rt,user_resp.keys,user_resp.rt,trials.thisRepN,trials.thisTrialN,trials.thisN,trials.thisIndex,trials.ran,image_1_text,image_2_text,database,image,number,age,worker_ID,date,expName,psychopyVersion,OS,frameRate,hitId,workerId,assignmentId,a,tp_a,b,tp_b,c,tp_c,catch_same_resp.keys,catch_same_resp.rt,image_1_text_catch_same,image_2_text_catch_same,image_catch_same,catch_different_resp.keys,catch_different_resp.rt,image_1_text_catch_different,image_2_text_catch_different,image_catch_different
space,4.180965,space,13.034685,5,10.87248,0,0,0,136,1,a commercial area with tables and chairs and three lights on the walls,a commercial area with tables and chairs and four lights on the walls,wolfe2,014_R_lamp,2,47,A34LSCB90T5KYE,2021-01-24_21h16.13.635,MetaAwareness,2020.1.2,Linux x86_64,60,3BA7SXOG1KT6KXEBT30FSW0YJI8R8U,A34LSCB90T5KYE,374TNBHA8CYO9MONJUEBA29J6PMQYF,AN473,AN473,374TNBHA8CYO9MONJUEBA29J6PMQYF,374TNBHA8CYO9MONJUEBA29J6PMQYF,271073,271073,,,,,,,,,,
,,,,4,7.76402,0,1,1,114,1,a bathroom with a big bathtub with no overflow,a bathroom with a big bathtub with an overflow,wolfe2,012_R_tubaccesory,3,47,A34LSCB90T5KYE,2021-01-24_21h16.13.635,MetaAwareness,2020.1.2,Linux x86_64,60,3BA7SXOG1KT6KXEBT30FSW0YJI8R8U,A34LSCB90T5KYE,374TNBHA8CYO9MONJUEBA29J6PMQYF,AN473,AN473,374TNBHA8CYO9MONJUEBA29J6PMQYF,374TNBHA8CYO9MONJUEBA29J6PMQYF,271073,271073,,,,,,,,,,
,,,,6,9.856185,0,2,2,671,1,white kitchen with marble countertops has plenty of space for things.,white kitchen with marble countertops has plenty of space for things.,wolfe2,073_L_coffeemug,3,47,A34LSCB90T5KYE,2021-01-24_21h16.13.635,MetaAwareness,2020.1.2,Linux x86_64,60,3BA7SXOG1KT6KXEBT30FSW0YJI8R8U,A34LSCB90T5KYE,374TNBHA8CYO9MONJUEBA29J6PMQYF,AN473,AN473,374TNBHA8CYO9MONJUEBA29J6PMQYF,374TNBHA8CYO9MONJUEBA29J6PMQYF,271073,271073,,,,,,,,,,
,,,,4,4.954405,0,3,3,434,1,a bedroom with a missing handle on a drawer,a bedroom with six handles on a drawer,wolfe2,047_R_handle,2,47,A34LSCB90T5KYE,2021-01-24_21h16.13.635,MetaAwareness,2020.1.2,Linux x86_64,60,3BA7SXOG1KT6KXEBT30FSW0YJI8R8U,A34LSCB90T5KYE,374TNBHA8CYO9MONJUEBA29J6PMQYF,AN473,AN473,374TNBHA8CYO9MONJUEBA29J6PMQYF,374TNBHA8CYO9MONJUEBA29J6PMQYF,271073,271073,,,,,,,,,,
,,,,2,7.24944,0,4,4,463,1,an oldern looking living with a white fireplace,a feminine looking living room with a glass jar sitting above a fireplace,wolfe2,051_L_owl,1,47,A34LSCB90T5KYE,2021-01-24_21h16.13.635,MetaAwareness,2020.1.2,Linux x86_64,60,3BA7SXOG1KT6KXEBT30FSW0YJI8R8U,A34LSCB90T5KYE,374TNBHA8CYO9MONJUEBA29J6PMQYF,AN473,AN473,374TNBHA8CYO9MONJUEBA29J6PMQYF,374TNBHA8CYO9MONJUEBA29J6PMQYF,271073,271073,,,,,,,,,,
,,,,4,6.88135,0,5,5,815,1,it is a picture of a bathroom sink with a towel hanger in between the sink and toilet.,it is a picture of a bathroom sink  and there is no towel hanger.,wolfe2,087_R_towelhandle,2,47,A34LSCB90T5KYE,2021-01-24_21h16.13.635,MetaAwareness,2020.1.2,Linux x86_64,60,3BA7SXOG1KT6KXEBT30FSW0YJI8R8U,A34LSCB90T5KYE,374TNBHA8CYO9MONJUEBA29J6PMQYF,AN473,AN473,374TNBHA8CYO9MONJUEBA29J6PMQYF,374TNBHA8CYO9MONJUEBA29J6PMQYF,271073,271073,,,,,,,,,,
,,,,5,6.421375,0,6,6,1109,1,a master bedroom with a side table that has a telephone and a lamp on it,a master bedroom with a side table that has a lamp on it,wolfe2,121_R_car,3,47,A34LSCB90T5KYE,2021-01-24_21h16.13.635,MetaAwareness,2020.1.2,Linux x86_64,60,3BA7SXOG1KT6KXEBT30FSW0YJI8R8U,A34LSCB90T5KYE,374TNBHA8CYO9MONJUEBA29J6PMQYF,AN473,AN473,374TNBHA8CYO9MONJUEBA29J6PMQYF,374TNBHA8CYO9MONJUEBA29J6PMQYF,271073,271073,,,,,,,,,,
,,,,5,9.677845,0,7,7,252,1,"a light colored tiled bathroom with double sinks, a bathtub and a glass shower with a soap dish","a light colored tiled bathroom with double sinks, a bathtub and a glass shower",wolfe2,027_L_soapdish,4,47,A34LSCB90T5KYE,2021-01-24_21h16.13.635,MetaAwareness,2020.1.2,Linux x86_64,60,3BA7SXOG1KT6KXEBT30FSW0YJI8R8U,A34LSCB90T5KYE,374TNBHA8CYO9MONJUEBA29J6PMQYF,AN473,AN473,374TNBHA8CYO9MONJUEBA29J6PMQYF,374TNBHA8CYO9MONJUEBA29J6PMQYF,271073,271073,,,,,,,,,,
,,,,3,5.681075,0,8,8,287,1,i love the room and thereis some things us missing,i love the room and there is nothing is different,wolfe2,031_L_log,3,47,A34LSCB90T5KYE,2021-01-24_21h16.13.635,MetaAwareness,2020.1.2,Linux x86_64,60,3BA7SXOG1KT6KXEBT30FSW0YJI8R8U,A34LSCB90T5KYE,374TNBHA8CYO9MONJUEBA29J6PMQYF,AN473,AN473,374TNBHA8CYO9MONJUEBA29J6PMQYF,374TNBHA8CYO9MONJUEBA29J6PMQYF,271073,271073,,,,,,,,,,
,,,,5,5.370945,0,9,9,525,1,a library with low bookcases and three metal trash cans under various study tables,a library with low bookcases and four metal trash cans under various study tables,wolfe2,057_L_bin,3,47,A34LSCB90T5KYE,2021-01-24_21h16.13.635,MetaAwareness,2020.1.2,Linux x86_64,60,3BA7SXOG1KT6KXEBT30FSW0YJI8R8U,A34LSCB90T5KYE,374TNBHA8CYO9MONJUEBA29J6PMQYF,AN473,AN473,374TNBHA8CYO9MONJUEBA29J6PMQYF,374TNBHA8CYO9MONJUEBA29J6PMQYF,271073,271073,,,,,,,,,,
,,,,5,9.246295,0,10,10,109,1,in a bedroom there is a white bathtub with smooth sides under a window,in a bedroom there is a white bathtub with an object on the side of otherwise smooth sides under a window,wolfe2,012_L_tubaccesory,2,47,A34LSCB90T5KYE,2021-01-24_21h16.13.635,MetaAwareness,2020.1.2,Linux x86_64,60,3BA7SXOG1KT6KXEBT30FSW0YJI8R8U,A34LSCB90T5KYE,374TNBHA8CYO9MONJUEBA29J6PMQYF,AN473,AN473,374TNBHA8CYO9MONJUEBA29J6PMQYF,374TNBHA8CYO9MONJUEBA29J6PMQYF,271073,271073,,,,,,,,,,
,,,,5,8.52091,0,11,11,359,1,"a large sitting and dining room with the walls, ceiling, and floor all being colored white","a large sitting and dining room with the walls, ceiling, and floor all being colored white, in addition to a white air vent",wolfe2,039_L_ventilator,4,47,A34LSCB90T5KYE,2021-01-24_21h16.13.635,MetaAwareness,2020.1.2,Linux x86_64,60,3BA7SXOG1KT6KXEBT30FSW0YJI8R8U,A34LSCB90T5KYE,374TNBHA8CYO9MONJUEBA29J6PMQYF,AN473,AN473,374TNBHA8CYO9MONJUEBA29J6PMQYF,374TNBHA8CYO9MONJUEBA29J6PMQYF,271073,271073,,,,,,,,,,
,,,,5,5.647835,0,12,12,927,1,nice looking bathroom that has a makeup or detail mirror on the wall,nice looking bathroom that does not have a makeup or detail mirror,wolfe2,100_R_mirror,4,47,A34LSCB90T5KYE,2021-01-24_21h16.13.635,MetaAwareness,2020.1.2,Linux x86_64,60,3BA7SXOG1KT6KXEBT30FSW0YJI8R8U,A34LSCB90T5KYE,374TNBHA8CYO9MONJUEBA29J6PMQYF,AN473,AN473,374TNBHA8CYO9MONJUEBA29J6PMQYF,374TNBHA8CYO9MONJUEBA29J6PMQYF,271073,271073,,,,,,,,,,
,,,,5,6.264955,0,13,13,1012,1,a windowed room of a house looking to a pool with a shrub in the corner of the room,a windowed room of a house looking to a pool.,wolfe2,110_L_plant,4,47,A34LSCB90T5KYE,2021-01-24_21h16.13.635,MetaAwareness,2020.1.2,Linux x86_64,60,3BA7SXOG1KT6KXEBT30FSW0YJI8R8U,A34LSCB90T5KYE,374TNBHA8CYO9MONJUEBA29J6PMQYF,AN473,AN473,374TNBHA8CYO9MONJUEBA29J6PMQYF,374TNBHA8CYO9MONJUEBA29J6PMQYF,271073,271073,,,,,,,,,,
,,,,4,4.102295,0,14,14,306,1,a white living room with no vase on the shelf,a white living room with a glass vase on the shelf,wolfe2,033_L_vase,3,47,A34LSCB90T5KYE,2021-01-24_21h16.13.635,MetaAwareness,2020.1.2,Linux x86_64,60,3BA7SXOG1KT6KXEBT30FSW0YJI8R8U,A34LSCB90T5KYE,374TNBHA8CYO9MONJUEBA29J6PMQYF,AN473,AN473,374TNBHA8CYO9MONJUEBA29J6PMQYF,374TNBHA8CYO9MONJUEBA29J6PMQYF,271073,271073,,,,,,,,,,
,,,,5,3.59478,0,15,15,783,1,nothing is on the wall,a light is on the wall,wolfe2,084_R_light,4,47,A34LSCB90T5KYE,2021-01-24_21h16.13.635,MetaAwareness,2020.1.2,Linux x86_64,60,3BA7SXOG1KT6KXEBT30FSW0YJI8R8U,A34LSCB90T5KYE,374TNBHA8CYO9MONJUEBA29J6PMQYF,AN473,AN473,374TNBHA8CYO9MONJUEBA29J6PMQYF,374TNBHA8CYO9MONJUEBA29J6PMQYF,271073,271073,,,,,,,,,,
,,,,5,5.98392,0,16,16,261,1,a fully furnished bathroom with beautiful pictures on the walls,a fully furnished bathroom with beautiful pictures on the wall with a missing glass on the right of sink,wolfe2,028_L_vase,5,47,A34LSCB90T5KYE,2021-01-24_21h16.13.635,MetaAwareness,2020.1.2,Linux x86_64,60,3BA7SXOG1KT6KXEBT30FSW0YJI8R8U,A34LSCB90T5KYE,374TNBHA8CYO9MONJUEBA29J6PMQYF,AN473,AN473,374TNBHA8CYO9MONJUEBA29J6PMQYF,374TNBHA8CYO9MONJUEBA29J6PMQYF,271073,271073,,,,,,,,,,
,,,,5,5.66626,0,17,17,56,1,this is a nicely furnished bedroom. there is a night stand with a lamp on it.,this is a nicely furnished bedroom. there is a night stand with a lamp and an ornate jug on it,wolfe2,006_R_vase,7,47,A34LSCB90T5KYE,2021-01-24_21h16.13.635,MetaAwareness,2020.1.2,Linux x86_64,60,3BA7SXOG1KT6KXEBT30FSW0YJI8R8U,A34LSCB90T5KYE,374TNBHA8CYO9MONJUEBA29J6PMQYF,AN473,AN473,374TNBHA8CYO9MONJUEBA29J6PMQYF,374TNBHA8CYO9MONJUEBA29J6PMQYF,271073,271073,,,,,,,,,,
,,,,3,5.754425,0,18,18,925,1,a bathroom with a mirror mounted on the ight of the walla,a small mirror with a towl rack to the right of the wall,wolfe2,100_R_mirror,2,47,A34LSCB90T5KYE,2021-01-24_21h16.13.635,MetaAwareness,2020.1.2,Linux x86_64,60,3BA7SXOG1KT6KXEBT30FSW0YJI8R8U,A34LSCB90T5KYE,374TNBHA8CYO9MONJUEBA29J6PMQYF,AN473,AN473,374TNBHA8CYO9MONJUEBA29J6PMQYF,374TNBHA8CYO9MONJUEBA29J6PMQYF,271073,271073,,,,,,,,,,
,,,,5,5.08219,0,19,19,1072,1,a clean traditional living room with a plant on a small table by the door leading outside,a clean traditional living room with nothing on the table by the door leading outside,wolfe2,117_R_plant_sized,1,47,A34LSCB90T5KYE,2021-01-24_21h16.13.635,MetaAwareness,2020.1.2,Linux x86_64,60,3BA7SXOG1KT6KXEBT30FSW0YJI8R8U,A34LSCB90T5KYE,374TNBHA8CYO9MONJUEBA29J6PMQYF,AN473,AN473,374TNBHA8CYO9MONJUEBA29J6PMQYF,374TNBHA8CYO9MONJUEBA29J6PMQYF,271073,271073,,,,,,,,,,
,,,,5,5.795155,0,20,20,811,1,a cluttered bathroom counter with an empty towel holder on the wall,a cluttered bathroom counter with no empty towel holders on the wall,wolfe2,087_L_towelhandle,2,47,A34LSCB90T5KYE,2021-01-24_21h16.13.635,MetaAwareness,2020.1.2,Linux x86_64,60,3BA7SXOG1KT6KXEBT30FSW0YJI8R8U,A34LSCB90T5KYE,374TNBHA8CYO9MONJUEBA29J6PMQYF,AN473,AN473,374TNBHA8CYO9MONJUEBA29J6PMQYF,374TNBHA8CYO9MONJUEBA29J6PMQYF,271073,271073,,,,,,,,,,
,,,,4,5.748245,0,21,21,403,1,a living room with a nothing inside a case on the wall,a living room with an object inside a cabinet,wolfe2,043_R_clock,6,47,A34LSCB90T5KYE,2021-01-24_21h16.13.635,MetaAwareness,2020.1.2,Linux x86_64,60,3BA7SXOG1KT6KXEBT30FSW0YJI8R8U,A34LSCB90T5KYE,374TNBHA8CYO9MONJUEBA29J6PMQYF,AN473,AN473,374TNBHA8CYO9MONJUEBA29J6PMQYF,374TNBHA8CYO9MONJUEBA29J6PMQYF,271073,271073,,,,,,,,,,
,,,,5,5.600595,0,22,22,1067,1,a dining room with a potted plant on the floor and a metal milk can sitting next to it.,a dining room with a potted plant on the floor and nothing sitting next to it.,wolfe2,116_R_basket,5,47,A34LSCB90T5KYE,2021-01-24_21h16.13.635,MetaAwareness,2020.1.2,Linux x86_64,60,3BA7SXOG1KT6KXEBT30FSW0YJI8R8U,A34LSCB90T5KYE,374TNBHA8CYO9MONJUEBA29J6PMQYF,AN473,AN473,374TNBHA8CYO9MONJUEBA29J6PMQYF,374TNBHA8CYO9MONJUEBA29J6PMQYF,271073,271073,,,,,,,,,,
,,,,4,5.362,0,23,23,1092,1,a living room space with wall frame portrait,a living room space with no wall frame,wolfe2,119_R_painting,3,47,A34LSCB90T5KYE,2021-01-24_21h16.13.635,MetaAwareness,2020.1.2,Linux x86_64,60,3BA7SXOG1KT6KXEBT30FSW0YJI8R8U,A34LSCB90T5KYE,374TNBHA8CYO9MONJUEBA29J6PMQYF,AN473,AN473,374TNBHA8CYO9MONJUEBA29J6PMQYF,374TNBHA8CYO9MONJUEBA29J6PMQYF,271073,271073,,,,,,,,,,
,,,,5,4.767875,0,24,24,416,1,hotel room with yellow accent furniture,hotel room with yellow accent furniture. there is an ipod charger and speaker on the nightstand,wolfe2,045_L_musicdock,4,47,A34LSCB90T5KYE,2021-01-24_21h16.13.635,MetaAwareness,2020.1.2,Linux x86_64,60,3BA7SXOG1KT6KXEBT30FSW0YJI8R8U,A34LSCB90T5KYE,374TNBHA8CYO9MONJUEBA29J6PMQYF,AN473,AN473,374TNBHA8CYO9MONJUEBA29J6PMQYF,374TNBHA8CYO9MONJUEBA29J6PMQYF,271073,271073,,,,,,,,,,
,,,,5,6.02544,0,25,25,729,1,in this bathroom there is a vanity with an assortment of soaps but one is missing.,in this bathroom there is a vanity with a well balanced assortment of soaps.,wolfe2,078_R_faucet,5,47,A34LSCB90T5KYE,2021-01-24_21h16.13.635,MetaAwareness,2020.1.2,Linux x86_64,60,3BA7SXOG1KT6KXEBT30FSW0YJI8R8U,A34LSCB90T5KYE,374TNBHA8CYO9MONJUEBA29J6PMQYF,AN473,AN473,374TNBHA8CYO9MONJUEBA29J6PMQYF,374TNBHA8CYO9MONJUEBA29J6PMQYF,271073,271073,,,,,,,,,,
,,,,3,5.20185,0,26,26,329,1,a table in a bedroom with nothing on it,plastic fruit on a table in a bedroom,wolfe2,035_R_fruit,3,47,A34LSCB90T5KYE,2021-01-24_21h16.13.635,MetaAwareness,2020.1.2,Linux x86_64,60,3BA7SXOG1KT6KXEBT30FSW0YJI8R8U,A34LSCB90T5KYE,374TNBHA8CYO9MONJUEBA29J6PMQYF,AN473,AN473,374TNBHA8CYO9MONJUEBA29J6PMQYF,374TNBHA8CYO9MONJUEBA29J6PMQYF,271073,271073,,,,,,,,,,
,,,,4,5.24841,0,27,27,501,1,"a bed room, several thinks in cupboard , no things in the box","a bed room,several things in cupboared, a blue colr pillow inside the box",wolfe2,055_L_carpet,1,47,A34LSCB90T5KYE,2021-01-24_21h16.13.635,MetaAwareness,2020.1.2,Linux x86_64,60,3BA7SXOG1KT6KXEBT30FSW0YJI8R8U,A34LSCB90T5KYE,374TNBHA8CYO9MONJUEBA29J6PMQYF,AN473,AN473,374TNBHA8CYO9MONJUEBA29J6PMQYF,374TNBHA8CYO9MONJUEBA29J6PMQYF,271073,271073,,,,,,,,,,
,,,,4,4.9113,0,28,28,862,1,two beds with yellow sheets and a small gold box on the wall between the beds,two beds with yellow sheets and nothing on the wall in between the beds,wolfe2,093_L_switch,1,47,A34LSCB90T5KYE,2021-01-24_21h16.13.635,MetaAwareness,2020.1.2,Linux x86_64,60,3BA7SXOG1KT6KXEBT30FSW0YJI8R8U,A34LSCB90T5KYE,374TNBHA8CYO9MONJUEBA29J6PMQYF,AN473,AN473,374TNBHA8CYO9MONJUEBA29J6PMQYF,374TNBHA8CYO9MONJUEBA29J6PMQYF,271073,271073,,,,,,,,,,
,,,,2,3.09248,0,29,29,776,1,it contains an empty wal,it contains a frame,wolfe2,084_L_light,2,47,A34LSCB90T5KYE,2021-01-24_21h16.13.635,MetaAwareness,2020.1.2,Linux x86_64,60,3BA7SXOG1KT6KXEBT30FSW0YJI8R8U,A34LSCB90T5KYE,374TNBHA8CYO9MONJUEBA29J6PMQYF,AN473,AN473,374TNBHA8CYO9MONJUEBA29J6PMQYF,374TNBHA8CYO9MONJUEBA29J6PMQYF,271073,271073,,,,,,,,,,
,,,,,,,,,,,,,,,,47,A34LSCB90T5KYE,2021-01-24_21h16.13.635,MetaAwareness,2020.1.2,Linux x86_64,60,3BA7SXOG1KT6KXEBT30FSW0YJI8R8U,A34LSCB90T5KYE,374TNBHA8CYO9MONJUEBA29J6PMQYF,AN473,AN473,374TNBHA8CYO9MONJUEBA29J6PMQYF,374TNBHA8CYO9MONJUEBA29J6PMQYF,271073,271073,6,6.018135,someone laying underneath a blue beach umbrella on a crowded beach,someone laying underneath a blue beach umbrella on a crowded beach,same,1,4.60312,members of a marching band crossing a track that all have feather plumes at the front of their hats,a cluttered and rustic looking cafe with 10 hanging lights,different
