consent_response.keys,consent_response.rt,key_resp_2.keys,key_resp_2.rt,user_resp.keys,user_resp.rt,trials.thisRepN,trials.thisTrialN,trials.thisN,trials.thisIndex,trials.ran,image_1_text,image_2_text,database,image,number,age,worker_ID,date,expName,psychopyVersion,OS,frameRate,hitId,workerId,assignmentId,a,tp_a,b,tp_b,c,tp_c,catch_same_resp.keys,catch_same_resp.rt,image_1_text_catch_same,image_2_text_catch_same,image_catch_same,catch_different_resp.keys,catch_different_resp.rt,image_1_text_catch_different,image_2_text_catch_different,image_catch_different
space,17.98188,space,21.544035,4,22.78974,0,0,0,995,1,a walk in closet with a white dresser that has a blue figurine and other various objects on top of it.,a walk in closet with a white dresser that has various objects on it,wolfe2,108_L_boa,3,45,A3KIDRWRKC7RI5,2021-01-24_21h14.38.361,MetaAwareness,2020.1.2,Win32,60,3BA7SXOG1KT6KXEBT30FSW0YJI8R8U,A3KIDRWRKC7RI5,3GD6L00D3T00Y1FSFC0LF6E4P3GM1Q,DLDG3,DLDG3,3GD6L00D3T00Y1FSFC0LF6E4P3GM1Q,3GD6L00D3T00Y1FSFC0LF6E4P3GM1Q,271073,271073,,,,,,,,,,
,,,,3,14.544485,0,1,1,95,1,in a well designed bedroom a set of candlesticks appears.one candle is missing.,a set of candlesticks appears on the side table of a bedroom.,wolfe2,010_R_candle,4,45,A3KIDRWRKC7RI5,2021-01-24_21h14.38.361,MetaAwareness,2020.1.2,Win32,60,3BA7SXOG1KT6KXEBT30FSW0YJI8R8U,A3KIDRWRKC7RI5,3GD6L00D3T00Y1FSFC0LF6E4P3GM1Q,DLDG3,DLDG3,3GD6L00D3T00Y1FSFC0LF6E4P3GM1Q,3GD6L00D3T00Y1FSFC0LF6E4P3GM1Q,271073,271073,,,,,,,,,,
,,,,5,21.885195,0,2,2,874,1,a fireplace with a mirror in front of it with 3 tea lights on the corner of the hearth,a fireplace with a mirror in front of it with 2 tea lights on the corner of the hearth,wolfe2,095_L_candle,2,45,A3KIDRWRKC7RI5,2021-01-24_21h14.38.361,MetaAwareness,2020.1.2,Win32,60,3BA7SXOG1KT6KXEBT30FSW0YJI8R8U,A3KIDRWRKC7RI5,3GD6L00D3T00Y1FSFC0LF6E4P3GM1Q,DLDG3,DLDG3,3GD6L00D3T00Y1FSFC0LF6E4P3GM1Q,3GD6L00D3T00Y1FSFC0LF6E4P3GM1Q,271073,271073,,,,,,,,,,
,,,,2,10.669155,0,3,3,933,1,a hotel room bathroom with wineglass decore,a hotel bathroom well light with somne of the orginal decor missing,wolfe2,101_R_cup,2,45,A3KIDRWRKC7RI5,2021-01-24_21h14.38.361,MetaAwareness,2020.1.2,Win32,60,3BA7SXOG1KT6KXEBT30FSW0YJI8R8U,A3KIDRWRKC7RI5,3GD6L00D3T00Y1FSFC0LF6E4P3GM1Q,DLDG3,DLDG3,3GD6L00D3T00Y1FSFC0LF6E4P3GM1Q,3GD6L00D3T00Y1FSFC0LF6E4P3GM1Q,271073,271073,,,,,,,,,,
,,,,3,14.63765,0,4,4,816,1,it's a modern cool toned bathroom with a large mirror and sink,"still a modern cool toned bathroom, but it's missing a wall hanger by the toilet now.",wolfe2,087_R_towelhandle,3,45,A3KIDRWRKC7RI5,2021-01-24_21h14.38.361,MetaAwareness,2020.1.2,Win32,60,3BA7SXOG1KT6KXEBT30FSW0YJI8R8U,A3KIDRWRKC7RI5,3GD6L00D3T00Y1FSFC0LF6E4P3GM1Q,DLDG3,DLDG3,3GD6L00D3T00Y1FSFC0LF6E4P3GM1Q,3GD6L00D3T00Y1FSFC0LF6E4P3GM1Q,271073,271073,,,,,,,,,,
,,,,3,14.22042,0,5,5,188,1,round design has,round design has been missing,wolfe2,020_R_walldeco,3,45,A3KIDRWRKC7RI5,2021-01-24_21h14.38.361,MetaAwareness,2020.1.2,Win32,60,3BA7SXOG1KT6KXEBT30FSW0YJI8R8U,A3KIDRWRKC7RI5,3GD6L00D3T00Y1FSFC0LF6E4P3GM1Q,DLDG3,DLDG3,3GD6L00D3T00Y1FSFC0LF6E4P3GM1Q,3GD6L00D3T00Y1FSFC0LF6E4P3GM1Q,271073,271073,,,,,,,,,,
,,,,5,13.750545,0,6,6,264,1,the bathroom has a filling bathtub with a dark sink and counter with a gray towel the the left waiting to be used.,the bathroom has a filling bathtub with a dark sink and counter with 2 gray towels to the left waiting to be used.,wolfe2,028_R_vase,3,45,A3KIDRWRKC7RI5,2021-01-24_21h14.38.361,MetaAwareness,2020.1.2,Win32,60,3BA7SXOG1KT6KXEBT30FSW0YJI8R8U,A3KIDRWRKC7RI5,3GD6L00D3T00Y1FSFC0LF6E4P3GM1Q,DLDG3,DLDG3,3GD6L00D3T00Y1FSFC0LF6E4P3GM1Q,3GD6L00D3T00Y1FSFC0LF6E4P3GM1Q,271073,271073,,,,,,,,,,
,,,,6,10.438225,0,7,7,163,1,livingroom with white furniture and fireplace,living room with white furniture and fireplace,wolfe2,017_R_wood,3,45,A3KIDRWRKC7RI5,2021-01-24_21h14.38.361,MetaAwareness,2020.1.2,Win32,60,3BA7SXOG1KT6KXEBT30FSW0YJI8R8U,A3KIDRWRKC7RI5,3GD6L00D3T00Y1FSFC0LF6E4P3GM1Q,DLDG3,DLDG3,3GD6L00D3T00Y1FSFC0LF6E4P3GM1Q,3GD6L00D3T00Y1FSFC0LF6E4P3GM1Q,271073,271073,,,,,,,,,,
,,,,5,7.814785,0,8,8,262,1,a modern looking bathroom with one cup on the counter.,a modern looking bathroom with two cups on the counter.,wolfe2,028_R_vase,1,45,A3KIDRWRKC7RI5,2021-01-24_21h14.38.361,MetaAwareness,2020.1.2,Win32,60,3BA7SXOG1KT6KXEBT30FSW0YJI8R8U,A3KIDRWRKC7RI5,3GD6L00D3T00Y1FSFC0LF6E4P3GM1Q,DLDG3,DLDG3,3GD6L00D3T00Y1FSFC0LF6E4P3GM1Q,3GD6L00D3T00Y1FSFC0LF6E4P3GM1Q,271073,271073,,,,,,,,,,
,,,,5,8.8746,0,9,9,102,1,a colorful bathroom with one soap bottle sitting next to the sink,a colorful bathroom with two soap bottles sitting next to the sink,wolfe2,011_L_parfum,3,45,A3KIDRWRKC7RI5,2021-01-24_21h14.38.361,MetaAwareness,2020.1.2,Win32,60,3BA7SXOG1KT6KXEBT30FSW0YJI8R8U,A3KIDRWRKC7RI5,3GD6L00D3T00Y1FSFC0LF6E4P3GM1Q,DLDG3,DLDG3,3GD6L00D3T00Y1FSFC0LF6E4P3GM1Q,3GD6L00D3T00Y1FSFC0LF6E4P3GM1Q,271073,271073,,,,,,,,,,
,,,,4,12.89597,0,10,10,911,1,a somewhat cluttered dining room with a mirror on the wall next to a painting .,a somewhat cluttered dining room with only a painting on the wall.,wolfe2,099_L_sconce,1,45,A3KIDRWRKC7RI5,2021-01-24_21h14.38.361,MetaAwareness,2020.1.2,Win32,60,3BA7SXOG1KT6KXEBT30FSW0YJI8R8U,A3KIDRWRKC7RI5,3GD6L00D3T00Y1FSFC0LF6E4P3GM1Q,DLDG3,DLDG3,3GD6L00D3T00Y1FSFC0LF6E4P3GM1Q,3GD6L00D3T00Y1FSFC0LF6E4P3GM1Q,271073,271073,,,,,,,,,,
,,,,1,7.60714,0,11,11,477,1,an empty wall,a speaker mounted on the wall undr a television set,wolfe2,052_L_speaker,2,45,A3KIDRWRKC7RI5,2021-01-24_21h14.38.361,MetaAwareness,2020.1.2,Win32,60,3BA7SXOG1KT6KXEBT30FSW0YJI8R8U,A3KIDRWRKC7RI5,3GD6L00D3T00Y1FSFC0LF6E4P3GM1Q,DLDG3,DLDG3,3GD6L00D3T00Y1FSFC0LF6E4P3GM1Q,3GD6L00D3T00Y1FSFC0LF6E4P3GM1Q,271073,271073,,,,,,,,,,
,,,,5,12.01984,0,12,12,507,1,"a studio apartment or dorm room furnished in red, with small rugs in red and black","a studio apartment or dorm room furnished in red, with small rugs in blue, red, and black",wolfe2,055_R_carpet,3,45,A3KIDRWRKC7RI5,2021-01-24_21h14.38.361,MetaAwareness,2020.1.2,Win32,60,3BA7SXOG1KT6KXEBT30FSW0YJI8R8U,A3KIDRWRKC7RI5,3GD6L00D3T00Y1FSFC0LF6E4P3GM1Q,DLDG3,DLDG3,3GD6L00D3T00Y1FSFC0LF6E4P3GM1Q,3GD6L00D3T00Y1FSFC0LF6E4P3GM1Q,271073,271073,,,,,,,,,,
,,,,5,7.549615,0,13,13,196,1,a modern looking office with a nice desktop mat,a modern looking office with a keyboard on a nice desktop mat.,wolfe2,021_L_keyboard,7,45,A3KIDRWRKC7RI5,2021-01-24_21h14.38.361,MetaAwareness,2020.1.2,Win32,60,3BA7SXOG1KT6KXEBT30FSW0YJI8R8U,A3KIDRWRKC7RI5,3GD6L00D3T00Y1FSFC0LF6E4P3GM1Q,DLDG3,DLDG3,3GD6L00D3T00Y1FSFC0LF6E4P3GM1Q,3GD6L00D3T00Y1FSFC0LF6E4P3GM1Q,271073,271073,,,,,,,,,,
,,,,5,19.11274,0,14,14,988,1,a very clean dressing room.  there is a rack at the end that has some clothes hanging from it,a clean dressing room with a rack at the end and there are some clothes hanging from it.,wolfe2,107_L_shirts,3,45,A3KIDRWRKC7RI5,2021-01-24_21h14.38.361,MetaAwareness,2020.1.2,Win32,60,3BA7SXOG1KT6KXEBT30FSW0YJI8R8U,A3KIDRWRKC7RI5,3GD6L00D3T00Y1FSFC0LF6E4P3GM1Q,DLDG3,DLDG3,3GD6L00D3T00Y1FSFC0LF6E4P3GM1Q,3GD6L00D3T00Y1FSFC0LF6E4P3GM1Q,271073,271073,,,,,,,,,,
,,,,5,13.99995,0,15,15,1047,1,"with open doors, the living room has a small bird decor on the coffee table with 3 other knicknacks","with open doors, the living room has 3 knicknacks on the coffee table",wolfe2,114_R_bird,3,45,A3KIDRWRKC7RI5,2021-01-24_21h14.38.361,MetaAwareness,2020.1.2,Win32,60,3BA7SXOG1KT6KXEBT30FSW0YJI8R8U,A3KIDRWRKC7RI5,3GD6L00D3T00Y1FSFC0LF6E4P3GM1Q,DLDG3,DLDG3,3GD6L00D3T00Y1FSFC0LF6E4P3GM1Q,3GD6L00D3T00Y1FSFC0LF6E4P3GM1Q,271073,271073,,,,,,,,,,
,,,,4,12.276815,0,16,16,891,1,a pink looking bedroom with a pink table that has a box on it,a pink looking bedroom with a pink table that has nothing on it,wolfe2,096_R_painting,3,45,A3KIDRWRKC7RI5,2021-01-24_21h14.38.361,MetaAwareness,2020.1.2,Win32,60,3BA7SXOG1KT6KXEBT30FSW0YJI8R8U,A3KIDRWRKC7RI5,3GD6L00D3T00Y1FSFC0LF6E4P3GM1Q,DLDG3,DLDG3,3GD6L00D3T00Y1FSFC0LF6E4P3GM1Q,3GD6L00D3T00Y1FSFC0LF6E4P3GM1Q,271073,271073,,,,,,,,,,
,,,,5,12.984215,0,17,17,392,1,a very stylish and contemporary looking bathroom that has a lot of tan and brown coloring and two sinks and one faucet,a very stylish and contemporary looking bathroom that has a lot of tan and brown coloring and two sinks and two faucets,wolfe2,042_R_tap,5,45,A3KIDRWRKC7RI5,2021-01-24_21h14.38.361,MetaAwareness,2020.1.2,Win32,60,3BA7SXOG1KT6KXEBT30FSW0YJI8R8U,A3KIDRWRKC7RI5,3GD6L00D3T00Y1FSFC0LF6E4P3GM1Q,DLDG3,DLDG3,3GD6L00D3T00Y1FSFC0LF6E4P3GM1Q,3GD6L00D3T00Y1FSFC0LF6E4P3GM1Q,271073,271073,,,,,,,,,,
,,,,5,9.22822,0,18,18,63,1,a rustic looking bathroom with a towel sitting on the countertop,a rustic looking bathroom with a bowl sitting on a towel on the countertop,wolfe2,007_R_soap,2,45,A3KIDRWRKC7RI5,2021-01-24_21h14.38.361,MetaAwareness,2020.1.2,Win32,60,3BA7SXOG1KT6KXEBT30FSW0YJI8R8U,A3KIDRWRKC7RI5,3GD6L00D3T00Y1FSFC0LF6E4P3GM1Q,DLDG3,DLDG3,3GD6L00D3T00Y1FSFC0LF6E4P3GM1Q,3GD6L00D3T00Y1FSFC0LF6E4P3GM1Q,271073,271073,,,,,,,,,,
,,,,5,15.67478,0,19,19,1159,1,a bright and luminary living room with two lamps on the right and left side of the room with also a glass window overlooking the pool,a bright and luminary living room with only one lamp on the right side of the room with a glass window overlooking the pool,wolfe2,127_L_light,2,45,A3KIDRWRKC7RI5,2021-01-24_21h14.38.361,MetaAwareness,2020.1.2,Win32,60,3BA7SXOG1KT6KXEBT30FSW0YJI8R8U,A3KIDRWRKC7RI5,3GD6L00D3T00Y1FSFC0LF6E4P3GM1Q,DLDG3,DLDG3,3GD6L00D3T00Y1FSFC0LF6E4P3GM1Q,3GD6L00D3T00Y1FSFC0LF6E4P3GM1Q,271073,271073,,,,,,,,,,
,,,,4,10.525755,0,20,20,424,1,a livingroom with a table without a bowl on top of the table,a livingroom with a table that has a bowl on top of the table,wolfe2,046_L_remote,4,45,A3KIDRWRKC7RI5,2021-01-24_21h14.38.361,MetaAwareness,2020.1.2,Win32,60,3BA7SXOG1KT6KXEBT30FSW0YJI8R8U,A3KIDRWRKC7RI5,3GD6L00D3T00Y1FSFC0LF6E4P3GM1Q,DLDG3,DLDG3,3GD6L00D3T00Y1FSFC0LF6E4P3GM1Q,3GD6L00D3T00Y1FSFC0LF6E4P3GM1Q,271073,271073,,,,,,,,,,
,,,,5,12.26961,0,21,21,625,1,a modern bathroom with contrasting colors from the white walls to the brown drawers to the black tub with only a left side handle,a modern bathroom with contrasting colors from the white walls to the brown drawers to the black tub with a right side and left side handles,wolfe2,068_L_faucet,2,45,A3KIDRWRKC7RI5,2021-01-24_21h14.38.361,MetaAwareness,2020.1.2,Win32,60,3BA7SXOG1KT6KXEBT30FSW0YJI8R8U,A3KIDRWRKC7RI5,3GD6L00D3T00Y1FSFC0LF6E4P3GM1Q,DLDG3,DLDG3,3GD6L00D3T00Y1FSFC0LF6E4P3GM1Q,3GD6L00D3T00Y1FSFC0LF6E4P3GM1Q,271073,271073,,,,,,,,,,
,,,,4,14.082985,0,22,22,688,1,a very nice rustic kitchen with spotlights on the ceiling.,a very nice rustic kitchen with extra spotlights on the ceiling to make it very well lit,wolfe2,075_L_light,1,45,A3KIDRWRKC7RI5,2021-01-24_21h14.38.361,MetaAwareness,2020.1.2,Win32,60,3BA7SXOG1KT6KXEBT30FSW0YJI8R8U,A3KIDRWRKC7RI5,3GD6L00D3T00Y1FSFC0LF6E4P3GM1Q,DLDG3,DLDG3,3GD6L00D3T00Y1FSFC0LF6E4P3GM1Q,3GD6L00D3T00Y1FSFC0LF6E4P3GM1Q,271073,271073,,,,,,,,,,
,,,,4,7.63369,0,23,23,229,1,a sink and counter in a room.,a sink and counter in a room with handtowels add the the bottom shelf.num_enter,wolfe2,024_R_towels,1,45,A3KIDRWRKC7RI5,2021-01-24_21h14.38.361,MetaAwareness,2020.1.2,Win32,60,3BA7SXOG1KT6KXEBT30FSW0YJI8R8U,A3KIDRWRKC7RI5,3GD6L00D3T00Y1FSFC0LF6E4P3GM1Q,DLDG3,DLDG3,3GD6L00D3T00Y1FSFC0LF6E4P3GM1Q,3GD6L00D3T00Y1FSFC0LF6E4P3GM1Q,271073,271073,,,,,,,,,,
,,,,4,5.2787,0,24,24,274,1,a countertop,a clean kitchen counter,wolfe2,030_L_drawer,1,45,A3KIDRWRKC7RI5,2021-01-24_21h14.38.361,MetaAwareness,2020.1.2,Win32,60,3BA7SXOG1KT6KXEBT30FSW0YJI8R8U,A3KIDRWRKC7RI5,3GD6L00D3T00Y1FSFC0LF6E4P3GM1Q,DLDG3,DLDG3,3GD6L00D3T00Y1FSFC0LF6E4P3GM1Q,3GD6L00D3T00Y1FSFC0LF6E4P3GM1Q,271073,271073,,,,,,,,,,
,,,,3,7.14647,0,25,25,300,1,bathroom cleaner only one has,bathroom cleaner has two pieces,wolfe2,032_R_bottle,3,45,A3KIDRWRKC7RI5,2021-01-24_21h14.38.361,MetaAwareness,2020.1.2,Win32,60,3BA7SXOG1KT6KXEBT30FSW0YJI8R8U,A3KIDRWRKC7RI5,3GD6L00D3T00Y1FSFC0LF6E4P3GM1Q,DLDG3,DLDG3,3GD6L00D3T00Y1FSFC0LF6E4P3GM1Q,3GD6L00D3T00Y1FSFC0LF6E4P3GM1Q,271073,271073,,,,,,,,,,
,,,,2,9.647535,0,26,26,218,1,a glass table in between chairs,a tv remote sitting on a glass table,wolfe2,023_L_remote,8,45,A3KIDRWRKC7RI5,2021-01-24_21h14.38.361,MetaAwareness,2020.1.2,Win32,60,3BA7SXOG1KT6KXEBT30FSW0YJI8R8U,A3KIDRWRKC7RI5,3GD6L00D3T00Y1FSFC0LF6E4P3GM1Q,DLDG3,DLDG3,3GD6L00D3T00Y1FSFC0LF6E4P3GM1Q,3GD6L00D3T00Y1FSFC0LF6E4P3GM1Q,271073,271073,,,,,,,,,,
,,,,6,14.88172,0,27,27,756,1,bed room with hot and pillow.  a light and class is present .  there is a televison present in the box,"a bed room with hot  and pillow, a light and class is present.  there is a television is present in the box",wolfe2,082_L_bowl,2,45,A3KIDRWRKC7RI5,2021-01-24_21h14.38.361,MetaAwareness,2020.1.2,Win32,60,3BA7SXOG1KT6KXEBT30FSW0YJI8R8U,A3KIDRWRKC7RI5,3GD6L00D3T00Y1FSFC0LF6E4P3GM1Q,DLDG3,DLDG3,3GD6L00D3T00Y1FSFC0LF6E4P3GM1Q,3GD6L00D3T00Y1FSFC0LF6E4P3GM1Q,271073,271073,,,,,,,,,,
,,,,4,16.501075,0,28,28,483,1,a living room with a flat screen tv and sound systome on the wall. sound system does not have a cneter chanel speaker,a living room with a flat screen tv and sound systom on the wall. sound system includes a center channel speaker,wolfe2,052_R_speaker,4,45,A3KIDRWRKC7RI5,2021-01-24_21h14.38.361,MetaAwareness,2020.1.2,Win32,60,3BA7SXOG1KT6KXEBT30FSW0YJI8R8U,A3KIDRWRKC7RI5,3GD6L00D3T00Y1FSFC0LF6E4P3GM1Q,DLDG3,DLDG3,3GD6L00D3T00Y1FSFC0LF6E4P3GM1Q,3GD6L00D3T00Y1FSFC0LF6E4P3GM1Q,271073,271073,,,,,,,,,,
,,,,5,5.73926,0,29,29,144,1,a modern looking living room with one ceiling light.,a modern looking living room with two ceiling lights.,wolfe2,015_R_ceilinglight,1,45,A3KIDRWRKC7RI5,2021-01-24_21h14.38.361,MetaAwareness,2020.1.2,Win32,60,3BA7SXOG1KT6KXEBT30FSW0YJI8R8U,A3KIDRWRKC7RI5,3GD6L00D3T00Y1FSFC0LF6E4P3GM1Q,DLDG3,DLDG3,3GD6L00D3T00Y1FSFC0LF6E4P3GM1Q,3GD6L00D3T00Y1FSFC0LF6E4P3GM1Q,271073,271073,,,,,,,,,,
,,,,,,,,,,,,,,,,45,A3KIDRWRKC7RI5,2021-01-24_21h14.38.361,MetaAwareness,2020.1.2,Win32,60,3BA7SXOG1KT6KXEBT30FSW0YJI8R8U,A3KIDRWRKC7RI5,3GD6L00D3T00Y1FSFC0LF6E4P3GM1Q,DLDG3,DLDG3,3GD6L00D3T00Y1FSFC0LF6E4P3GM1Q,3GD6L00D3T00Y1FSFC0LF6E4P3GM1Q,271073,271073,6,10.666045,someone laying underneath a blue beach umbrella on a crowded beach,someone laying underneath a blue beach umbrella on a crowded beach,same,1,8.00229,members of a marching band crossing a track that all have feather plumes at the front of their hats,a cluttered and rustic looking cafe with 10 hanging lights,different
