consent_response.keys,consent_response.rt,key_resp_2.keys,key_resp_2.rt,user_resp.keys,user_resp.rt,trials.thisRepN,trials.thisTrialN,trials.thisN,trials.thisIndex,trials.ran,image_1_text,image_2_text,database,image,number,age,worker_ID,date,expName,psychopyVersion,OS,frameRate,hitId,workerId,assignmentId,a,tp_a,b,tp_b,c,tp_c,catch_same_resp.keys,catch_same_resp.rt,image_1_text_catch_same,image_2_text_catch_same,image_catch_same,catch_different_resp.keys,catch_different_resp.rt,image_1_text_catch_different,image_2_text_catch_different,image_catch_different
space,5.377,space,24.47,5,19.248,0,0,0,449,1,a beautiful bedroom decorated in shades of brown and off white with pictures arranged above the bed,a beautiful bedroom decorated in shades of brown and off white with pictures arranged above the bed and to the right of the dresser,wolfe2,049_L_painting,3,56,A3OLRWACCCCUTU,2021-01-24_21h38.32.858,MetaAwareness,2020.1.2,Win32,60,3UUSLRKAUM68J9QN1XDP97NZTXC7DI,A3OLRWACCCCUTU,3EFE17QCRD8E07DB1YZSJ2THYHVSH8,C1FE3,C1FE3,3EFE17QCRD8E07DB1YZSJ2THYHVSH8,3EFE17QCRD8E07DB1YZSJ2THYHVSH8,271073,271073,,,,,,,,,,
,,,,5,26.373,0,1,1,556,1,"a dining room that is decorated with flowers, a chandelier, and place settings with a wine glass and coffee mug","a dining room that is decorated with flowers, a chandelier, and place settings, one of which contains two wine glasses",wolfe2,061_L_glass,3,56,A3OLRWACCCCUTU,2021-01-24_21h38.32.858,MetaAwareness,2020.1.2,Win32,60,3UUSLRKAUM68J9QN1XDP97NZTXC7DI,A3OLRWACCCCUTU,3EFE17QCRD8E07DB1YZSJ2THYHVSH8,C1FE3,C1FE3,3EFE17QCRD8E07DB1YZSJ2THYHVSH8,3EFE17QCRD8E07DB1YZSJ2THYHVSH8,271073,271073,,,,,,,,,,
,,,,5,6.934,0,2,2,144,1,a modern looking living room with one ceiling light.,a modern looking living room with two ceiling lights.,wolfe2,015_R_ceilinglight,1,56,A3OLRWACCCCUTU,2021-01-24_21h38.32.858,MetaAwareness,2020.1.2,Win32,60,3UUSLRKAUM68J9QN1XDP97NZTXC7DI,A3OLRWACCCCUTU,3EFE17QCRD8E07DB1YZSJ2THYHVSH8,C1FE3,C1FE3,3EFE17QCRD8E07DB1YZSJ2THYHVSH8,3EFE17QCRD8E07DB1YZSJ2THYHVSH8,271073,271073,,,,,,,,,,
,,,,5,14.935,0,3,3,85,1,a very modern-looking bedroom with a shiny white floor and no rugs,a very modern-looking bedroom with a shiny white floor and a round beige rug,wolfe2,009_R_carpet,3,56,A3OLRWACCCCUTU,2021-01-24_21h38.32.858,MetaAwareness,2020.1.2,Win32,60,3UUSLRKAUM68J9QN1XDP97NZTXC7DI,A3OLRWACCCCUTU,3EFE17QCRD8E07DB1YZSJ2THYHVSH8,C1FE3,C1FE3,3EFE17QCRD8E07DB1YZSJ2THYHVSH8,3EFE17QCRD8E07DB1YZSJ2THYHVSH8,271073,271073,,,,,,,,,,
,,,,1,3.034,0,4,4,183,1,plain wall,decorations on the wall,wolfe2,020_L_walldeco,2,56,A3OLRWACCCCUTU,2021-01-24_21h38.32.858,MetaAwareness,2020.1.2,Win32,60,3UUSLRKAUM68J9QN1XDP97NZTXC7DI,A3OLRWACCCCUTU,3EFE17QCRD8E07DB1YZSJ2THYHVSH8,C1FE3,C1FE3,3EFE17QCRD8E07DB1YZSJ2THYHVSH8,3EFE17QCRD8E07DB1YZSJ2THYHVSH8,271073,271073,,,,,,,,,,
,,,,1,7.301,0,5,5,77,1,white blinds in the bathroom,a bottle sitting on the window sill,wolfe2,008_R_bottle,7,56,A3OLRWACCCCUTU,2021-01-24_21h38.32.858,MetaAwareness,2020.1.2,Win32,60,3UUSLRKAUM68J9QN1XDP97NZTXC7DI,A3OLRWACCCCUTU,3EFE17QCRD8E07DB1YZSJ2THYHVSH8,C1FE3,C1FE3,3EFE17QCRD8E07DB1YZSJ2THYHVSH8,3EFE17QCRD8E07DB1YZSJ2THYHVSH8,271073,271073,,,,,,,,,,
,,,,5,7.803,0,6,6,969,1,a bedroom with laundry and a hat on the bed,a bedroom with laundry on the bed,wolfe2,105_R_hat,3,56,A3OLRWACCCCUTU,2021-01-24_21h38.32.858,MetaAwareness,2020.1.2,Win32,60,3UUSLRKAUM68J9QN1XDP97NZTXC7DI,A3OLRWACCCCUTU,3EFE17QCRD8E07DB1YZSJ2THYHVSH8,C1FE3,C1FE3,3EFE17QCRD8E07DB1YZSJ2THYHVSH8,3EFE17QCRD8E07DB1YZSJ2THYHVSH8,271073,271073,,,,,,,,,,
,,,,3,8.691,0,7,7,188,1,round design has,round design has been missing,wolfe2,020_R_walldeco,3,56,A3OLRWACCCCUTU,2021-01-24_21h38.32.858,MetaAwareness,2020.1.2,Win32,60,3UUSLRKAUM68J9QN1XDP97NZTXC7DI,A3OLRWACCCCUTU,3EFE17QCRD8E07DB1YZSJ2THYHVSH8,C1FE3,C1FE3,3EFE17QCRD8E07DB1YZSJ2THYHVSH8,3EFE17QCRD8E07DB1YZSJ2THYHVSH8,271073,271073,,,,,,,,,,
,,,,4,14.424,0,8,8,821,1,an empty salon with five stations on the right wall.  there's a clock next to the far left mirror.,an empty salon with five stations on the right wall.,wolfe2,088_R_clock,1,56,A3OLRWACCCCUTU,2021-01-24_21h38.32.858,MetaAwareness,2020.1.2,Win32,60,3UUSLRKAUM68J9QN1XDP97NZTXC7DI,A3OLRWACCCCUTU,3EFE17QCRD8E07DB1YZSJ2THYHVSH8,C1FE3,C1FE3,3EFE17QCRD8E07DB1YZSJ2THYHVSH8,3EFE17QCRD8E07DB1YZSJ2THYHVSH8,271073,271073,,,,,,,,,,
,,,,5,4.651,0,9,9,530,1,a library with nothing beside the bookshelf.,a library with a trash can beside the bookshelf.,wolfe2,057_R_bin,3,56,A3OLRWACCCCUTU,2021-01-24_21h38.32.858,MetaAwareness,2020.1.2,Win32,60,3UUSLRKAUM68J9QN1XDP97NZTXC7DI,A3OLRWACCCCUTU,3EFE17QCRD8E07DB1YZSJ2THYHVSH8,C1FE3,C1FE3,3EFE17QCRD8E07DB1YZSJ2THYHVSH8,3EFE17QCRD8E07DB1YZSJ2THYHVSH8,271073,271073,,,,,,,,,,
,,,,5,4.784,0,10,10,28,1,a view of the city from a hotel window,a view of the city from a hotel window where a cell tower can be seen,wolfe2,004_L_electricalgrid,4,56,A3OLRWACCCCUTU,2021-01-24_21h38.32.858,MetaAwareness,2020.1.2,Win32,60,3UUSLRKAUM68J9QN1XDP97NZTXC7DI,A3OLRWACCCCUTU,3EFE17QCRD8E07DB1YZSJ2THYHVSH8,C1FE3,C1FE3,3EFE17QCRD8E07DB1YZSJ2THYHVSH8,3EFE17QCRD8E07DB1YZSJ2THYHVSH8,271073,271073,,,,,,,,,,
,,,,4,11.635,0,11,11,927,1,nice looking bathroom that has a makeup or detail mirror on the wall,nice looking bathroom that does not have a makeup or detail mirror,wolfe2,100_R_mirror,4,56,A3OLRWACCCCUTU,2021-01-24_21h38.32.858,MetaAwareness,2020.1.2,Win32,60,3UUSLRKAUM68J9QN1XDP97NZTXC7DI,A3OLRWACCCCUTU,3EFE17QCRD8E07DB1YZSJ2THYHVSH8,C1FE3,C1FE3,3EFE17QCRD8E07DB1YZSJ2THYHVSH8,3EFE17QCRD8E07DB1YZSJ2THYHVSH8,271073,271073,,,,,,,,,,
,,,,3,12.136,0,12,12,831,1,this appears to be ready and waiting for clients.  the photo provides some much needed color to the area.,"the bare wall needs a little splash of color.  otherwise, it is ready for clients.",wolfe2,089_R_poster,2,56,A3OLRWACCCCUTU,2021-01-24_21h38.32.858,MetaAwareness,2020.1.2,Win32,60,3UUSLRKAUM68J9QN1XDP97NZTXC7DI,A3OLRWACCCCUTU,3EFE17QCRD8E07DB1YZSJ2THYHVSH8,C1FE3,C1FE3,3EFE17QCRD8E07DB1YZSJ2THYHVSH8,3EFE17QCRD8E07DB1YZSJ2THYHVSH8,271073,271073,,,,,,,,,,
,,,,5,8.934,0,13,13,775,1,the room is so beatiful and there is no lamp,the room is so beatiful and there is very beatiful lamp is there,wolfe2,084_L_light,1,56,A3OLRWACCCCUTU,2021-01-24_21h38.32.858,MetaAwareness,2020.1.2,Win32,60,3UUSLRKAUM68J9QN1XDP97NZTXC7DI,A3OLRWACCCCUTU,3EFE17QCRD8E07DB1YZSJ2THYHVSH8,C1FE3,C1FE3,3EFE17QCRD8E07DB1YZSJ2THYHVSH8,3EFE17QCRD8E07DB1YZSJ2THYHVSH8,271073,271073,,,,,,,,,,
,,,,5,6.453,0,14,14,254,1,"a fancy bathroom with two sinks, a bathtub and a shower","a fancy bathroom with two sinks, a bathtub, and a shower with a soap holder",wolfe2,027_R_soapdish,2,56,A3OLRWACCCCUTU,2021-01-24_21h38.32.858,MetaAwareness,2020.1.2,Win32,60,3UUSLRKAUM68J9QN1XDP97NZTXC7DI,A3OLRWACCCCUTU,3EFE17QCRD8E07DB1YZSJ2THYHVSH8,C1FE3,C1FE3,3EFE17QCRD8E07DB1YZSJ2THYHVSH8,3EFE17QCRD8E07DB1YZSJ2THYHVSH8,271073,271073,,,,,,,,,,
,,,,5,10.489,0,15,15,632,1,a white bathroom with a black tub and one faucet knob on the wall behind the tub,a white bathroom with a black tub and two faucet knobs on the wall behind the tub,wolfe2,068_R_faucet,3,56,A3OLRWACCCCUTU,2021-01-24_21h38.32.858,MetaAwareness,2020.1.2,Win32,60,3UUSLRKAUM68J9QN1XDP97NZTXC7DI,A3OLRWACCCCUTU,3EFE17QCRD8E07DB1YZSJ2THYHVSH8,C1FE3,C1FE3,3EFE17QCRD8E07DB1YZSJ2THYHVSH8,3EFE17QCRD8E07DB1YZSJ2THYHVSH8,271073,271073,,,,,,,,,,
,,,,5,10.552,0,16,16,154,1,a contemporary living room leading out to an outdoor space with a black box on a pedestool in the far corner,a contemporary living room leading out to an outdoor space with a black statue on a pedestool in the far corner,wolfe2,016_R_art,1,56,A3OLRWACCCCUTU,2021-01-24_21h38.32.858,MetaAwareness,2020.1.2,Win32,60,3UUSLRKAUM68J9QN1XDP97NZTXC7DI,A3OLRWACCCCUTU,3EFE17QCRD8E07DB1YZSJ2THYHVSH8,C1FE3,C1FE3,3EFE17QCRD8E07DB1YZSJ2THYHVSH8,3EFE17QCRD8E07DB1YZSJ2THYHVSH8,271073,271073,,,,,,,,,,
,,,,6,18.959,0,17,17,1137,1,"a sunroom with large windows, white chairs, a blue and white rug, and a white table","a sunroom with large windows, white table and chairs, a blue and white rug, and",wolfe2,124_R_vase,1,56,A3OLRWACCCCUTU,2021-01-24_21h38.32.858,MetaAwareness,2020.1.2,Win32,60,3UUSLRKAUM68J9QN1XDP97NZTXC7DI,A3OLRWACCCCUTU,3EFE17QCRD8E07DB1YZSJ2THYHVSH8,C1FE3,C1FE3,3EFE17QCRD8E07DB1YZSJ2THYHVSH8,3EFE17QCRD8E07DB1YZSJ2THYHVSH8,271073,271073,,,,,,,,,,
,,,,5,5.641,0,18,18,126,1,a living space with hardwood floors and one light over a wooden table towards the right.,a living space with hardwood floors and two lights over a wodden table towards the right.,wolfe2,013_R_lamp,2,56,A3OLRWACCCCUTU,2021-01-24_21h38.32.858,MetaAwareness,2020.1.2,Win32,60,3UUSLRKAUM68J9QN1XDP97NZTXC7DI,A3OLRWACCCCUTU,3EFE17QCRD8E07DB1YZSJ2THYHVSH8,C1FE3,C1FE3,3EFE17QCRD8E07DB1YZSJ2THYHVSH8,3EFE17QCRD8E07DB1YZSJ2THYHVSH8,271073,271073,,,,,,,,,,
,,,,5,5.835,0,19,19,181,1,there is white side panelling on the side of a modern house.,there is a streetlight on the white panelling on the side of a modern house.,wolfe2,019_R_lamp_sized,4,56,A3OLRWACCCCUTU,2021-01-24_21h38.32.858,MetaAwareness,2020.1.2,Win32,60,3UUSLRKAUM68J9QN1XDP97NZTXC7DI,A3OLRWACCCCUTU,3EFE17QCRD8E07DB1YZSJ2THYHVSH8,C1FE3,C1FE3,3EFE17QCRD8E07DB1YZSJ2THYHVSH8,3EFE17QCRD8E07DB1YZSJ2THYHVSH8,271073,271073,,,,,,,,,,
,,,,5,8.317,0,20,20,1111,1,a sleek bedroom with a large window and a decorative item on the bedside table,a sleek bedroom with a large window and a bedside table,wolfe2,121_R_car,5,56,A3OLRWACCCCUTU,2021-01-24_21h38.32.858,MetaAwareness,2020.1.2,Win32,60,3UUSLRKAUM68J9QN1XDP97NZTXC7DI,A3OLRWACCCCUTU,3EFE17QCRD8E07DB1YZSJ2THYHVSH8,C1FE3,C1FE3,3EFE17QCRD8E07DB1YZSJ2THYHVSH8,3EFE17QCRD8E07DB1YZSJ2THYHVSH8,271073,271073,,,,,,,,,,
,,,,5,6.384,0,21,21,1121,1,a room that looks like it may be in a library that has some tables and 12 empty chairs,a room that looks like it may be in a library that has some tables and 11 empty chairs,wolfe2,122_R_chair,5,56,A3OLRWACCCCUTU,2021-01-24_21h38.32.858,MetaAwareness,2020.1.2,Win32,60,3UUSLRKAUM68J9QN1XDP97NZTXC7DI,A3OLRWACCCCUTU,3EFE17QCRD8E07DB1YZSJ2THYHVSH8,C1FE3,C1FE3,3EFE17QCRD8E07DB1YZSJ2THYHVSH8,3EFE17QCRD8E07DB1YZSJ2THYHVSH8,271073,271073,,,,,,,,,,
,,,,5,7.651,0,22,22,853,1,"a large bathroom with red walls, lots of sinks and mirrors and a white object high up on the back wall",a large bathroom with red walls and lots of sinks and mirrors,wolfe2,091_R_airfreshener,4,56,A3OLRWACCCCUTU,2021-01-24_21h38.32.858,MetaAwareness,2020.1.2,Win32,60,3UUSLRKAUM68J9QN1XDP97NZTXC7DI,A3OLRWACCCCUTU,3EFE17QCRD8E07DB1YZSJ2THYHVSH8,C1FE3,C1FE3,3EFE17QCRD8E07DB1YZSJ2THYHVSH8,3EFE17QCRD8E07DB1YZSJ2THYHVSH8,271073,271073,,,,,,,,,,
,,,,4,7.517,0,23,23,813,1,hotel bathroom with a towel hanger by the sink,hotel bathroom with no place to hang a hand towel,wolfe2,087_L_towelhandle,4,56,A3OLRWACCCCUTU,2021-01-24_21h38.32.858,MetaAwareness,2020.1.2,Win32,60,3UUSLRKAUM68J9QN1XDP97NZTXC7DI,A3OLRWACCCCUTU,3EFE17QCRD8E07DB1YZSJ2THYHVSH8,C1FE3,C1FE3,3EFE17QCRD8E07DB1YZSJ2THYHVSH8,3EFE17QCRD8E07DB1YZSJ2THYHVSH8,271073,271073,,,,,,,,,,
,,,,2,16.719,0,24,24,590,1,the knobbed candle holder sits atop the brown wooden shelf,there is a black vase on top of the wooden shelf that sits in the dining room,wolfe2,064_R_bottles,2,56,A3OLRWACCCCUTU,2021-01-24_21h38.32.858,MetaAwareness,2020.1.2,Win32,60,3UUSLRKAUM68J9QN1XDP97NZTXC7DI,A3OLRWACCCCUTU,3EFE17QCRD8E07DB1YZSJ2THYHVSH8,C1FE3,C1FE3,3EFE17QCRD8E07DB1YZSJ2THYHVSH8,3EFE17QCRD8E07DB1YZSJ2THYHVSH8,271073,271073,,,,,,,,,,
,,,,5,14.611,0,25,25,1011,1,"a sitting room located adjacent to a large pool containing many windows and two houseplants, one on the floor and the other on the coffee table",a sitting room located adjacent to a large pool containing many windows and one houseplant on the coffee table,wolfe2,110_L_plant,3,56,A3OLRWACCCCUTU,2021-01-24_21h38.32.858,MetaAwareness,2020.1.2,Win32,60,3UUSLRKAUM68J9QN1XDP97NZTXC7DI,A3OLRWACCCCUTU,3EFE17QCRD8E07DB1YZSJ2THYHVSH8,C1FE3,C1FE3,3EFE17QCRD8E07DB1YZSJ2THYHVSH8,3EFE17QCRD8E07DB1YZSJ2THYHVSH8,271073,271073,,,,,,,,,,
,,,,5,6.252,0,26,26,951,1,a bathroom with two sinks and a picture of some sort nex to the mirror,a bathroom with two sinks and no picture next to the mirror,wolfe2,103_R_hook,4,56,A3OLRWACCCCUTU,2021-01-24_21h38.32.858,MetaAwareness,2020.1.2,Win32,60,3UUSLRKAUM68J9QN1XDP97NZTXC7DI,A3OLRWACCCCUTU,3EFE17QCRD8E07DB1YZSJ2THYHVSH8,C1FE3,C1FE3,3EFE17QCRD8E07DB1YZSJ2THYHVSH8,3EFE17QCRD8E07DB1YZSJ2THYHVSH8,271073,271073,,,,,,,,,,
,,,,5,6.254,0,27,27,106,1,a bathroom with two sinks. on the left hand side there is a pink soap dispenser,a bathroom with two sinks. on the left hand side there is a pink soap dispenser and on the right hand side there is a red soap dispenser.,wolfe2,011_R_parfum,3,56,A3OLRWACCCCUTU,2021-01-24_21h38.32.858,MetaAwareness,2020.1.2,Win32,60,3UUSLRKAUM68J9QN1XDP97NZTXC7DI,A3OLRWACCCCUTU,3EFE17QCRD8E07DB1YZSJ2THYHVSH8,C1FE3,C1FE3,3EFE17QCRD8E07DB1YZSJ2THYHVSH8,3EFE17QCRD8E07DB1YZSJ2THYHVSH8,271073,271073,,,,,,,,,,
,,,,5,3.751,0,28,28,939,1,a contemporary space with a box under the center window,a contemporary space with nothing under the center window,wolfe2,102_R_shoppingbag,1,56,A3OLRWACCCCUTU,2021-01-24_21h38.32.858,MetaAwareness,2020.1.2,Win32,60,3UUSLRKAUM68J9QN1XDP97NZTXC7DI,A3OLRWACCCCUTU,3EFE17QCRD8E07DB1YZSJ2THYHVSH8,C1FE3,C1FE3,3EFE17QCRD8E07DB1YZSJ2THYHVSH8,3EFE17QCRD8E07DB1YZSJ2THYHVSH8,271073,271073,,,,,,,,,,
,,,,5,5.567,0,29,29,1,1,a bedroom with a swan picture and blue walls,a bedroom with a swan picture and blue walls and a hanging mirror near the corner of the room,wolfe2,001_L_mirror,2,56,A3OLRWACCCCUTU,2021-01-24_21h38.32.858,MetaAwareness,2020.1.2,Win32,60,3UUSLRKAUM68J9QN1XDP97NZTXC7DI,A3OLRWACCCCUTU,3EFE17QCRD8E07DB1YZSJ2THYHVSH8,C1FE3,C1FE3,3EFE17QCRD8E07DB1YZSJ2THYHVSH8,3EFE17QCRD8E07DB1YZSJ2THYHVSH8,271073,271073,,,,,,,,,,
,,,,,,,,,,,,,,,,56,A3OLRWACCCCUTU,2021-01-24_21h38.32.858,MetaAwareness,2020.1.2,Win32,60,3UUSLRKAUM68J9QN1XDP97NZTXC7DI,A3OLRWACCCCUTU,3EFE17QCRD8E07DB1YZSJ2THYHVSH8,C1FE3,C1FE3,3EFE17QCRD8E07DB1YZSJ2THYHVSH8,3EFE17QCRD8E07DB1YZSJ2THYHVSH8,271073,271073,6,12.942,someone laying underneath a blue beach umbrella on a crowded beach,someone laying underneath a blue beach umbrella on a crowded beach,same,1,5.752,members of a marching band crossing a track that all have feather plumes at the front of their hats,a cluttered and rustic looking cafe with 10 hanging lights,different
