consent_response.keys,consent_response.rt,key_resp_2.keys,key_resp_2.rt,user_resp.keys,user_resp.rt,trials.thisRepN,trials.thisTrialN,trials.thisN,trials.thisIndex,trials.ran,image_1_text,image_2_text,database,image,number,age,worker_ID,date,expName,psychopyVersion,OS,frameRate,hitId,workerId,assignmentId,a,tp_a,b,tp_b,c,tp_c,catch_same_resp.keys,catch_same_resp.rt,image_1_text_catch_same,image_2_text_catch_same,image_catch_same,catch_different_resp.keys,catch_different_resp.rt,image_1_text_catch_different,image_2_text_catch_different,image_catch_different
space,3.285135,space,42.967905,3,28.9085,0,0,0,865,1,a bedroom with two beds with yellow bedding and two lightswitch panels on the wall,a bedroom with two beds with yellow bedding and one lightswitch panel on the wall,wolfe2,093_L_switch,4,26,A3RHJEMZ4EGY2U,2021-01-24_19h39.11.910,MetaAwareness,2020.1.2,Win32,60,3TFJJUELSISRSGN3VP1JTAO9XHC2CV,A3RHJEMZ4EGY2U,34HJIJKLP6Z0GN6KGMKE004KSFW4VU,LIH43,LIH43,34HJIJKLP6Z0GN6KGMKE004KSFW4VU,34HJIJKLP6Z0GN6KGMKE004KSFW4VU,271073,271073,,,,,,,,,,
,,,,5,27.88508,0,1,1,315,1,"a gray colored bedroom with white contrasting appliance such as the bed, rug and the side drawer with a missing lower handle","a gray colored bedroom with white contrasting appliance such as the bed, rug and the side drawer",wolfe2,034_L_handle,5,26,A3RHJEMZ4EGY2U,2021-01-24_19h39.11.910,MetaAwareness,2020.1.2,Win32,60,3TFJJUELSISRSGN3VP1JTAO9XHC2CV,A3RHJEMZ4EGY2U,34HJIJKLP6Z0GN6KGMKE004KSFW4VU,LIH43,LIH43,34HJIJKLP6Z0GN6KGMKE004KSFW4VU,34HJIJKLP6Z0GN6KGMKE004KSFW4VU,271073,271073,,,,,,,,,,
,,,,4,22.288045,0,2,2,236,1,a modern looking beach house living room with 1 beige long decoration on the shelf behind the couch.,a modern looking beach house living room with 2 beige long decorations on the shelf behind the couch.,wolfe2,025_R_vase,1,26,A3RHJEMZ4EGY2U,2021-01-24_19h39.11.910,MetaAwareness,2020.1.2,Win32,60,3TFJJUELSISRSGN3VP1JTAO9XHC2CV,A3RHJEMZ4EGY2U,34HJIJKLP6Z0GN6KGMKE004KSFW4VU,LIH43,LIH43,34HJIJKLP6Z0GN6KGMKE004KSFW4VU,34HJIJKLP6Z0GN6KGMKE004KSFW4VU,271073,271073,,,,,,,,,,
,,,,3,16.01854,0,3,3,881,1,living room with a mirror in place of fireplace. it has multiple candles on the shelf and there are two red candles,living room with a mirror in place of fireplace. it has multiple candles on the shelf and there is only on red candle,wolfe2,095_R_candle,5,26,A3RHJEMZ4EGY2U,2021-01-24_19h39.11.910,MetaAwareness,2020.1.2,Win32,60,3TFJJUELSISRSGN3VP1JTAO9XHC2CV,A3RHJEMZ4EGY2U,34HJIJKLP6Z0GN6KGMKE004KSFW4VU,LIH43,LIH43,34HJIJKLP6Z0GN6KGMKE004KSFW4VU,34HJIJKLP6Z0GN6KGMKE004KSFW4VU,271073,271073,,,,,,,,,,
,,,,2,9.7318,0,4,4,378,1,a kitchen with an empty blue bowl.,a kitchen with a bowl filled with food.,wolfe2,041_R_fruit,2,26,A3RHJEMZ4EGY2U,2021-01-24_19h39.11.910,MetaAwareness,2020.1.2,Win32,60,3TFJJUELSISRSGN3VP1JTAO9XHC2CV,A3RHJEMZ4EGY2U,34HJIJKLP6Z0GN6KGMKE004KSFW4VU,LIH43,LIH43,34HJIJKLP6Z0GN6KGMKE004KSFW4VU,34HJIJKLP6Z0GN6KGMKE004KSFW4VU,271073,271073,,,,,,,,,,
,,,,5,14.341965,0,5,5,1177,1,"a home office with built in desk and book shelves, the desk has computer equipment and a plant on it","a home office with built in desk and book shelves, the desk has computer equipment on it",wolfe2,128_R_pot,4,26,A3RHJEMZ4EGY2U,2021-01-24_19h39.11.910,MetaAwareness,2020.1.2,Win32,60,3TFJJUELSISRSGN3VP1JTAO9XHC2CV,A3RHJEMZ4EGY2U,34HJIJKLP6Z0GN6KGMKE004KSFW4VU,LIH43,LIH43,34HJIJKLP6Z0GN6KGMKE004KSFW4VU,34HJIJKLP6Z0GN6KGMKE004KSFW4VU,271073,271073,,,,,,,,,,
,,,,3,14.2179,0,6,6,358,1,a beautiful living area including a dining room with no air conditioning vent over the couch,a beautiful living area and dining room with an air conditioning vent over the couch,wolfe2,039_L_ventilator,3,26,A3RHJEMZ4EGY2U,2021-01-24_19h39.11.910,MetaAwareness,2020.1.2,Win32,60,3TFJJUELSISRSGN3VP1JTAO9XHC2CV,A3RHJEMZ4EGY2U,34HJIJKLP6Z0GN6KGMKE004KSFW4VU,LIH43,LIH43,34HJIJKLP6Z0GN6KGMKE004KSFW4VU,34HJIJKLP6Z0GN6KGMKE004KSFW4VU,271073,271073,,,,,,,,,,
,,,,3,13.764035,0,7,7,203,1,a dinning table with chair.  fruit and vegetable present on the table only two light is hanging,"a dinninig table with chair,  fruit and vegetables present on the table.  three light are hanging.",wolfe2,022_L_lamp,2,26,A3RHJEMZ4EGY2U,2021-01-24_19h39.11.910,MetaAwareness,2020.1.2,Win32,60,3TFJJUELSISRSGN3VP1JTAO9XHC2CV,A3RHJEMZ4EGY2U,34HJIJKLP6Z0GN6KGMKE004KSFW4VU,LIH43,LIH43,34HJIJKLP6Z0GN6KGMKE004KSFW4VU,34HJIJKLP6Z0GN6KGMKE004KSFW4VU,271073,271073,,,,,,,,,,
,,,,3,6.356655,0,8,8,1172,1,a home office with a plant on the desk,a home office without a plant on the desk,wolfe2,128_L_pot,4,26,A3RHJEMZ4EGY2U,2021-01-24_19h39.11.910,MetaAwareness,2020.1.2,Win32,60,3TFJJUELSISRSGN3VP1JTAO9XHC2CV,A3RHJEMZ4EGY2U,34HJIJKLP6Z0GN6KGMKE004KSFW4VU,LIH43,LIH43,34HJIJKLP6Z0GN6KGMKE004KSFW4VU,34HJIJKLP6Z0GN6KGMKE004KSFW4VU,271073,271073,,,,,,,,,,
,,,,3,21.267855,0,9,9,1097,1,a living room with trees outside the window with a fireplace that has a mantle with flowers in the middle and 2 decorative pieces on either size,a living room with trees outside the window with a fireplace that has a mantle with flowers in the middle and 1 decorative piece on the right side,wolfe2,120_L_art,3,26,A3RHJEMZ4EGY2U,2021-01-24_19h39.11.910,MetaAwareness,2020.1.2,Win32,60,3TFJJUELSISRSGN3VP1JTAO9XHC2CV,A3RHJEMZ4EGY2U,34HJIJKLP6Z0GN6KGMKE004KSFW4VU,LIH43,LIH43,34HJIJKLP6Z0GN6KGMKE004KSFW4VU,34HJIJKLP6Z0GN6KGMKE004KSFW4VU,271073,271073,,,,,,,,,,
,,,,3,6.082495,0,10,10,453,1,a very nice luxurious bedroom missing a picture,a very nice luxurious bedroom with a picture added,wolfe2,049_R_painting,3,26,A3RHJEMZ4EGY2U,2021-01-24_19h39.11.910,MetaAwareness,2020.1.2,Win32,60,3TFJJUELSISRSGN3VP1JTAO9XHC2CV,A3RHJEMZ4EGY2U,34HJIJKLP6Z0GN6KGMKE004KSFW4VU,LIH43,LIH43,34HJIJKLP6Z0GN6KGMKE004KSFW4VU,34HJIJKLP6Z0GN6KGMKE004KSFW4VU,271073,271073,,,,,,,,,,
,,,,2,7.89132,0,11,11,1069,1,a open spaced room with a potted plant,a open spaced room with an empty table,wolfe2,117_L_plant_sized,2,26,A3RHJEMZ4EGY2U,2021-01-24_19h39.11.910,MetaAwareness,2020.1.2,Win32,60,3TFJJUELSISRSGN3VP1JTAO9XHC2CV,A3RHJEMZ4EGY2U,34HJIJKLP6Z0GN6KGMKE004KSFW4VU,LIH43,LIH43,34HJIJKLP6Z0GN6KGMKE004KSFW4VU,34HJIJKLP6Z0GN6KGMKE004KSFW4VU,271073,271073,,,,,,,,,,
,,,,3,11.67132,0,12,12,882,1,a birdseye view of a living room with four candles by a large mirror,a birdseye view of a living room with three candles by a large mirror,wolfe2,095_R_candle,6,26,A3RHJEMZ4EGY2U,2021-01-24_19h39.11.910,MetaAwareness,2020.1.2,Win32,60,3TFJJUELSISRSGN3VP1JTAO9XHC2CV,A3RHJEMZ4EGY2U,34HJIJKLP6Z0GN6KGMKE004KSFW4VU,LIH43,LIH43,34HJIJKLP6Z0GN6KGMKE004KSFW4VU,34HJIJKLP6Z0GN6KGMKE004KSFW4VU,271073,271073,,,,,,,,,,
,,,,3,15.040595,0,13,13,689,1,"a kitchen ornately decorated with wood cabinets, with recessed lights in the ceiling that only cover one side of the room","a kitchen ornately decorated with wood cabinets, and with recessed lights along the edges of the ceiling",wolfe2,075_L_light,3,26,A3RHJEMZ4EGY2U,2021-01-24_19h39.11.910,MetaAwareness,2020.1.2,Win32,60,3TFJJUELSISRSGN3VP1JTAO9XHC2CV,A3RHJEMZ4EGY2U,34HJIJKLP6Z0GN6KGMKE004KSFW4VU,LIH43,LIH43,34HJIJKLP6Z0GN6KGMKE004KSFW4VU,34HJIJKLP6Z0GN6KGMKE004KSFW4VU,271073,271073,,,,,,,,,,
,,,,3,10.70201,0,14,14,944,1,a bathroom with dual sinks with mohagany drawers and cabinets  and also a coat hook at the left hand side,a bathroom with dual sinks with mohagany drawers and cabinets,wolfe2,103_L_hook,2,26,A3RHJEMZ4EGY2U,2021-01-24_19h39.11.910,MetaAwareness,2020.1.2,Win32,60,3TFJJUELSISRSGN3VP1JTAO9XHC2CV,A3RHJEMZ4EGY2U,34HJIJKLP6Z0GN6KGMKE004KSFW4VU,LIH43,LIH43,34HJIJKLP6Z0GN6KGMKE004KSFW4VU,34HJIJKLP6Z0GN6KGMKE004KSFW4VU,271073,271073,,,,,,,,,,
,,,,2,5.53291,0,15,15,423,1,it conains a glass table,it contains a cup,wolfe2,046_L_remote,3,26,A3RHJEMZ4EGY2U,2021-01-24_19h39.11.910,MetaAwareness,2020.1.2,Win32,60,3TFJJUELSISRSGN3VP1JTAO9XHC2CV,A3RHJEMZ4EGY2U,34HJIJKLP6Z0GN6KGMKE004KSFW4VU,LIH43,LIH43,34HJIJKLP6Z0GN6KGMKE004KSFW4VU,34HJIJKLP6Z0GN6KGMKE004KSFW4VU,271073,271073,,,,,,,,,,
,,,,3,8.70404,0,16,16,102,1,a colorful bathroom with one soap bottle sitting next to the sink,a colorful bathroom with two soap bottles sitting next to the sink,wolfe2,011_L_parfum,3,26,A3RHJEMZ4EGY2U,2021-01-24_19h39.11.910,MetaAwareness,2020.1.2,Win32,60,3TFJJUELSISRSGN3VP1JTAO9XHC2CV,A3RHJEMZ4EGY2U,34HJIJKLP6Z0GN6KGMKE004KSFW4VU,LIH43,LIH43,34HJIJKLP6Z0GN6KGMKE004KSFW4VU,34HJIJKLP6Z0GN6KGMKE004KSFW4VU,271073,271073,,,,,,,,,,
,,,,2,9.28039,0,17,17,621,1,there is a bare side table in this large meeting room,there is a photograph atop a side table in this large meeting room,wolfe2,067_R_painting,2,26,A3RHJEMZ4EGY2U,2021-01-24_19h39.11.910,MetaAwareness,2020.1.2,Win32,60,3TFJJUELSISRSGN3VP1JTAO9XHC2CV,A3RHJEMZ4EGY2U,34HJIJKLP6Z0GN6KGMKE004KSFW4VU,LIH43,LIH43,34HJIJKLP6Z0GN6KGMKE004KSFW4VU,34HJIJKLP6Z0GN6KGMKE004KSFW4VU,271073,271073,,,,,,,,,,
,,,,1,10.299375,0,18,18,1001,1,the room is very  nice to me and there is a beallo is on the chair,there is no beallo no the chair and i like the room,wolfe2,109_L_pillow,1,26,A3RHJEMZ4EGY2U,2021-01-24_19h39.11.910,MetaAwareness,2020.1.2,Win32,60,3TFJJUELSISRSGN3VP1JTAO9XHC2CV,A3RHJEMZ4EGY2U,34HJIJKLP6Z0GN6KGMKE004KSFW4VU,LIH43,LIH43,34HJIJKLP6Z0GN6KGMKE004KSFW4VU,34HJIJKLP6Z0GN6KGMKE004KSFW4VU,271073,271073,,,,,,,,,,
,,,,1,9.680735,0,19,19,241,1,a beige colored wall in a spacious bathroom,a wooden floating shelf on the wall of a spacious bathroom,wolfe2,026_L_rack,1,26,A3RHJEMZ4EGY2U,2021-01-24_19h39.11.910,MetaAwareness,2020.1.2,Win32,60,3TFJJUELSISRSGN3VP1JTAO9XHC2CV,A3RHJEMZ4EGY2U,34HJIJKLP6Z0GN6KGMKE004KSFW4VU,LIH43,LIH43,34HJIJKLP6Z0GN6KGMKE004KSFW4VU,34HJIJKLP6Z0GN6KGMKE004KSFW4VU,271073,271073,,,,,,,,,,
,,,,1,8.388065,0,20,20,436,1,there is a desk in a well-appointed guest room.,a missing drawer-pull is added to a desk in the well-appointed guest room.,wolfe2,047_R_handle,5,26,A3RHJEMZ4EGY2U,2021-01-24_19h39.11.910,MetaAwareness,2020.1.2,Win32,60,3TFJJUELSISRSGN3VP1JTAO9XHC2CV,A3RHJEMZ4EGY2U,34HJIJKLP6Z0GN6KGMKE004KSFW4VU,LIH43,LIH43,34HJIJKLP6Z0GN6KGMKE004KSFW4VU,34HJIJKLP6Z0GN6KGMKE004KSFW4VU,271073,271073,,,,,,,,,,
,,,,5,11.026985,0,21,21,1081,1,"a lived in apartment with the owner's furniture, shoes and plant",a lived in apartment with the owner's furniture and plant,wolfe2,118_L_shoes,6,26,A3RHJEMZ4EGY2U,2021-01-24_19h39.11.910,MetaAwareness,2020.1.2,Win32,60,3TFJJUELSISRSGN3VP1JTAO9XHC2CV,A3RHJEMZ4EGY2U,34HJIJKLP6Z0GN6KGMKE004KSFW4VU,LIH43,LIH43,34HJIJKLP6Z0GN6KGMKE004KSFW4VU,34HJIJKLP6Z0GN6KGMKE004KSFW4VU,271073,271073,,,,,,,,,,
,,,,5,15.24223,0,22,22,192,1,an office space with a with just a keyboard pad,an office space with a keyboard on a keyboard pad,wolfe2,021_L_keyboard,3,26,A3RHJEMZ4EGY2U,2021-01-24_19h39.11.910,MetaAwareness,2020.1.2,Win32,60,3TFJJUELSISRSGN3VP1JTAO9XHC2CV,A3RHJEMZ4EGY2U,34HJIJKLP6Z0GN6KGMKE004KSFW4VU,LIH43,LIH43,34HJIJKLP6Z0GN6KGMKE004KSFW4VU,34HJIJKLP6Z0GN6KGMKE004KSFW4VU,271073,271073,,,,,,,,,,
,,,,5,6.69083,0,23,23,1045,1,a modern looking home with 2 trinkets sitting on the table,a modern looking home with 1 trinket sitting on the table,wolfe2,114_R_bird,1,26,A3RHJEMZ4EGY2U,2021-01-24_19h39.11.910,MetaAwareness,2020.1.2,Win32,60,3TFJJUELSISRSGN3VP1JTAO9XHC2CV,A3RHJEMZ4EGY2U,34HJIJKLP6Z0GN6KGMKE004KSFW4VU,LIH43,LIH43,34HJIJKLP6Z0GN6KGMKE004KSFW4VU,34HJIJKLP6Z0GN6KGMKE004KSFW4VU,271073,271073,,,,,,,,,,
,,,,4,5.69177,0,24,24,904,1,a bedroom with an object in front of the chair,a bedroom with nothing in front of the chair,wolfe2,098_L_slippers,3,26,A3RHJEMZ4EGY2U,2021-01-24_19h39.11.910,MetaAwareness,2020.1.2,Win32,60,3TFJJUELSISRSGN3VP1JTAO9XHC2CV,A3RHJEMZ4EGY2U,34HJIJKLP6Z0GN6KGMKE004KSFW4VU,LIH43,LIH43,34HJIJKLP6Z0GN6KGMKE004KSFW4VU,34HJIJKLP6Z0GN6KGMKE004KSFW4VU,271073,271073,,,,,,,,,,
,,,,4,10.82565,0,25,25,742,1,a kitche with white cabintry and wooden countertops that have one plant on the far left next to a shelf.,a kitchen with white cabentry and wooden countertops that have two plants on the far left next to a shelf.,wolfe2,080_R_plant,1,26,A3RHJEMZ4EGY2U,2021-01-24_19h39.11.910,MetaAwareness,2020.1.2,Win32,60,3TFJJUELSISRSGN3VP1JTAO9XHC2CV,A3RHJEMZ4EGY2U,34HJIJKLP6Z0GN6KGMKE004KSFW4VU,LIH43,LIH43,34HJIJKLP6Z0GN6KGMKE004KSFW4VU,34HJIJKLP6Z0GN6KGMKE004KSFW4VU,271073,271073,,,,,,,,,,
,,,,5,4.908405,0,26,26,753,1,a spare bedroom,a spare bedroom with an object missing,wolfe2,081_R_football,3,26,A3RHJEMZ4EGY2U,2021-01-24_19h39.11.910,MetaAwareness,2020.1.2,Win32,60,3TFJJUELSISRSGN3VP1JTAO9XHC2CV,A3RHJEMZ4EGY2U,34HJIJKLP6Z0GN6KGMKE004KSFW4VU,LIH43,LIH43,34HJIJKLP6Z0GN6KGMKE004KSFW4VU,34HJIJKLP6Z0GN6KGMKE004KSFW4VU,271073,271073,,,,,,,,,,
,,,,4,6.52604,0,27,27,942,1,a living room that has a plastic box sitting near a window.,a living room that does not have a plastic box on the floor by a window.,wolfe2,102_R_shoppingbag,4,26,A3RHJEMZ4EGY2U,2021-01-24_19h39.11.910,MetaAwareness,2020.1.2,Win32,60,3TFJJUELSISRSGN3VP1JTAO9XHC2CV,A3RHJEMZ4EGY2U,34HJIJKLP6Z0GN6KGMKE004KSFW4VU,LIH43,LIH43,34HJIJKLP6Z0GN6KGMKE004KSFW4VU,34HJIJKLP6Z0GN6KGMKE004KSFW4VU,271073,271073,,,,,,,,,,
,,,,4,3.901685,0,28,28,120,1,a high end modern living room with a single hanging light,a high end modern living room with two hanging lights,wolfe2,013_L_lamp,4,26,A3RHJEMZ4EGY2U,2021-01-24_19h39.11.910,MetaAwareness,2020.1.2,Win32,60,3TFJJUELSISRSGN3VP1JTAO9XHC2CV,A3RHJEMZ4EGY2U,34HJIJKLP6Z0GN6KGMKE004KSFW4VU,LIH43,LIH43,34HJIJKLP6Z0GN6KGMKE004KSFW4VU,34HJIJKLP6Z0GN6KGMKE004KSFW4VU,271073,271073,,,,,,,,,,
,,,,4,7.608305,0,29,29,475,1,a bedroom with a fireplace has a photo of a couple on top with a missing object,a bedroom with a fireplace and a photo of a couple on top. an object appears next to the photo,wolfe2,051_R_owl,7,26,A3RHJEMZ4EGY2U,2021-01-24_19h39.11.910,MetaAwareness,2020.1.2,Win32,60,3TFJJUELSISRSGN3VP1JTAO9XHC2CV,A3RHJEMZ4EGY2U,34HJIJKLP6Z0GN6KGMKE004KSFW4VU,LIH43,LIH43,34HJIJKLP6Z0GN6KGMKE004KSFW4VU,34HJIJKLP6Z0GN6KGMKE004KSFW4VU,271073,271073,,,,,,,,,,
,,,,,,,,,,,,,,,,26,A3RHJEMZ4EGY2U,2021-01-24_19h39.11.910,MetaAwareness,2020.1.2,Win32,60,3TFJJUELSISRSGN3VP1JTAO9XHC2CV,A3RHJEMZ4EGY2U,34HJIJKLP6Z0GN6KGMKE004KSFW4VU,LIH43,LIH43,34HJIJKLP6Z0GN6KGMKE004KSFW4VU,34HJIJKLP6Z0GN6KGMKE004KSFW4VU,271073,271073,6,16.438755,someone laying underneath a blue beach umbrella on a crowded beach,someone laying underneath a blue beach umbrella on a crowded beach,same,1,3.212085,members of a marching band crossing a track that all have feather plumes at the front of their hats,a cluttered and rustic looking cafe with 10 hanging lights,different
