consent_response.keys,consent_response.rt,key_resp_2.keys,key_resp_2.rt,user_resp.keys,user_resp.rt,trials.thisRepN,trials.thisTrialN,trials.thisN,trials.thisIndex,trials.ran,image_1_text,image_2_text,database,image,number,age,worker_ID,date,expName,psychopyVersion,OS,frameRate,hitId,workerId,assignmentId,a,tp_a,b,tp_b,c,tp_c,catch_same_resp.keys,catch_same_resp.rt,image_1_text_catch_same,image_2_text_catch_same,image_catch_same,catch_different_resp.keys,catch_different_resp.rt,image_1_text_catch_different,image_2_text_catch_different,image_catch_different
space,6.699765,space,39.751005,6,8.574755,0,0,0,10,1,"a restaurant dining room with the tables set with cups, plates, silverware and folded orange towels at almost every seat.","a restaurant dining room with table set, containing plates, cups, silverware, and folded orange towels at every seat.",wolfe2,002_L_napkin,1,43,AD0G8LYCHN9LF,2021-01-24_19h39.00.066,MetaAwareness,2020.1.2,Win32,60,37PGLWGSJU9DMZDTC539498YRMIIKZ,AD0G8LYCHN9LF,3NOKK93PR2B16EHRA27H9ISP59PEE6,PKON3,PKON3,3NOKK93PR2B16EHRA27H9ISP59PEE6,3NOKK93PR2B16EHRA27H9ISP59PEE6,271073,271073,,,,,,,,,,
,,,,6,5.260895,0,1,1,971,1,"a public restroom with a shower, sinks and a paper towel holder on the wall",a public restroom with a shower and sinks,wolfe2,106_L_toweldispenser,1,43,AD0G8LYCHN9LF,2021-01-24_19h39.00.066,MetaAwareness,2020.1.2,Win32,60,37PGLWGSJU9DMZDTC539498YRMIIKZ,AD0G8LYCHN9LF,3NOKK93PR2B16EHRA27H9ISP59PEE6,PKON3,PKON3,3NOKK93PR2B16EHRA27H9ISP59PEE6,3NOKK93PR2B16EHRA27H9ISP59PEE6,271073,271073,,,,,,,,,,
,,,,6,3.72656,0,2,2,295,1,"a bathroom with a modern design that includes circular shelving units on the wall,one of which currently holds a single white bottle","a bathroom with a modern design that includes circular shelving units on the wall, one of which contains two white bottles",wolfe2,032_L_bottle,2,43,AD0G8LYCHN9LF,2021-01-24_19h39.00.066,MetaAwareness,2020.1.2,Win32,60,37PGLWGSJU9DMZDTC539498YRMIIKZ,AD0G8LYCHN9LF,3NOKK93PR2B16EHRA27H9ISP59PEE6,PKON3,PKON3,3NOKK93PR2B16EHRA27H9ISP59PEE6,3NOKK93PR2B16EHRA27H9ISP59PEE6,271073,271073,,,,,,,,,,
,,,,3,6.270075,0,3,3,450,1,theres a dresser with a small picture to the left,theres a dresser with no pictures around it,wolfe2,049_L_painting,4,43,AD0G8LYCHN9LF,2021-01-24_19h39.00.066,MetaAwareness,2020.1.2,Win32,60,37PGLWGSJU9DMZDTC539498YRMIIKZ,AD0G8LYCHN9LF,3NOKK93PR2B16EHRA27H9ISP59PEE6,PKON3,PKON3,3NOKK93PR2B16EHRA27H9ISP59PEE6,3NOKK93PR2B16EHRA27H9ISP59PEE6,271073,271073,,,,,,,,,,
,,,,6,4.55582,0,4,4,358,1,a beautiful living area including a dining room with no air conditioning vent over the couch,a beautiful living area and dining room with an air conditioning vent over the couch,wolfe2,039_L_ventilator,3,43,AD0G8LYCHN9LF,2021-01-24_19h39.00.066,MetaAwareness,2020.1.2,Win32,60,37PGLWGSJU9DMZDTC539498YRMIIKZ,AD0G8LYCHN9LF,3NOKK93PR2B16EHRA27H9ISP59PEE6,PKON3,PKON3,3NOKK93PR2B16EHRA27H9ISP59PEE6,3NOKK93PR2B16EHRA27H9ISP59PEE6,271073,271073,,,,,,,,,,
,,,,6,3.396645,0,5,5,598,1,a cozy room with a desk and small bed with a shelf above the desk that has an open space for more items,a cozy room with a desk and small bed with a shelf above the desk that has no open space for more items,wolfe2,065_L_cd,4,43,AD0G8LYCHN9LF,2021-01-24_19h39.00.066,MetaAwareness,2020.1.2,Win32,60,37PGLWGSJU9DMZDTC539498YRMIIKZ,AD0G8LYCHN9LF,3NOKK93PR2B16EHRA27H9ISP59PEE6,PKON3,PKON3,3NOKK93PR2B16EHRA27H9ISP59PEE6,3NOKK93PR2B16EHRA27H9ISP59PEE6,271073,271073,,,,,,,,,,
,,,,6,3.07209,0,6,6,858,1,a modern looking bedroom with wood in the fireplace,a modern looking bedroom without any wood in the fireplace,wolfe2,092_R_candles,1,43,AD0G8LYCHN9LF,2021-01-24_19h39.00.066,MetaAwareness,2020.1.2,Win32,60,37PGLWGSJU9DMZDTC539498YRMIIKZ,AD0G8LYCHN9LF,3NOKK93PR2B16EHRA27H9ISP59PEE6,PKON3,PKON3,3NOKK93PR2B16EHRA27H9ISP59PEE6,3NOKK93PR2B16EHRA27H9ISP59PEE6,271073,271073,,,,,,,,,,
,,,,6,4.142145,0,7,7,116,1,a luxurious bathroom with a white tub,a luxurious bathroom with a white tub with a blue circle,wolfe2,012_R_tubaccesory,5,43,AD0G8LYCHN9LF,2021-01-24_19h39.00.066,MetaAwareness,2020.1.2,Win32,60,37PGLWGSJU9DMZDTC539498YRMIIKZ,AD0G8LYCHN9LF,3NOKK93PR2B16EHRA27H9ISP59PEE6,PKON3,PKON3,3NOKK93PR2B16EHRA27H9ISP59PEE6,3NOKK93PR2B16EHRA27H9ISP59PEE6,271073,271073,,,,,,,,,,
,,,,5,3.8675,0,8,8,401,1,a living room with a wall-mounted tv and built-in shelves. one shelf is empty.,a living room with a wall-mounted tv and built-in shelves. one shelf holds a clock.,wolfe2,043_R_clock,4,43,AD0G8LYCHN9LF,2021-01-24_19h39.00.066,MetaAwareness,2020.1.2,Win32,60,37PGLWGSJU9DMZDTC539498YRMIIKZ,AD0G8LYCHN9LF,3NOKK93PR2B16EHRA27H9ISP59PEE6,PKON3,PKON3,3NOKK93PR2B16EHRA27H9ISP59PEE6,3NOKK93PR2B16EHRA27H9ISP59PEE6,271073,271073,,,,,,,,,,
,,,,6,5.498345,0,9,9,227,1,an open wooden bathroom with two stacks of towels under the sink.,an open wooden bathroom with one stack of towels under the sink,wolfe2,024_L_towels,6,43,AD0G8LYCHN9LF,2021-01-24_19h39.00.066,MetaAwareness,2020.1.2,Win32,60,37PGLWGSJU9DMZDTC539498YRMIIKZ,AD0G8LYCHN9LF,3NOKK93PR2B16EHRA27H9ISP59PEE6,PKON3,PKON3,3NOKK93PR2B16EHRA27H9ISP59PEE6,3NOKK93PR2B16EHRA27H9ISP59PEE6,271073,271073,,,,,,,,,,
,,,,5,4.460785,0,10,10,244,1,a bathroom with a wood commode top,a bathroom with a wood commode top and a shelf,wolfe2,026_L_rack,4,43,AD0G8LYCHN9LF,2021-01-24_19h39.00.066,MetaAwareness,2020.1.2,Win32,60,37PGLWGSJU9DMZDTC539498YRMIIKZ,AD0G8LYCHN9LF,3NOKK93PR2B16EHRA27H9ISP59PEE6,PKON3,PKON3,3NOKK93PR2B16EHRA27H9ISP59PEE6,3NOKK93PR2B16EHRA27H9ISP59PEE6,271073,271073,,,,,,,,,,
,,,,6,5.580535,0,11,11,865,1,a bedroom with two beds with yellow bedding and two lightswitch panels on the wall,a bedroom with two beds with yellow bedding and one lightswitch panel on the wall,wolfe2,093_L_switch,4,43,AD0G8LYCHN9LF,2021-01-24_19h39.00.066,MetaAwareness,2020.1.2,Win32,60,37PGLWGSJU9DMZDTC539498YRMIIKZ,AD0G8LYCHN9LF,3NOKK93PR2B16EHRA27H9ISP59PEE6,PKON3,PKON3,3NOKK93PR2B16EHRA27H9ISP59PEE6,3NOKK93PR2B16EHRA27H9ISP59PEE6,271073,271073,,,,,,,,,,
,,,,4,3.03607,0,12,12,994,1,a closet full of womens clothes with a dresser with a blue decoration on it,a closet full of womens clothes with a dresser with hairbrushes on it and no decor,wolfe2,108_L_boa,2,43,AD0G8LYCHN9LF,2021-01-24_19h39.00.066,MetaAwareness,2020.1.2,Win32,60,37PGLWGSJU9DMZDTC539498YRMIIKZ,AD0G8LYCHN9LF,3NOKK93PR2B16EHRA27H9ISP59PEE6,PKON3,PKON3,3NOKK93PR2B16EHRA27H9ISP59PEE6,3NOKK93PR2B16EHRA27H9ISP59PEE6,271073,271073,,,,,,,,,,
,,,,3,4.916395,0,13,13,8,1,"a fancy bedroom with dark teal walls, a lacy bed spread, white curtains and a picture of a swan","a fancy bedroom with dark teal walls, a lacy bed spread, white curtains, a picture of a swan and a small mirror.",wolfe2,001_R_mirror,4,43,AD0G8LYCHN9LF,2021-01-24_19h39.00.066,MetaAwareness,2020.1.2,Win32,60,37PGLWGSJU9DMZDTC539498YRMIIKZ,AD0G8LYCHN9LF,3NOKK93PR2B16EHRA27H9ISP59PEE6,PKON3,PKON3,3NOKK93PR2B16EHRA27H9ISP59PEE6,3NOKK93PR2B16EHRA27H9ISP59PEE6,271073,271073,,,,,,,,,,
,,,,4,3.888615,0,14,14,338,1,a modern and red kitchen without any bowls on the display shelf,a modern and red kitchen that has bowls on a display shelf for easy use,wolfe2,036_R_bowl,5,43,AD0G8LYCHN9LF,2021-01-24_19h39.00.066,MetaAwareness,2020.1.2,Win32,60,37PGLWGSJU9DMZDTC539498YRMIIKZ,AD0G8LYCHN9LF,3NOKK93PR2B16EHRA27H9ISP59PEE6,PKON3,PKON3,3NOKK93PR2B16EHRA27H9ISP59PEE6,3NOKK93PR2B16EHRA27H9ISP59PEE6,271073,271073,,,,,,,,,,
,,,,3,6.34549,0,15,15,1058,1,"a warm-hued kitchen with a tile floor, a large central island, an open floor plan, and a potted plant next to the double oven","a warm-hued kitchen with a tile floor, a large central island, an open floor plan, and a window next to the double oven",wolfe2,115_R_pot,5,43,AD0G8LYCHN9LF,2021-01-24_19h39.00.066,MetaAwareness,2020.1.2,Win32,60,37PGLWGSJU9DMZDTC539498YRMIIKZ,AD0G8LYCHN9LF,3NOKK93PR2B16EHRA27H9ISP59PEE6,PKON3,PKON3,3NOKK93PR2B16EHRA27H9ISP59PEE6,3NOKK93PR2B16EHRA27H9ISP59PEE6,271073,271073,,,,,,,,,,
,,,,4,3.38727,0,16,16,234,1,"a modern looking living room with plenty of natural light, and plenty of clean looking white with 5 decorative pieces on the back shelf","a modern looking living room with plenty of natural light, and plenty of clean looking white with 6 decorative pieces on the back shelf",wolfe2,025_L_vase,2,43,AD0G8LYCHN9LF,2021-01-24_19h39.00.066,MetaAwareness,2020.1.2,Win32,60,37PGLWGSJU9DMZDTC539498YRMIIKZ,AD0G8LYCHN9LF,3NOKK93PR2B16EHRA27H9ISP59PEE6,PKON3,PKON3,3NOKK93PR2B16EHRA27H9ISP59PEE6,3NOKK93PR2B16EHRA27H9ISP59PEE6,271073,271073,,,,,,,,,,
,,,,3,4.67667,0,17,17,68,1,blue bathroom with window shelf,blue bathroom with window shelf with bottle on shelf,wolfe2,008_L_bottle,1,43,AD0G8LYCHN9LF,2021-01-24_19h39.00.066,MetaAwareness,2020.1.2,Win32,60,37PGLWGSJU9DMZDTC539498YRMIIKZ,AD0G8LYCHN9LF,3NOKK93PR2B16EHRA27H9ISP59PEE6,PKON3,PKON3,3NOKK93PR2B16EHRA27H9ISP59PEE6,3NOKK93PR2B16EHRA27H9ISP59PEE6,271073,271073,,,,,,,,,,
,,,,4,4.93023,0,18,18,456,1,a modern red and beige bedroom with a narrow black bookshelf that has one empty shelf,a modern red and beige bedroom with a narrow black bookshelf that has no empty shelves,wolfe2,050_L_book,2,43,AD0G8LYCHN9LF,2021-01-24_19h39.00.066,MetaAwareness,2020.1.2,Win32,60,37PGLWGSJU9DMZDTC539498YRMIIKZ,AD0G8LYCHN9LF,3NOKK93PR2B16EHRA27H9ISP59PEE6,PKON3,PKON3,3NOKK93PR2B16EHRA27H9ISP59PEE6,3NOKK93PR2B16EHRA27H9ISP59PEE6,271073,271073,,,,,,,,,,
,,,,3,6.17731,0,19,19,360,1,a living room that does not have any ventilation on it's ceiling.,a living room that has a fan vent on the ceiling.,wolfe2,039_R_ventilator,1,43,AD0G8LYCHN9LF,2021-01-24_19h39.00.066,MetaAwareness,2020.1.2,Win32,60,37PGLWGSJU9DMZDTC539498YRMIIKZ,AD0G8LYCHN9LF,3NOKK93PR2B16EHRA27H9ISP59PEE6,PKON3,PKON3,3NOKK93PR2B16EHRA27H9ISP59PEE6,3NOKK93PR2B16EHRA27H9ISP59PEE6,271073,271073,,,,,,,,,,
,,,,1,5.18938,0,20,20,255,1,a shower stall without a soap dish,a shower stall with a soap dish,wolfe2,027_R_soapdish,3,43,AD0G8LYCHN9LF,2021-01-24_19h39.00.066,MetaAwareness,2020.1.2,Win32,60,37PGLWGSJU9DMZDTC539498YRMIIKZ,AD0G8LYCHN9LF,3NOKK93PR2B16EHRA27H9ISP59PEE6,PKON3,PKON3,3NOKK93PR2B16EHRA27H9ISP59PEE6,3NOKK93PR2B16EHRA27H9ISP59PEE6,271073,271073,,,,,,,,,,
,,,,3,3.345485,0,21,21,662,1,"a bedroom with a classic theme, dark wood furniture with white fabric, and a dresser that has 7 handles","a bedroom with a classic theme, dark wood furniture with white fabric, and a dresser that has 8 handles",wolfe2,072_L_handle,4,43,AD0G8LYCHN9LF,2021-01-24_19h39.00.066,MetaAwareness,2020.1.2,Win32,60,37PGLWGSJU9DMZDTC539498YRMIIKZ,AD0G8LYCHN9LF,3NOKK93PR2B16EHRA27H9ISP59PEE6,PKON3,PKON3,3NOKK93PR2B16EHRA27H9ISP59PEE6,3NOKK93PR2B16EHRA27H9ISP59PEE6,271073,271073,,,,,,,,,,
,,,,3,4.01266,0,22,22,479,1,theres a tv mounted to the wall with nothing underneath it,theres a tv mounted to the wall with a soundbar underneath it,wolfe2,052_L_speaker,4,43,AD0G8LYCHN9LF,2021-01-24_19h39.00.066,MetaAwareness,2020.1.2,Win32,60,37PGLWGSJU9DMZDTC539498YRMIIKZ,AD0G8LYCHN9LF,3NOKK93PR2B16EHRA27H9ISP59PEE6,PKON3,PKON3,3NOKK93PR2B16EHRA27H9ISP59PEE6,3NOKK93PR2B16EHRA27H9ISP59PEE6,271073,271073,,,,,,,,,,
,,,,2,4.43799,0,23,23,623,1,a short side table without any objects on it,a short side table with a framed photo set on it,wolfe2,067_R_painting,4,43,AD0G8LYCHN9LF,2021-01-24_19h39.00.066,MetaAwareness,2020.1.2,Win32,60,37PGLWGSJU9DMZDTC539498YRMIIKZ,AD0G8LYCHN9LF,3NOKK93PR2B16EHRA27H9ISP59PEE6,PKON3,PKON3,3NOKK93PR2B16EHRA27H9ISP59PEE6,3NOKK93PR2B16EHRA27H9ISP59PEE6,271073,271073,,,,,,,,,,
,,,,3,4.14846,0,24,24,469,1,a charming victorian-style fireplace with a photo and a clock on the mantelpiece,"a charming victorian-style fireplace with a photo, a clock, and a small figurine on the mantelpiece",wolfe2,051_R_owl,1,43,AD0G8LYCHN9LF,2021-01-24_19h39.00.066,MetaAwareness,2020.1.2,Win32,60,37PGLWGSJU9DMZDTC539498YRMIIKZ,AD0G8LYCHN9LF,3NOKK93PR2B16EHRA27H9ISP59PEE6,PKON3,PKON3,3NOKK93PR2B16EHRA27H9ISP59PEE6,3NOKK93PR2B16EHRA27H9ISP59PEE6,271073,271073,,,,,,,,,,
,,,,2,4.28965,0,25,25,265,1,a bathroom with one hanging bath towel,a bathroom with two hanging bath towels,wolfe2,028_R_vase,4,43,AD0G8LYCHN9LF,2021-01-24_19h39.00.066,MetaAwareness,2020.1.2,Win32,60,37PGLWGSJU9DMZDTC539498YRMIIKZ,AD0G8LYCHN9LF,3NOKK93PR2B16EHRA27H9ISP59PEE6,PKON3,PKON3,3NOKK93PR2B16EHRA27H9ISP59PEE6,3NOKK93PR2B16EHRA27H9ISP59PEE6,271073,271073,,,,,,,,,,
,,,,2,2.568995,0,26,26,850,1,red colored washroom with several sinks and mirrors along with a smoke detector on the far wall.,red colored washroom with several sinks and mirrors,wolfe2,091_R_airfreshener,1,43,AD0G8LYCHN9LF,2021-01-24_19h39.00.066,MetaAwareness,2020.1.2,Win32,60,37PGLWGSJU9DMZDTC539498YRMIIKZ,AD0G8LYCHN9LF,3NOKK93PR2B16EHRA27H9ISP59PEE6,PKON3,PKON3,3NOKK93PR2B16EHRA27H9ISP59PEE6,3NOKK93PR2B16EHRA27H9ISP59PEE6,271073,271073,,,,,,,,,,
,,,,1,2.33356,0,27,27,222,1,"a modern sun porch with brick walls, rattan furniture, and a large television, with views of the garden outside","a moden sun porch with brick walls, rattan furniture, a tv remote on a side table, and a large television, with views of the garden outside",wolfe2,023_R_remote,4,43,AD0G8LYCHN9LF,2021-01-24_19h39.00.066,MetaAwareness,2020.1.2,Win32,60,37PGLWGSJU9DMZDTC539498YRMIIKZ,AD0G8LYCHN9LF,3NOKK93PR2B16EHRA27H9ISP59PEE6,PKON3,PKON3,3NOKK93PR2B16EHRA27H9ISP59PEE6,3NOKK93PR2B16EHRA27H9ISP59PEE6,271073,271073,,,,,,,,,,
,,,,4,3.231535,0,28,28,216,1,a patio with a tv,a patio with a tv and remote,wolfe2,023_L_remote,6,43,AD0G8LYCHN9LF,2021-01-24_19h39.00.066,MetaAwareness,2020.1.2,Win32,60,37PGLWGSJU9DMZDTC539498YRMIIKZ,AD0G8LYCHN9LF,3NOKK93PR2B16EHRA27H9ISP59PEE6,PKON3,PKON3,3NOKK93PR2B16EHRA27H9ISP59PEE6,3NOKK93PR2B16EHRA27H9ISP59PEE6,271073,271073,,,,,,,,,,
,,,,2,3.28399,0,29,29,379,1,there is an empty bowl atop the countertop in this large kitchen,there is a fruit filled bowl atop the countertop in this large kitchen,wolfe2,041_R_fruit,3,43,AD0G8LYCHN9LF,2021-01-24_19h39.00.066,MetaAwareness,2020.1.2,Win32,60,37PGLWGSJU9DMZDTC539498YRMIIKZ,AD0G8LYCHN9LF,3NOKK93PR2B16EHRA27H9ISP59PEE6,PKON3,PKON3,3NOKK93PR2B16EHRA27H9ISP59PEE6,3NOKK93PR2B16EHRA27H9ISP59PEE6,271073,271073,,,,,,,,,,
,,,,,,,,,,,,,,,,43,AD0G8LYCHN9LF,2021-01-24_19h39.00.066,MetaAwareness,2020.1.2,Win32,60,37PGLWGSJU9DMZDTC539498YRMIIKZ,AD0G8LYCHN9LF,3NOKK93PR2B16EHRA27H9ISP59PEE6,PKON3,PKON3,3NOKK93PR2B16EHRA27H9ISP59PEE6,3NOKK93PR2B16EHRA27H9ISP59PEE6,271073,271073,6,4.966465,someone laying underneath a blue beach umbrella on a crowded beach,someone laying underneath a blue beach umbrella on a crowded beach,same,1,4.119045,members of a marching band crossing a track that all have feather plumes at the front of their hats,a cluttered and rustic looking cafe with 10 hanging lights,different
