consent_response.keys,consent_response.rt,key_resp_2.keys,key_resp_2.rt,user_resp.keys,user_resp.rt,trials.thisRepN,trials.thisTrialN,trials.thisN,trials.thisIndex,trials.ran,image_1_text,image_2_text,database,image,number,age,worker_ID,date,expName,psychopyVersion,OS,frameRate,hitId,workerId,assignmentId,a,tp_a,b,tp_b,c,tp_c,catch_same_resp.keys,catch_same_resp.rt,image_1_text_catch_same,image_2_text_catch_same,image_catch_same,catch_different_resp.keys,catch_different_resp.rt,image_1_text_catch_different,image_2_text_catch_different,image_catch_different
space,3.29648,space,3.27627,3,12.57169,0,0,0,894,1,a contemporary bedroom with a wall lamp to the right of the bathroom entry.,a contemporary bedroom with no lamps to the right of the bathroom entry.,wolfe2,097_L_light,2,35,AJKB6GCZQNDUI,2021-01-24_20h40.41.323,MetaAwareness,2020.1.2,Win32,60,37PGLWGSJU9DMZDTC539498YRMIIKZ,AJKB6GCZQNDUI,35H6S234SB3XXGVJTJVGT0UZBI265C,4SH53,4SH53,35H6S234SB3XXGVJTJVGT0UZBI265C,35H6S234SB3XXGVJTJVGT0UZBI265C,271073,271073,,,,,,,,,,
,,,,5,15.927025,0,1,1,1050,1,a big hall with several furniture and night lamp present,a big hall with several furniture and lights are present,wolfe2,115_L_pot,1,35,AJKB6GCZQNDUI,2021-01-24_20h40.41.323,MetaAwareness,2020.1.2,Win32,60,37PGLWGSJU9DMZDTC539498YRMIIKZ,AJKB6GCZQNDUI,35H6S234SB3XXGVJTJVGT0UZBI265C,4SH53,4SH53,35H6S234SB3XXGVJTJVGT0UZBI265C,35H6S234SB3XXGVJTJVGT0UZBI265C,271073,271073,,,,,,,,,,
,,,,4,14.70165,0,2,2,891,1,a pink looking bedroom with a pink table that has a box on it,a pink looking bedroom with a pink table that has nothing on it,wolfe2,096_R_painting,3,35,AJKB6GCZQNDUI,2021-01-24_20h40.41.323,MetaAwareness,2020.1.2,Win32,60,37PGLWGSJU9DMZDTC539498YRMIIKZ,AJKB6GCZQNDUI,35H6S234SB3XXGVJTJVGT0UZBI265C,4SH53,4SH53,35H6S234SB3XXGVJTJVGT0UZBI265C,35H6S234SB3XXGVJTJVGT0UZBI265C,271073,271073,,,,,,,,,,
,,,,4,6.86805,0,3,3,316,1,a bedroom with a white chest of drawers that's missing a handle on the last drawer.,a bedroom with a white chest of drawers and all three drawers have handles.,wolfe2,034_R_handle,1,35,AJKB6GCZQNDUI,2021-01-24_20h40.41.323,MetaAwareness,2020.1.2,Win32,60,37PGLWGSJU9DMZDTC539498YRMIIKZ,AJKB6GCZQNDUI,35H6S234SB3XXGVJTJVGT0UZBI265C,4SH53,4SH53,35H6S234SB3XXGVJTJVGT0UZBI265C,35H6S234SB3XXGVJTJVGT0UZBI265C,271073,271073,,,,,,,,,,
,,,,3,12.08642,0,4,4,243,1,clean restroom without a storage shelf on the wall beneath the mirror,clean restroom with a storage shelf on the wall beneath the mirror,wolfe2,026_L_rack,3,35,AJKB6GCZQNDUI,2021-01-24_20h40.41.323,MetaAwareness,2020.1.2,Win32,60,37PGLWGSJU9DMZDTC539498YRMIIKZ,AJKB6GCZQNDUI,35H6S234SB3XXGVJTJVGT0UZBI265C,4SH53,4SH53,35H6S234SB3XXGVJTJVGT0UZBI265C,35H6S234SB3XXGVJTJVGT0UZBI265C,271073,271073,,,,,,,,,,
,,,,3,7.587805,0,5,5,704,1,"a bathroom with a large mirror, without a towel hanger","a bathroom with a large mirror, with a towel hanger.",wolfe2,076_L_hook,6,35,AJKB6GCZQNDUI,2021-01-24_20h40.41.323,MetaAwareness,2020.1.2,Win32,60,37PGLWGSJU9DMZDTC539498YRMIIKZ,AJKB6GCZQNDUI,35H6S234SB3XXGVJTJVGT0UZBI265C,4SH53,4SH53,35H6S234SB3XXGVJTJVGT0UZBI265C,35H6S234SB3XXGVJTJVGT0UZBI265C,271073,271073,,,,,,,,,,
,,,,2,6.450985,0,6,6,842,1,a maroon bedroom with hardwood floors and a tiny lamp on the floor,a maroon bedroom with hardwood floors,wolfe2,090_R_lamp,3,35,AJKB6GCZQNDUI,2021-01-24_20h40.41.323,MetaAwareness,2020.1.2,Win32,60,37PGLWGSJU9DMZDTC539498YRMIIKZ,AJKB6GCZQNDUI,35H6S234SB3XXGVJTJVGT0UZBI265C,4SH53,4SH53,35H6S234SB3XXGVJTJVGT0UZBI265C,35H6S234SB3XXGVJTJVGT0UZBI265C,271073,271073,,,,,,,,,,
,,,,2,5.853905,0,7,7,830,1,an empty salon containing two portraits of women,an empty salon containing one portrait of a woman,wolfe2,089_R_poster,1,35,AJKB6GCZQNDUI,2021-01-24_20h40.41.323,MetaAwareness,2020.1.2,Win32,60,37PGLWGSJU9DMZDTC539498YRMIIKZ,AJKB6GCZQNDUI,35H6S234SB3XXGVJTJVGT0UZBI265C,4SH53,4SH53,35H6S234SB3XXGVJTJVGT0UZBI265C,35H6S234SB3XXGVJTJVGT0UZBI265C,271073,271073,,,,,,,,,,
,,,,3,4.244925,0,8,8,194,1,a home office with nothing on the desk,a home office with a keyboard on the desk,wolfe2,021_L_keyboard,5,35,AJKB6GCZQNDUI,2021-01-24_20h40.41.323,MetaAwareness,2020.1.2,Win32,60,37PGLWGSJU9DMZDTC539498YRMIIKZ,AJKB6GCZQNDUI,35H6S234SB3XXGVJTJVGT0UZBI265C,4SH53,4SH53,35H6S234SB3XXGVJTJVGT0UZBI265C,35H6S234SB3XXGVJTJVGT0UZBI265C,271073,271073,,,,,,,,,,
,,,,3,7.234315,0,9,9,896,1,a spacious looking hotel room with a big bed and mirror behind the bed. there is a light on the wall near the mirror.,"a spacious looking hotel room, with a big bed, and mirror behind the bed. no light on the wall.",wolfe2,097_L_light,4,35,AJKB6GCZQNDUI,2021-01-24_20h40.41.323,MetaAwareness,2020.1.2,Win32,60,37PGLWGSJU9DMZDTC539498YRMIIKZ,AJKB6GCZQNDUI,35H6S234SB3XXGVJTJVGT0UZBI265C,4SH53,4SH53,35H6S234SB3XXGVJTJVGT0UZBI265C,35H6S234SB3XXGVJTJVGT0UZBI265C,271073,271073,,,,,,,,,,
,,,,4,7.9689,0,10,10,269,1,"a bathroom with white walls and black shelves, one of which has two red glasses","a bathroom with white walls and black shelves, one of which has a row of three red glasses",wolfe2,029_L_glass,4,35,AJKB6GCZQNDUI,2021-01-24_20h40.41.323,MetaAwareness,2020.1.2,Win32,60,37PGLWGSJU9DMZDTC539498YRMIIKZ,AJKB6GCZQNDUI,35H6S234SB3XXGVJTJVGT0UZBI265C,4SH53,4SH53,35H6S234SB3XXGVJTJVGT0UZBI265C,35H6S234SB3XXGVJTJVGT0UZBI265C,271073,271073,,,,,,,,,,
,,,,2,5.89785,0,11,11,953,1,a brown vase on a table in a cozy restaurant,a red candle placed on a table on a cozy restaurant,wolfe2,104_L_bottle,1,35,AJKB6GCZQNDUI,2021-01-24_20h40.41.323,MetaAwareness,2020.1.2,Win32,60,37PGLWGSJU9DMZDTC539498YRMIIKZ,AJKB6GCZQNDUI,35H6S234SB3XXGVJTJVGT0UZBI265C,4SH53,4SH53,35H6S234SB3XXGVJTJVGT0UZBI265C,35H6S234SB3XXGVJTJVGT0UZBI265C,271073,271073,,,,,,,,,,
,,,,3,8.334445,0,12,12,964,1,a bedroom with a mirrored closet and on the bed are some clothes and a red striped purse,a bedroom with a mirrored closet and on the bed are some clothes,wolfe2,105_L_hat,3,35,AJKB6GCZQNDUI,2021-01-24_20h40.41.323,MetaAwareness,2020.1.2,Win32,60,37PGLWGSJU9DMZDTC539498YRMIIKZ,AJKB6GCZQNDUI,35H6S234SB3XXGVJTJVGT0UZBI265C,4SH53,4SH53,35H6S234SB3XXGVJTJVGT0UZBI265C,35H6S234SB3XXGVJTJVGT0UZBI265C,271073,271073,,,,,,,,,,
,,,,2,7.048275,0,13,13,387,1,tranquil and modern bathroom with one faucet and two sink bowls,tranquil and modern bathroom with two faucets and sinks,wolfe2,042_L_tap,6,35,AJKB6GCZQNDUI,2021-01-24_20h40.41.323,MetaAwareness,2020.1.2,Win32,60,37PGLWGSJU9DMZDTC539498YRMIIKZ,AJKB6GCZQNDUI,35H6S234SB3XXGVJTJVGT0UZBI265C,4SH53,4SH53,35H6S234SB3XXGVJTJVGT0UZBI265C,35H6S234SB3XXGVJTJVGT0UZBI265C,271073,271073,,,,,,,,,,
,,,,1,2.536785,0,14,14,1176,1,mini cup,empty space,wolfe2,128_R_pot,3,35,AJKB6GCZQNDUI,2021-01-24_20h40.41.323,MetaAwareness,2020.1.2,Win32,60,37PGLWGSJU9DMZDTC539498YRMIIKZ,AJKB6GCZQNDUI,35H6S234SB3XXGVJTJVGT0UZBI265C,4SH53,4SH53,35H6S234SB3XXGVJTJVGT0UZBI265C,35H6S234SB3XXGVJTJVGT0UZBI265C,271073,271073,,,,,,,,,,
,,,,3,11.10497,0,15,15,1135,1,room with a big open window and four chairs with a table and a vase,room with a big open window and four chars with a table,wolfe2,124_L_vase,5,35,AJKB6GCZQNDUI,2021-01-24_20h40.41.323,MetaAwareness,2020.1.2,Win32,60,37PGLWGSJU9DMZDTC539498YRMIIKZ,AJKB6GCZQNDUI,35H6S234SB3XXGVJTJVGT0UZBI265C,4SH53,4SH53,35H6S234SB3XXGVJTJVGT0UZBI265C,35H6S234SB3XXGVJTJVGT0UZBI265C,271073,271073,,,,,,,,,,
,,,,4,5.084095,0,16,16,739,1,"a kitchen with white cabinets, wood countertops, a baker's rack and black shelving in the corner with 1 small plant","a kitchen with white cabinets, wood countertop, a baker's rack and black shelving in the corner with 2 small plants",wolfe2,080_L_plant,2,35,AJKB6GCZQNDUI,2021-01-24_20h40.41.323,MetaAwareness,2020.1.2,Win32,60,37PGLWGSJU9DMZDTC539498YRMIIKZ,AJKB6GCZQNDUI,35H6S234SB3XXGVJTJVGT0UZBI265C,4SH53,4SH53,35H6S234SB3XXGVJTJVGT0UZBI265C,35H6S234SB3XXGVJTJVGT0UZBI265C,271073,271073,,,,,,,,,,
,,,,3,7.55203,0,17,17,61,1,a colorful bathroom with a empty white tray.,a colorful bathroom with a small pot on the white tray.,wolfe2,007_L_soap,5,35,AJKB6GCZQNDUI,2021-01-24_20h40.41.323,MetaAwareness,2020.1.2,Win32,60,37PGLWGSJU9DMZDTC539498YRMIIKZ,AJKB6GCZQNDUI,35H6S234SB3XXGVJTJVGT0UZBI265C,4SH53,4SH53,35H6S234SB3XXGVJTJVGT0UZBI265C,35H6S234SB3XXGVJTJVGT0UZBI265C,271073,271073,,,,,,,,,,
,,,,3,14.18632,0,18,18,128,1,a modern office with glass walls and a hanging light,a modern office with glass walls and two hanging lights,wolfe2,013_R_lamp,4,35,AJKB6GCZQNDUI,2021-01-24_20h40.41.323,MetaAwareness,2020.1.2,Win32,60,37PGLWGSJU9DMZDTC539498YRMIIKZ,AJKB6GCZQNDUI,35H6S234SB3XXGVJTJVGT0UZBI265C,4SH53,4SH53,35H6S234SB3XXGVJTJVGT0UZBI265C,35H6S234SB3XXGVJTJVGT0UZBI265C,271073,271073,,,,,,,,,,
,,,,3,3.464925,0,19,19,120,1,a high end modern living room with a single hanging light,a high end modern living room with two hanging lights,wolfe2,013_L_lamp,4,35,AJKB6GCZQNDUI,2021-01-24_20h40.41.323,MetaAwareness,2020.1.2,Win32,60,37PGLWGSJU9DMZDTC539498YRMIIKZ,AJKB6GCZQNDUI,35H6S234SB3XXGVJTJVGT0UZBI265C,4SH53,4SH53,35H6S234SB3XXGVJTJVGT0UZBI265C,35H6S234SB3XXGVJTJVGT0UZBI265C,271073,271073,,,,,,,,,,
,,,,2,4.93492,0,20,20,621,1,there is a bare side table in this large meeting room,there is a photograph atop a side table in this large meeting room,wolfe2,067_R_painting,2,35,AJKB6GCZQNDUI,2021-01-24_20h40.41.323,MetaAwareness,2020.1.2,Win32,60,37PGLWGSJU9DMZDTC539498YRMIIKZ,AJKB6GCZQNDUI,35H6S234SB3XXGVJTJVGT0UZBI265C,4SH53,4SH53,35H6S234SB3XXGVJTJVGT0UZBI265C,35H6S234SB3XXGVJTJVGT0UZBI265C,271073,271073,,,,,,,,,,
,,,,3,5.22447,0,21,21,497,1,"the living room has a large bookshelf, comfortable couch, and a convenient nook in the wall.","the living room has a large bookshelf, comfortable couch, and small nook full of firewood",wolfe2,054_R_firewood,2,35,AJKB6GCZQNDUI,2021-01-24_20h40.41.323,MetaAwareness,2020.1.2,Win32,60,37PGLWGSJU9DMZDTC539498YRMIIKZ,AJKB6GCZQNDUI,35H6S234SB3XXGVJTJVGT0UZBI265C,4SH53,4SH53,35H6S234SB3XXGVJTJVGT0UZBI265C,35H6S234SB3XXGVJTJVGT0UZBI265C,271073,271073,,,,,,,,,,
,,,,3,7.223395,0,22,22,607,1,modern looking space with black white and red furniture,"modern living space with black, white and red furniture including a pole",wolfe2,066_L_vase,1,35,AJKB6GCZQNDUI,2021-01-24_20h40.41.323,MetaAwareness,2020.1.2,Win32,60,37PGLWGSJU9DMZDTC539498YRMIIKZ,AJKB6GCZQNDUI,35H6S234SB3XXGVJTJVGT0UZBI265C,4SH53,4SH53,35H6S234SB3XXGVJTJVGT0UZBI265C,35H6S234SB3XXGVJTJVGT0UZBI265C,271073,271073,,,,,,,,,,
,,,,3,15.484395,0,23,23,906,1,an unkempt bedroom with a towel on the floor,an unkempt bedroom with no towel on the floor,wolfe2,098_R_slippers,1,35,AJKB6GCZQNDUI,2021-01-24_20h40.41.323,MetaAwareness,2020.1.2,Win32,60,37PGLWGSJU9DMZDTC539498YRMIIKZ,AJKB6GCZQNDUI,35H6S234SB3XXGVJTJVGT0UZBI265C,4SH53,4SH53,35H6S234SB3XXGVJTJVGT0UZBI265C,35H6S234SB3XXGVJTJVGT0UZBI265C,271073,271073,,,,,,,,,,
,,,,1,3.892705,0,24,24,382,1,it is an empty wall,it has a water pipe,wolfe2,042_L_tap,1,35,AJKB6GCZQNDUI,2021-01-24_20h40.41.323,MetaAwareness,2020.1.2,Win32,60,37PGLWGSJU9DMZDTC539498YRMIIKZ,AJKB6GCZQNDUI,35H6S234SB3XXGVJTJVGT0UZBI265C,4SH53,4SH53,35H6S234SB3XXGVJTJVGT0UZBI265C,35H6S234SB3XXGVJTJVGT0UZBI265C,271073,271073,,,,,,,,,,
,,,,2,3.284435,0,25,25,167,1,a porch with two chairs and plants in the yard that are mostly low in height,"a porch with two chairs and plants in the yard that are mostly low in height, except one on the left side of the porch that is very tall.",wolfe2,018_L_plant,3,35,AJKB6GCZQNDUI,2021-01-24_20h40.41.323,MetaAwareness,2020.1.2,Win32,60,37PGLWGSJU9DMZDTC539498YRMIIKZ,AJKB6GCZQNDUI,35H6S234SB3XXGVJTJVGT0UZBI265C,4SH53,4SH53,35H6S234SB3XXGVJTJVGT0UZBI265C,35H6S234SB3XXGVJTJVGT0UZBI265C,271073,271073,,,,,,,,,,
,,,,2,2.781495,0,26,26,1027,1,a bright sunroom with fan and red seating with magazines in a basket,a bright sunroom with fan and red seating,wolfe2,112_L_basket,2,35,AJKB6GCZQNDUI,2021-01-24_20h40.41.323,MetaAwareness,2020.1.2,Win32,60,37PGLWGSJU9DMZDTC539498YRMIIKZ,AJKB6GCZQNDUI,35H6S234SB3XXGVJTJVGT0UZBI265C,4SH53,4SH53,35H6S234SB3XXGVJTJVGT0UZBI265C,35H6S234SB3XXGVJTJVGT0UZBI265C,271073,271073,,,,,,,,,,
,,,,4,3.472675,0,27,27,990,1,a clothing rack with a white shirt outside of the rack at the end,a clothing rack with a white shirt inside of the rack,wolfe2,107_L_shirts,5,35,AJKB6GCZQNDUI,2021-01-24_20h40.41.323,MetaAwareness,2020.1.2,Win32,60,37PGLWGSJU9DMZDTC539498YRMIIKZ,AJKB6GCZQNDUI,35H6S234SB3XXGVJTJVGT0UZBI265C,4SH53,4SH53,35H6S234SB3XXGVJTJVGT0UZBI265C,35H6S234SB3XXGVJTJVGT0UZBI265C,271073,271073,,,,,,,,,,
,,,,2,9.86962,0,28,28,280,1,this image is plain and boring.  it needs color and some variety to make it better.,the drawer doesn't really help the plainess of this room.  still needs color or a pop of something.,wolfe2,030_R_drawer,1,35,AJKB6GCZQNDUI,2021-01-24_20h40.41.323,MetaAwareness,2020.1.2,Win32,60,37PGLWGSJU9DMZDTC539498YRMIIKZ,AJKB6GCZQNDUI,35H6S234SB3XXGVJTJVGT0UZBI265C,4SH53,4SH53,35H6S234SB3XXGVJTJVGT0UZBI265C,35H6S234SB3XXGVJTJVGT0UZBI265C,271073,271073,,,,,,,,,,
,,,,2,9.317545,0,29,29,1116,1,"a well-lit room with several empty chairs and tables, with one tablein the corner having two chairs","a well-lit room with several empty chairs and tables, with one chair missing from a table in the corner",wolfe2,122_L_chair,4,35,AJKB6GCZQNDUI,2021-01-24_20h40.41.323,MetaAwareness,2020.1.2,Win32,60,37PGLWGSJU9DMZDTC539498YRMIIKZ,AJKB6GCZQNDUI,35H6S234SB3XXGVJTJVGT0UZBI265C,4SH53,4SH53,35H6S234SB3XXGVJTJVGT0UZBI265C,35H6S234SB3XXGVJTJVGT0UZBI265C,271073,271073,,,,,,,,,,
,,,,,,,,,,,,,,,,35,AJKB6GCZQNDUI,2021-01-24_20h40.41.323,MetaAwareness,2020.1.2,Win32,60,37PGLWGSJU9DMZDTC539498YRMIIKZ,AJKB6GCZQNDUI,35H6S234SB3XXGVJTJVGT0UZBI265C,4SH53,4SH53,35H6S234SB3XXGVJTJVGT0UZBI265C,35H6S234SB3XXGVJTJVGT0UZBI265C,271073,271073,6,9.66953,someone laying underneath a blue beach umbrella on a crowded beach,someone laying underneath a blue beach umbrella on a crowded beach,same,1,8.891285,members of a marching band crossing a track that all have feather plumes at the front of their hats,a cluttered and rustic looking cafe with 10 hanging lights,different
