consent_response.keys,consent_response.rt,key_resp_2.keys,key_resp_2.rt,user_resp.keys,user_resp.rt,trials.thisRepN,trials.thisTrialN,trials.thisN,trials.thisIndex,trials.ran,image_1_text,image_2_text,database,image,number,age,worker_ID,date,expName,psychopyVersion,OS,frameRate,hitId,workerId,assignmentId,a,tp_a,b,tp_b,c,tp_c,catch_same_resp.keys,catch_same_resp.rt,image_1_text_catch_same,image_2_text_catch_same,image_catch_same,catch_different_resp.keys,catch_different_resp.rt,image_1_text_catch_different,image_2_text_catch_different,image_catch_different
space,13.482145,space,49.439035,5,5.672465,0,0,0,294,1,a bathroom with a soap dispenser on the wall,a bathroom with 2 soap dispensers on the wall,wolfe2,032_L_bottle,1,39,AXMPSUNKUBEIL,2021-01-24_18h39.16.731,MetaAwareness,2020.1.2,Win32,60,3YZ7A3YHR6WZYUVMAUTH6MV33UO5SS,AXMPSUNKUBEIL,3RXCAC0YISSIHR3R3UB5HBHF7M1G8L,YAXR3,YAXR3,3RXCAC0YISSIHR3R3UB5HBHF7M1G8L,3RXCAC0YISSIHR3R3UB5HBHF7M1G8L,271073,271073,,,,,,,,,,
,,,,4,6.80637,0,1,1,636,1,"a fireplace, table, mirror and bookshelf all wooden","a wooden fireplace, table, mirror and bookshelf with candles",wolfe2,069_L_things,2,39,AXMPSUNKUBEIL,2021-01-24_18h39.16.731,MetaAwareness,2020.1.2,Win32,60,3YZ7A3YHR6WZYUVMAUTH6MV33UO5SS,AXMPSUNKUBEIL,3RXCAC0YISSIHR3R3UB5HBHF7M1G8L,YAXR3,YAXR3,3RXCAC0YISSIHR3R3UB5HBHF7M1G8L,3RXCAC0YISSIHR3R3UB5HBHF7M1G8L,271073,271073,,,,,,,,,,
,,,,3,3.991685,0,2,2,350,1,"a brown, retro dining room without a long sculpture hanging on the wall","a brown, retro dining room with a long sculpture hanging on the wall",wolfe2,038_L_art,3,39,AXMPSUNKUBEIL,2021-01-24_18h39.16.731,MetaAwareness,2020.1.2,Win32,60,3YZ7A3YHR6WZYUVMAUTH6MV33UO5SS,AXMPSUNKUBEIL,3RXCAC0YISSIHR3R3UB5HBHF7M1G8L,YAXR3,YAXR3,3RXCAC0YISSIHR3R3UB5HBHF7M1G8L,3RXCAC0YISSIHR3R3UB5HBHF7M1G8L,271073,271073,,,,,,,,,,
,,,,4,5.110355,0,3,3,413,1,a large bathroom with one light on the bathtub,a large bathroom with two lights on the bathtub,wolfe2,044_R_light,5,39,AXMPSUNKUBEIL,2021-01-24_18h39.16.731,MetaAwareness,2020.1.2,Win32,60,3YZ7A3YHR6WZYUVMAUTH6MV33UO5SS,AXMPSUNKUBEIL,3RXCAC0YISSIHR3R3UB5HBHF7M1G8L,YAXR3,YAXR3,3RXCAC0YISSIHR3R3UB5HBHF7M1G8L,3RXCAC0YISSIHR3R3UB5HBHF7M1G8L,271073,271073,,,,,,,,,,
,,,,4,8.477435,0,4,4,158,1,a red and white living room with large windows and an unlit fireplace,a red and white livving room with large windows and a lit fireplace,wolfe2,017_L_wood,2,39,AXMPSUNKUBEIL,2021-01-24_18h39.16.731,MetaAwareness,2020.1.2,Win32,60,3YZ7A3YHR6WZYUVMAUTH6MV33UO5SS,AXMPSUNKUBEIL,3RXCAC0YISSIHR3R3UB5HBHF7M1G8L,YAXR3,YAXR3,3RXCAC0YISSIHR3R3UB5HBHF7M1G8L,3RXCAC0YISSIHR3R3UB5HBHF7M1G8L,271073,271073,,,,,,,,,,
,,,,4,6.43031,0,5,5,824,1,an empty barbershop with black chairs,an empty barbershop with black chairs and a smoke detector,wolfe2,088_R_clock,4,39,AXMPSUNKUBEIL,2021-01-24_18h39.16.731,MetaAwareness,2020.1.2,Win32,60,3YZ7A3YHR6WZYUVMAUTH6MV33UO5SS,AXMPSUNKUBEIL,3RXCAC0YISSIHR3R3UB5HBHF7M1G8L,YAXR3,YAXR3,3RXCAC0YISSIHR3R3UB5HBHF7M1G8L,3RXCAC0YISSIHR3R3UB5HBHF7M1G8L,271073,271073,,,,,,,,,,
,,,,4,7.07227,0,6,6,969,1,a bedroom with laundry and a hat on the bed,a bedroom with laundry on the bed,wolfe2,105_R_hat,3,39,AXMPSUNKUBEIL,2021-01-24_18h39.16.731,MetaAwareness,2020.1.2,Win32,60,3YZ7A3YHR6WZYUVMAUTH6MV33UO5SS,AXMPSUNKUBEIL,3RXCAC0YISSIHR3R3UB5HBHF7M1G8L,YAXR3,YAXR3,3RXCAC0YISSIHR3R3UB5HBHF7M1G8L,3RXCAC0YISSIHR3R3UB5HBHF7M1G8L,271073,271073,,,,,,,,,,
,,,,5,3.75244,0,7,7,949,1,bright and clean washroom with a hook on the far wall.,bright and clean washroom,wolfe2,103_R_hook,2,39,AXMPSUNKUBEIL,2021-01-24_18h39.16.731,MetaAwareness,2020.1.2,Win32,60,3YZ7A3YHR6WZYUVMAUTH6MV33UO5SS,AXMPSUNKUBEIL,3RXCAC0YISSIHR3R3UB5HBHF7M1G8L,YAXR3,YAXR3,3RXCAC0YISSIHR3R3UB5HBHF7M1G8L,3RXCAC0YISSIHR3R3UB5HBHF7M1G8L,271073,271073,,,,,,,,,,
,,,,3,5.263825,0,8,8,165,1,porch or covered outside area with some small plants,porch with plants and one noticable taller tree than the rest,wolfe2,018_L_plant,1,39,AXMPSUNKUBEIL,2021-01-24_18h39.16.731,MetaAwareness,2020.1.2,Win32,60,3YZ7A3YHR6WZYUVMAUTH6MV33UO5SS,AXMPSUNKUBEIL,3RXCAC0YISSIHR3R3UB5HBHF7M1G8L,YAXR3,YAXR3,3RXCAC0YISSIHR3R3UB5HBHF7M1G8L,3RXCAC0YISSIHR3R3UB5HBHF7M1G8L,271073,271073,,,,,,,,,,
,,,,2,3.20523,0,9,9,1142,1,stylized living room with water view with a basket by the window,modern-style living room,wolfe2,125_L_sofa,2,39,AXMPSUNKUBEIL,2021-01-24_18h39.16.731,MetaAwareness,2020.1.2,Win32,60,3YZ7A3YHR6WZYUVMAUTH6MV33UO5SS,AXMPSUNKUBEIL,3RXCAC0YISSIHR3R3UB5HBHF7M1G8L,YAXR3,YAXR3,3RXCAC0YISSIHR3R3UB5HBHF7M1G8L,3RXCAC0YISSIHR3R3UB5HBHF7M1G8L,271073,271073,,,,,,,,,,
,,,,5,5.047265,0,10,10,1017,1,a house witha few of the backyard with pool. small plant in the corner of the room,a house with a view of the backyard with a pool. no plant in the corner of the room,wolfe2,110_R_plant,5,39,AXMPSUNKUBEIL,2021-01-24_18h39.16.731,MetaAwareness,2020.1.2,Win32,60,3YZ7A3YHR6WZYUVMAUTH6MV33UO5SS,AXMPSUNKUBEIL,3RXCAC0YISSIHR3R3UB5HBHF7M1G8L,YAXR3,YAXR3,3RXCAC0YISSIHR3R3UB5HBHF7M1G8L,3RXCAC0YISSIHR3R3UB5HBHF7M1G8L,271073,271073,,,,,,,,,,
,,,,4,3.40213,0,11,11,914,1,a white dining room with no small mirrors on the wall,a white dining room with a small mirror on the wall,wolfe2,099_L_sconce,4,39,AXMPSUNKUBEIL,2021-01-24_18h39.16.731,MetaAwareness,2020.1.2,Win32,60,3YZ7A3YHR6WZYUVMAUTH6MV33UO5SS,AXMPSUNKUBEIL,3RXCAC0YISSIHR3R3UB5HBHF7M1G8L,YAXR3,YAXR3,3RXCAC0YISSIHR3R3UB5HBHF7M1G8L,3RXCAC0YISSIHR3R3UB5HBHF7M1G8L,271073,271073,,,,,,,,,,
,,,,5,5.988175,0,12,12,536,1,a bedroom with a lot of pink in it . with a nightstand that has a furry surface.,a bedroom that has a lot of pink in it with a purse on the nightstand that has a furry surface.,wolfe2,058_R_clutch,2,39,AXMPSUNKUBEIL,2021-01-24_18h39.16.731,MetaAwareness,2020.1.2,Win32,60,3YZ7A3YHR6WZYUVMAUTH6MV33UO5SS,AXMPSUNKUBEIL,3RXCAC0YISSIHR3R3UB5HBHF7M1G8L,YAXR3,YAXR3,3RXCAC0YISSIHR3R3UB5HBHF7M1G8L,3RXCAC0YISSIHR3R3UB5HBHF7M1G8L,271073,271073,,,,,,,,,,
,,,,5,6.042095,0,13,13,19,1,a beautiful mountain cabin with windows looking out over a lake,a beautiful mountain cabit with windows looking out over a lake that has three white birds swimming in it,wolfe2,003_L_ducks,2,39,AXMPSUNKUBEIL,2021-01-24_18h39.16.731,MetaAwareness,2020.1.2,Win32,60,3YZ7A3YHR6WZYUVMAUTH6MV33UO5SS,AXMPSUNKUBEIL,3RXCAC0YISSIHR3R3UB5HBHF7M1G8L,YAXR3,YAXR3,3RXCAC0YISSIHR3R3UB5HBHF7M1G8L,3RXCAC0YISSIHR3R3UB5HBHF7M1G8L,271073,271073,,,,,,,,,,
,,,,4,3.306995,0,14,14,80,1,a bedroom with a sitting area near the bed,a bedroom with a sitting area on top of a circular rug,wolfe2,009_L_carpet,2,39,AXMPSUNKUBEIL,2021-01-24_18h39.16.731,MetaAwareness,2020.1.2,Win32,60,3YZ7A3YHR6WZYUVMAUTH6MV33UO5SS,AXMPSUNKUBEIL,3RXCAC0YISSIHR3R3UB5HBHF7M1G8L,YAXR3,YAXR3,3RXCAC0YISSIHR3R3UB5HBHF7M1G8L,3RXCAC0YISSIHR3R3UB5HBHF7M1G8L,271073,271073,,,,,,,,,,
,,,,4,5.88758,0,15,15,94,1,very nice bedroom with two candle sticks on the night stand next to the bed. one of the candles is missing from the candle sticks,very nice bedroom with two candle sticks on the night stand next to the bed. there are two candles in the two candle sticks,wolfe2,010_R_candle,3,39,AXMPSUNKUBEIL,2021-01-24_18h39.16.731,MetaAwareness,2020.1.2,Win32,60,3YZ7A3YHR6WZYUVMAUTH6MV33UO5SS,AXMPSUNKUBEIL,3RXCAC0YISSIHR3R3UB5HBHF7M1G8L,YAXR3,YAXR3,3RXCAC0YISSIHR3R3UB5HBHF7M1G8L,3RXCAC0YISSIHR3R3UB5HBHF7M1G8L,271073,271073,,,,,,,,,,
,,,,4,10.802345,0,16,16,1108,1,"an airy bedroom that has a nightstand next to the bed with a lamp and something black on the top shelf, and books on the bottom shelf","an airy beedroom that has a nightstand next to the bed with only a lamp on the top shelf, and books on the bottom shelf",wolfe2,121_R_car,2,39,AXMPSUNKUBEIL,2021-01-24_18h39.16.731,MetaAwareness,2020.1.2,Win32,60,3YZ7A3YHR6WZYUVMAUTH6MV33UO5SS,AXMPSUNKUBEIL,3RXCAC0YISSIHR3R3UB5HBHF7M1G8L,YAXR3,YAXR3,3RXCAC0YISSIHR3R3UB5HBHF7M1G8L,3RXCAC0YISSIHR3R3UB5HBHF7M1G8L,271073,271073,,,,,,,,,,
,,,,5,1.824875,0,17,17,1090,1,it is a picture of a grand room with art photos to the left and right of the glass door.,it is a picture of a grand room with an art photo to the left of the glass doors.,wolfe2,119_R_painting,1,39,AXMPSUNKUBEIL,2021-01-24_18h39.16.731,MetaAwareness,2020.1.2,Win32,60,3YZ7A3YHR6WZYUVMAUTH6MV33UO5SS,AXMPSUNKUBEIL,3RXCAC0YISSIHR3R3UB5HBHF7M1G8L,YAXR3,YAXR3,3RXCAC0YISSIHR3R3UB5HBHF7M1G8L,3RXCAC0YISSIHR3R3UB5HBHF7M1G8L,271073,271073,,,,,,,,,,
,,,,1,2.48516,0,18,18,188,1,round design has,round design has been missing,wolfe2,020_R_walldeco,3,39,AXMPSUNKUBEIL,2021-01-24_18h39.16.731,MetaAwareness,2020.1.2,Win32,60,3YZ7A3YHR6WZYUVMAUTH6MV33UO5SS,AXMPSUNKUBEIL,3RXCAC0YISSIHR3R3UB5HBHF7M1G8L,YAXR3,YAXR3,3RXCAC0YISSIHR3R3UB5HBHF7M1G8L,3RXCAC0YISSIHR3R3UB5HBHF7M1G8L,271073,271073,,,,,,,,,,
,,,,5,4.034005,0,19,19,986,1,a mirrored fitting room with clothes hangin on both sides of the clothes rack,a mirrored fitting room with clothes inside the left support of the clothes rack,wolfe2,107_L_shirts,1,39,AXMPSUNKUBEIL,2021-01-24_18h39.16.731,MetaAwareness,2020.1.2,Win32,60,3YZ7A3YHR6WZYUVMAUTH6MV33UO5SS,AXMPSUNKUBEIL,3RXCAC0YISSIHR3R3UB5HBHF7M1G8L,YAXR3,YAXR3,3RXCAC0YISSIHR3R3UB5HBHF7M1G8L,3RXCAC0YISSIHR3R3UB5HBHF7M1G8L,271073,271073,,,,,,,,,,
,,,,5,7.25459,0,20,20,4,1,"a master bedroom with green walls. on the walls are a tapestry of a swan, and a picture of nature.","a master bedroom with green walls. on the walls are a tapestry of a swan, a picture of nature, and a mirror.",wolfe2,001_L_mirror,5,39,AXMPSUNKUBEIL,2021-01-24_18h39.16.731,MetaAwareness,2020.1.2,Win32,60,3YZ7A3YHR6WZYUVMAUTH6MV33UO5SS,AXMPSUNKUBEIL,3RXCAC0YISSIHR3R3UB5HBHF7M1G8L,YAXR3,YAXR3,3RXCAC0YISSIHR3R3UB5HBHF7M1G8L,3RXCAC0YISSIHR3R3UB5HBHF7M1G8L,271073,271073,,,,,,,,,,
,,,,4,3.181055,0,21,21,89,1,a bedroom with 2 candlesticks on a nightstand where only one has a candle,a bedroom with 2 candlesticks on a nightstand where both have a candle,wolfe2,010_L_candle,3,39,AXMPSUNKUBEIL,2021-01-24_18h39.16.731,MetaAwareness,2020.1.2,Win32,60,3YZ7A3YHR6WZYUVMAUTH6MV33UO5SS,AXMPSUNKUBEIL,3RXCAC0YISSIHR3R3UB5HBHF7M1G8L,YAXR3,YAXR3,3RXCAC0YISSIHR3R3UB5HBHF7M1G8L,3RXCAC0YISSIHR3R3UB5HBHF7M1G8L,271073,271073,,,,,,,,,,
,,,,3,2.19529,0,22,22,310,1,it is a picture of a living room with shelves along the wall.,"it is a picture of a living room with shelves along the wall, including a large vase on the top shelf.",wolfe2,033_R_vase,4,39,AXMPSUNKUBEIL,2021-01-24_18h39.16.731,MetaAwareness,2020.1.2,Win32,60,3YZ7A3YHR6WZYUVMAUTH6MV33UO5SS,AXMPSUNKUBEIL,3RXCAC0YISSIHR3R3UB5HBHF7M1G8L,YAXR3,YAXR3,3RXCAC0YISSIHR3R3UB5HBHF7M1G8L,3RXCAC0YISSIHR3R3UB5HBHF7M1G8L,271073,271073,,,,,,,,,,
,,,,5,2.0532,0,23,23,564,1,"a traditional dining room with a chandelier, floral accent pillows, dark wood furniture, and a set table with several goblets","a traditional dining room with a chandelier, floral accent pillows, dark wood furniture, and a set table with with about half a dozen goblets",wolfe2,061_R_glass,3,39,AXMPSUNKUBEIL,2021-01-24_18h39.16.731,MetaAwareness,2020.1.2,Win32,60,3YZ7A3YHR6WZYUVMAUTH6MV33UO5SS,AXMPSUNKUBEIL,3RXCAC0YISSIHR3R3UB5HBHF7M1G8L,YAXR3,YAXR3,3RXCAC0YISSIHR3R3UB5HBHF7M1G8L,3RXCAC0YISSIHR3R3UB5HBHF7M1G8L,271073,271073,,,,,,,,,,
,,,,4,3.957535,0,24,24,479,1,theres a tv mounted to the wall with nothing underneath it,theres a tv mounted to the wall with a soundbar underneath it,wolfe2,052_L_speaker,4,39,AXMPSUNKUBEIL,2021-01-24_18h39.16.731,MetaAwareness,2020.1.2,Win32,60,3YZ7A3YHR6WZYUVMAUTH6MV33UO5SS,AXMPSUNKUBEIL,3RXCAC0YISSIHR3R3UB5HBHF7M1G8L,YAXR3,YAXR3,3RXCAC0YISSIHR3R3UB5HBHF7M1G8L,3RXCAC0YISSIHR3R3UB5HBHF7M1G8L,271073,271073,,,,,,,,,,
,,,,4,2.614055,0,25,25,185,1,a small office with two discs on the wall,a small office with three discs on the wall,wolfe2,020_L_walldeco,4,39,AXMPSUNKUBEIL,2021-01-24_18h39.16.731,MetaAwareness,2020.1.2,Win32,60,3YZ7A3YHR6WZYUVMAUTH6MV33UO5SS,AXMPSUNKUBEIL,3RXCAC0YISSIHR3R3UB5HBHF7M1G8L,YAXR3,YAXR3,3RXCAC0YISSIHR3R3UB5HBHF7M1G8L,3RXCAC0YISSIHR3R3UB5HBHF7M1G8L,271073,271073,,,,,,,,,,
,,,,5,4.279225,0,26,26,804,1,a stylish apartment with a table holding a book.,a stylish apartment with a table without a book.,wolfe2,086_L_book,4,39,AXMPSUNKUBEIL,2021-01-24_18h39.16.731,MetaAwareness,2020.1.2,Win32,60,3YZ7A3YHR6WZYUVMAUTH6MV33UO5SS,AXMPSUNKUBEIL,3RXCAC0YISSIHR3R3UB5HBHF7M1G8L,YAXR3,YAXR3,3RXCAC0YISSIHR3R3UB5HBHF7M1G8L,3RXCAC0YISSIHR3R3UB5HBHF7M1G8L,271073,271073,,,,,,,,,,
,,,,5,1.65067,0,27,27,50,1,"a bedroom with hardwood floors, matching wood furniture and a lamp on the night stand","a bedroom with hardwoo floors, matching wood furniture and a lamp on the night stand",wolfe2,006_L_vase,7,39,AXMPSUNKUBEIL,2021-01-24_18h39.16.731,MetaAwareness,2020.1.2,Win32,60,3YZ7A3YHR6WZYUVMAUTH6MV33UO5SS,AXMPSUNKUBEIL,3RXCAC0YISSIHR3R3UB5HBHF7M1G8L,YAXR3,YAXR3,3RXCAC0YISSIHR3R3UB5HBHF7M1G8L,3RXCAC0YISSIHR3R3UB5HBHF7M1G8L,271073,271073,,,,,,,,,,
,,,,3,2.118305,0,28,28,973,1,a spacious house with a notable consumer box mounted on th wall  beside the door,a spacious house without a consumerbox mounted on the wall beside the door,wolfe2,106_L_toweldispenser,3,39,AXMPSUNKUBEIL,2021-01-24_18h39.16.731,MetaAwareness,2020.1.2,Win32,60,3YZ7A3YHR6WZYUVMAUTH6MV33UO5SS,AXMPSUNKUBEIL,3RXCAC0YISSIHR3R3UB5HBHF7M1G8L,YAXR3,YAXR3,3RXCAC0YISSIHR3R3UB5HBHF7M1G8L,3RXCAC0YISSIHR3R3UB5HBHF7M1G8L,271073,271073,,,,,,,,,,
,,,,5,1.542805,0,29,29,850,1,red colored washroom with several sinks and mirrors along with a smoke detector on the far wall.,red colored washroom with several sinks and mirrors,wolfe2,091_R_airfreshener,1,39,AXMPSUNKUBEIL,2021-01-24_18h39.16.731,MetaAwareness,2020.1.2,Win32,60,3YZ7A3YHR6WZYUVMAUTH6MV33UO5SS,AXMPSUNKUBEIL,3RXCAC0YISSIHR3R3UB5HBHF7M1G8L,YAXR3,YAXR3,3RXCAC0YISSIHR3R3UB5HBHF7M1G8L,3RXCAC0YISSIHR3R3UB5HBHF7M1G8L,271073,271073,,,,,,,,,,
,,,,,,,,,,,,,,,,39,AXMPSUNKUBEIL,2021-01-24_18h39.16.731,MetaAwareness,2020.1.2,Win32,60,3YZ7A3YHR6WZYUVMAUTH6MV33UO5SS,AXMPSUNKUBEIL,3RXCAC0YISSIHR3R3UB5HBHF7M1G8L,YAXR3,YAXR3,3RXCAC0YISSIHR3R3UB5HBHF7M1G8L,3RXCAC0YISSIHR3R3UB5HBHF7M1G8L,271073,271073,2,1.075185,someone laying underneath a blue beach umbrella on a crowded beach,someone laying underneath a blue beach umbrella on a crowded beach,same,1,5.052825,members of a marching band crossing a track that all have feather plumes at the front of their hats,a cluttered and rustic looking cafe with 10 hanging lights,different
