consent_response.keys,consent_response.rt,key_resp_2.keys,key_resp_2.rt,Airplane_resp.keys,Airplane_resp.rt,Boat_resp.keys,Boat_resp.rt,user_resp.keys,user_resp.rt,trials.thisRepN,trials.thisTrialN,trials.thisN,trials.thisIndex,trials.ran,workerId,trial_num,image_a,image_b,age,gender (m/f),worker_ID,date,expName,psychopyVersion,OS,frameRate,hitId,assignmentId,a,tp_a,b,tp_b,c,tp_c,Cow_resp.keys,Cow_resp.rt,Garden_resp.keys,Garden_resp.rt
space,18.645775,space,23.976375,5,10.52103,5,3.34928,4,5.74302,0,0,0,28,1,A146MSML39KY98,47,rensink_Window-a_w_outline.jpg,rensink_Window-b_w_outline.jpg,62,f,A146MSML39KY98,2020-12-08_17h05.49.206,MetaAwareness,2020.1.2,Win32,60,3CRWSLD91L7I89OZVCTU3JWOQLCOM9,3LKC68YZ3B6HZ5G7PG4J00T3BJXWO8,Z6KL3,Z6KL3,3LKC68YZ3B6HZ5G7PG4J00T3BJXWO8,3LKC68YZ3B6HZ5G7PG4J00T3BJXWO8,262733,262733,,,,
,,,,,,,,5,6.550805,0,1,1,23,1,A146MSML39KY98,38,rensink_Obelisk-a_w_outline.jpg,rensink_Obelisk-b_w_outline.jpg,62,f,A146MSML39KY98,2020-12-08_17h05.49.206,MetaAwareness,2020.1.2,Win32,60,3CRWSLD91L7I89OZVCTU3JWOQLCOM9,3LKC68YZ3B6HZ5G7PG4J00T3BJXWO8,Z6KL3,Z6KL3,3LKC68YZ3B6HZ5G7PG4J00T3BJXWO8,3LKC68YZ3B6HZ5G7PG4J00T3BJXWO8,262733,262733,,,,
,,,,,,,,2,6.572435,0,2,2,5,1,A146MSML39KY98,11,rensink_Camel-a_w_outline.jpg,rensink_Camel-b_w_outline.jpg,62,f,A146MSML39KY98,2020-12-08_17h05.49.206,MetaAwareness,2020.1.2,Win32,60,3CRWSLD91L7I89OZVCTU3JWOQLCOM9,3LKC68YZ3B6HZ5G7PG4J00T3BJXWO8,Z6KL3,Z6KL3,3LKC68YZ3B6HZ5G7PG4J00T3BJXWO8,3LKC68YZ3B6HZ5G7PG4J00T3BJXWO8,262733,262733,,,,
,,,,,,,,3,5.31713,0,3,3,29,1,A146MSML39KY98,48,rensink_Wine-a_w_outline.jpg,rensink_Wine-b_w_outline.jpg,62,f,A146MSML39KY98,2020-12-08_17h05.49.206,MetaAwareness,2020.1.2,Win32,60,3CRWSLD91L7I89OZVCTU3JWOQLCOM9,3LKC68YZ3B6HZ5G7PG4J00T3BJXWO8,Z6KL3,Z6KL3,3LKC68YZ3B6HZ5G7PG4J00T3BJXWO8,3LKC68YZ3B6HZ5G7PG4J00T3BJXWO8,262733,262733,,,,
,,,,,,,,5,6.249965,0,4,4,9,1,A146MSML39KY98,18,rensink_Diver-a_w_outline.jpg,rensink_Diver-b_w_outline.jpg,62,f,A146MSML39KY98,2020-12-08_17h05.49.206,MetaAwareness,2020.1.2,Win32,60,3CRWSLD91L7I89OZVCTU3JWOQLCOM9,3LKC68YZ3B6HZ5G7PG4J00T3BJXWO8,Z6KL3,Z6KL3,3LKC68YZ3B6HZ5G7PG4J00T3BJXWO8,3LKC68YZ3B6HZ5G7PG4J00T3BJXWO8,262733,262733,,,,
,,,,,,,,3,7.1095,0,5,5,1,1,A146MSML39KY98,4,rensink_BarnTrack-a_w_outline.jpg,rensink_BarnTrack-b_w_outline.jpg,62,f,A146MSML39KY98,2020-12-08_17h05.49.206,MetaAwareness,2020.1.2,Win32,60,3CRWSLD91L7I89OZVCTU3JWOQLCOM9,3LKC68YZ3B6HZ5G7PG4J00T3BJXWO8,Z6KL3,Z6KL3,3LKC68YZ3B6HZ5G7PG4J00T3BJXWO8,3LKC68YZ3B6HZ5G7PG4J00T3BJXWO8,262733,262733,,,,
,,,,,,,,1,18.954945,0,6,6,13,1,A146MSML39KY98,23,rensink_Fishing-a_w_outline.jpg,rensink_Fishing-b_w_outline.jpg,62,f,A146MSML39KY98,2020-12-08_17h05.49.206,MetaAwareness,2020.1.2,Win32,60,3CRWSLD91L7I89OZVCTU3JWOQLCOM9,3LKC68YZ3B6HZ5G7PG4J00T3BJXWO8,Z6KL3,Z6KL3,3LKC68YZ3B6HZ5G7PG4J00T3BJXWO8,3LKC68YZ3B6HZ5G7PG4J00T3BJXWO8,262733,262733,,,,
,,,,,,,,3,7.369555,0,7,7,4,1,A146MSML39KY98,9,rensink_Bus-a_w_outline.jpg,rensink_Bus-b_w_outline.jpg,62,f,A146MSML39KY98,2020-12-08_17h05.49.206,MetaAwareness,2020.1.2,Win32,60,3CRWSLD91L7I89OZVCTU3JWOQLCOM9,3LKC68YZ3B6HZ5G7PG4J00T3BJXWO8,Z6KL3,Z6KL3,3LKC68YZ3B6HZ5G7PG4J00T3BJXWO8,3LKC68YZ3B6HZ5G7PG4J00T3BJXWO8,262733,262733,,,,
,,,,,,,,5,6.36524,0,8,8,26,1,A146MSML39KY98,45,rensink_Turtle-a_w_outline.jpg,rensink_Turtle-b_w_outline.jpg,62,f,A146MSML39KY98,2020-12-08_17h05.49.206,MetaAwareness,2020.1.2,Win32,60,3CRWSLD91L7I89OZVCTU3JWOQLCOM9,3LKC68YZ3B6HZ5G7PG4J00T3BJXWO8,Z6KL3,Z6KL3,3LKC68YZ3B6HZ5G7PG4J00T3BJXWO8,3LKC68YZ3B6HZ5G7PG4J00T3BJXWO8,262733,262733,,,,
,,,,,,,,4,5.35054,0,9,9,25,1,A146MSML39KY98,44,rensink_SummerLake-a_w_outline.jpg,rensink_SummerLake-b_w_outline.jpg,62,f,A146MSML39KY98,2020-12-08_17h05.49.206,MetaAwareness,2020.1.2,Win32,60,3CRWSLD91L7I89OZVCTU3JWOQLCOM9,3LKC68YZ3B6HZ5G7PG4J00T3BJXWO8,Z6KL3,Z6KL3,3LKC68YZ3B6HZ5G7PG4J00T3BJXWO8,3LKC68YZ3B6HZ5G7PG4J00T3BJXWO8,262733,262733,,,,
,,,,,,,,4,3.212055,0,10,10,16,1,A146MSML39KY98,28,rensink_Ice-a_w_outline.jpg,rensink_Ice-b_w_outline.jpg,62,f,A146MSML39KY98,2020-12-08_17h05.49.206,MetaAwareness,2020.1.2,Win32,60,3CRWSLD91L7I89OZVCTU3JWOQLCOM9,3LKC68YZ3B6HZ5G7PG4J00T3BJXWO8,Z6KL3,Z6KL3,3LKC68YZ3B6HZ5G7PG4J00T3BJXWO8,3LKC68YZ3B6HZ5G7PG4J00T3BJXWO8,262733,262733,,,,
,,,,,,,,2,7.520875,0,11,11,24,1,A146MSML39KY98,39,rensink_OtherDiver-a_w_outline.jpg,rensink_OtherDiver-b_w_outline.jpg,62,f,A146MSML39KY98,2020-12-08_17h05.49.206,MetaAwareness,2020.1.2,Win32,60,3CRWSLD91L7I89OZVCTU3JWOQLCOM9,3LKC68YZ3B6HZ5G7PG4J00T3BJXWO8,Z6KL3,Z6KL3,3LKC68YZ3B6HZ5G7PG4J00T3BJXWO8,3LKC68YZ3B6HZ5G7PG4J00T3BJXWO8,262733,262733,,,,
,,,,,,,,2,20.324485,0,12,12,27,1,A146MSML39KY98,46,rensink_Water-a_w_outline.jpg,rensink_Water-b_w_outline.jpg,62,f,A146MSML39KY98,2020-12-08_17h05.49.206,MetaAwareness,2020.1.2,Win32,60,3CRWSLD91L7I89OZVCTU3JWOQLCOM9,3LKC68YZ3B6HZ5G7PG4J00T3BJXWO8,Z6KL3,Z6KL3,3LKC68YZ3B6HZ5G7PG4J00T3BJXWO8,3LKC68YZ3B6HZ5G7PG4J00T3BJXWO8,262733,262733,,,,
,,,,,,,,3,5.88455,0,13,13,22,1,A146MSML39KY98,37,rensink_Nurses-a_w_outline.jpg,rensink_Nurses-b_w_outline.jpg,62,f,A146MSML39KY98,2020-12-08_17h05.49.206,MetaAwareness,2020.1.2,Win32,60,3CRWSLD91L7I89OZVCTU3JWOQLCOM9,3LKC68YZ3B6HZ5G7PG4J00T3BJXWO8,Z6KL3,Z6KL3,3LKC68YZ3B6HZ5G7PG4J00T3BJXWO8,3LKC68YZ3B6HZ5G7PG4J00T3BJXWO8,262733,262733,,,,
,,,,,,,,1,10.48822,0,14,14,12,1,A146MSML39KY98,22,rensink_Farmer-a_w_outline.jpg,rensink_Farmer-b_w_outline.jpg,62,f,A146MSML39KY98,2020-12-08_17h05.49.206,MetaAwareness,2020.1.2,Win32,60,3CRWSLD91L7I89OZVCTU3JWOQLCOM9,3LKC68YZ3B6HZ5G7PG4J00T3BJXWO8,Z6KL3,Z6KL3,3LKC68YZ3B6HZ5G7PG4J00T3BJXWO8,3LKC68YZ3B6HZ5G7PG4J00T3BJXWO8,262733,262733,,,,
,,,,,,,,4,4.80709,0,15,15,15,1,A146MSML39KY98,26,rensink_Harbor-a_w_outline.jpg,rensink_Harbor-b_w_outline.jpg,62,f,A146MSML39KY98,2020-12-08_17h05.49.206,MetaAwareness,2020.1.2,Win32,60,3CRWSLD91L7I89OZVCTU3JWOQLCOM9,3LKC68YZ3B6HZ5G7PG4J00T3BJXWO8,Z6KL3,Z6KL3,3LKC68YZ3B6HZ5G7PG4J00T3BJXWO8,3LKC68YZ3B6HZ5G7PG4J00T3BJXWO8,262733,262733,,,,
,,,,,,,,4,6.289865,0,16,16,21,1,A146MSML39KY98,33,rensink_Market-a_w_outline.jpg,rensink_Market-b_w_outline.jpg,62,f,A146MSML39KY98,2020-12-08_17h05.49.206,MetaAwareness,2020.1.2,Win32,60,3CRWSLD91L7I89OZVCTU3JWOQLCOM9,3LKC68YZ3B6HZ5G7PG4J00T3BJXWO8,Z6KL3,Z6KL3,3LKC68YZ3B6HZ5G7PG4J00T3BJXWO8,3LKC68YZ3B6HZ5G7PG4J00T3BJXWO8,262733,262733,,,,
,,,,,,,,3,18.95805,0,17,17,10,1,A146MSML39KY98,19,rensink_Eating-a_w_outline.jpg,rensink_Eating-b_w_outline.jpg,62,f,A146MSML39KY98,2020-12-08_17h05.49.206,MetaAwareness,2020.1.2,Win32,60,3CRWSLD91L7I89OZVCTU3JWOQLCOM9,3LKC68YZ3B6HZ5G7PG4J00T3BJXWO8,Z6KL3,Z6KL3,3LKC68YZ3B6HZ5G7PG4J00T3BJXWO8,3LKC68YZ3B6HZ5G7PG4J00T3BJXWO8,262733,262733,,,,
,,,,,,,,3,7.46157,0,18,18,2,1,A146MSML39KY98,5,rensink_Barrels-a_w_outline.jpg,rensink_Barrels-b_w_outline.jpg,62,f,A146MSML39KY98,2020-12-08_17h05.49.206,MetaAwareness,2020.1.2,Win32,60,3CRWSLD91L7I89OZVCTU3JWOQLCOM9,3LKC68YZ3B6HZ5G7PG4J00T3BJXWO8,Z6KL3,Z6KL3,3LKC68YZ3B6HZ5G7PG4J00T3BJXWO8,3LKC68YZ3B6HZ5G7PG4J00T3BJXWO8,262733,262733,,,,
,,,,,,,,4,6.7686,0,19,19,18,1,A146MSML39KY98,30,rensink_Kayaker-a_w_outline.jpg,rensink_Kayaker-b_w_outline.jpg,62,f,A146MSML39KY98,2020-12-08_17h05.49.206,MetaAwareness,2020.1.2,Win32,60,3CRWSLD91L7I89OZVCTU3JWOQLCOM9,3LKC68YZ3B6HZ5G7PG4J00T3BJXWO8,Z6KL3,Z6KL3,3LKC68YZ3B6HZ5G7PG4J00T3BJXWO8,3LKC68YZ3B6HZ5G7PG4J00T3BJXWO8,262733,262733,,,,
,,,,,,,,5,4.343285,0,20,20,0,1,A146MSML39KY98,1,rensink_Amish-a_w_outline.jpg,rensink_Amish-b_w_outline.jpg,62,f,A146MSML39KY98,2020-12-08_17h05.49.206,MetaAwareness,2020.1.2,Win32,60,3CRWSLD91L7I89OZVCTU3JWOQLCOM9,3LKC68YZ3B6HZ5G7PG4J00T3BJXWO8,Z6KL3,Z6KL3,3LKC68YZ3B6HZ5G7PG4J00T3BJXWO8,3LKC68YZ3B6HZ5G7PG4J00T3BJXWO8,262733,262733,,,,
,,,,,,,,5,6.1132,0,21,21,3,1,A146MSML39KY98,6,rensink_Beach-a_w_outline.jpg,rensink_Beach-b_w_outline.jpg,62,f,A146MSML39KY98,2020-12-08_17h05.49.206,MetaAwareness,2020.1.2,Win32,60,3CRWSLD91L7I89OZVCTU3JWOQLCOM9,3LKC68YZ3B6HZ5G7PG4J00T3BJXWO8,Z6KL3,Z6KL3,3LKC68YZ3B6HZ5G7PG4J00T3BJXWO8,3LKC68YZ3B6HZ5G7PG4J00T3BJXWO8,262733,262733,,,,
,,,,,,,,4,4.23245,0,22,22,7,1,A146MSML39KY98,15,rensink_Cockpit-a_w_outline.jpg,rensink_Cockpit-b_w_outline.jpg,62,f,A146MSML39KY98,2020-12-08_17h05.49.206,MetaAwareness,2020.1.2,Win32,60,3CRWSLD91L7I89OZVCTU3JWOQLCOM9,3LKC68YZ3B6HZ5G7PG4J00T3BJXWO8,Z6KL3,Z6KL3,3LKC68YZ3B6HZ5G7PG4J00T3BJXWO8,3LKC68YZ3B6HZ5G7PG4J00T3BJXWO8,262733,262733,,,,
,,,,,,,,3,10.75098,0,23,23,6,1,A146MSML39KY98,14,rensink_Chopper-a_w_outline.jpg,rensink_Chopper-b_w_outline.jpg,62,f,A146MSML39KY98,2020-12-08_17h05.49.206,MetaAwareness,2020.1.2,Win32,60,3CRWSLD91L7I89OZVCTU3JWOQLCOM9,3LKC68YZ3B6HZ5G7PG4J00T3BJXWO8,Z6KL3,Z6KL3,3LKC68YZ3B6HZ5G7PG4J00T3BJXWO8,3LKC68YZ3B6HZ5G7PG4J00T3BJXWO8,262733,262733,,,,
,,,,,,,,3,13.947995,0,24,24,11,1,A146MSML39KY98,20,rensink_Egypt-a_w_outline.jpg,rensink_Egypt-b_w_outline.jpg,62,f,A146MSML39KY98,2020-12-08_17h05.49.206,MetaAwareness,2020.1.2,Win32,60,3CRWSLD91L7I89OZVCTU3JWOQLCOM9,3LKC68YZ3B6HZ5G7PG4J00T3BJXWO8,Z6KL3,Z6KL3,3LKC68YZ3B6HZ5G7PG4J00T3BJXWO8,3LKC68YZ3B6HZ5G7PG4J00T3BJXWO8,262733,262733,,,,
,,,,,,,,5,5.289705,0,25,25,20,1,A146MSML39KY98,32,rensink_Lake-a_w_outline.jpg,rensink_Lake-b_w_outline.jpg,62,f,A146MSML39KY98,2020-12-08_17h05.49.206,MetaAwareness,2020.1.2,Win32,60,3CRWSLD91L7I89OZVCTU3JWOQLCOM9,3LKC68YZ3B6HZ5G7PG4J00T3BJXWO8,Z6KL3,Z6KL3,3LKC68YZ3B6HZ5G7PG4J00T3BJXWO8,3LKC68YZ3B6HZ5G7PG4J00T3BJXWO8,262733,262733,,,,
,,,,,,,,4,5.86126,0,26,26,19,1,A146MSML39KY98,31,rensink_Kids-a_w_outline.jpg,rensink_Kids-b_w_outline.jpg,62,f,A146MSML39KY98,2020-12-08_17h05.49.206,MetaAwareness,2020.1.2,Win32,60,3CRWSLD91L7I89OZVCTU3JWOQLCOM9,3LKC68YZ3B6HZ5G7PG4J00T3BJXWO8,Z6KL3,Z6KL3,3LKC68YZ3B6HZ5G7PG4J00T3BJXWO8,3LKC68YZ3B6HZ5G7PG4J00T3BJXWO8,262733,262733,,,,
,,,,,,,,5,7.53944,0,27,27,14,1,A146MSML39KY98,25,rensink_Fountain-a_w_outline.jpg,rensink_Fountain-b_w_outline.jpg,62,f,A146MSML39KY98,2020-12-08_17h05.49.206,MetaAwareness,2020.1.2,Win32,60,3CRWSLD91L7I89OZVCTU3JWOQLCOM9,3LKC68YZ3B6HZ5G7PG4J00T3BJXWO8,Z6KL3,Z6KL3,3LKC68YZ3B6HZ5G7PG4J00T3BJXWO8,3LKC68YZ3B6HZ5G7PG4J00T3BJXWO8,262733,262733,,,,
,,,,,,,,4,5.272695,0,28,28,8,1,A146MSML39KY98,16,rensink_Description-a_w_outline.jpg,rensink_Description-b_w_outline.jpg,62,f,A146MSML39KY98,2020-12-08_17h05.49.206,MetaAwareness,2020.1.2,Win32,60,3CRWSLD91L7I89OZVCTU3JWOQLCOM9,3LKC68YZ3B6HZ5G7PG4J00T3BJXWO8,Z6KL3,Z6KL3,3LKC68YZ3B6HZ5G7PG4J00T3BJXWO8,3LKC68YZ3B6HZ5G7PG4J00T3BJXWO8,262733,262733,,,,
,,,,,,,,5,3.81791,0,29,29,17,1,A146MSML39KY98,29,rensink_Kayak-a_w_outline.jpg,rensink_Kayak-b_w_outline.jpg,62,f,A146MSML39KY98,2020-12-08_17h05.49.206,MetaAwareness,2020.1.2,Win32,60,3CRWSLD91L7I89OZVCTU3JWOQLCOM9,3LKC68YZ3B6HZ5G7PG4J00T3BJXWO8,Z6KL3,Z6KL3,3LKC68YZ3B6HZ5G7PG4J00T3BJXWO8,3LKC68YZ3B6HZ5G7PG4J00T3BJXWO8,262733,262733,,,,
,,,,,,,,,,,,,,,A146MSML39KY98,,,,62,f,A146MSML39KY98,2020-12-08_17h05.49.206,MetaAwareness,2020.1.2,Win32,60,3CRWSLD91L7I89OZVCTU3JWOQLCOM9,3LKC68YZ3B6HZ5G7PG4J00T3BJXWO8,Z6KL3,Z6KL3,3LKC68YZ3B6HZ5G7PG4J00T3BJXWO8,3LKC68YZ3B6HZ5G7PG4J00T3BJXWO8,262733,262733,5,1.88383,2,11.70413
