consent_response.keys,consent_response.rt,key_resp_2.keys,key_resp_2.rt,Airplane_resp.keys,Airplane_resp.rt,Boat_resp.keys,Boat_resp.rt,user_resp.keys,user_resp.rt,trials.thisRepN,trials.thisTrialN,trials.thisN,trials.thisIndex,trials.ran,workerId,trial_num,image_a,image_b,age,gender (m/f),worker_ID,date,expName,psychopyVersion,OS,frameRate,hitId,assignmentId,a,tp_a,b,tp_b,c,tp_c,Cow_resp.keys,Cow_resp.rt,Garden_resp.keys,Garden_resp.rt
space,9.49803,space,26.069545,5,4.08488,4,4.956575,1,15.766285,0,0,0,14,1,A2POU9TTW177VH,25,rensink_Fountain-a_w_outline.jpg,rensink_Fountain-b_w_outline.jpg,44,f,A2POU9TTW177VH,2020-12-08_15h40.54.234,MetaAwareness,2020.1.2,Win32,60,34ZTTGSNJYRZ1704JS5L0JJSO0THQZ,3DZQRBDBSMIZ6Z6CMDAQF8S7AFTS3I,BRZD3,BRZD3,3DZQRBDBSMIZ6Z6CMDAQF8S7AFTS3I,3DZQRBDBSMIZ6Z6CMDAQF8S7AFTS3I,262733,262733,,,,
,,,,,,,,1,27.316235,0,1,1,10,1,A2POU9TTW177VH,19,rensink_Eating-a_w_outline.jpg,rensink_Eating-b_w_outline.jpg,44,f,A2POU9TTW177VH,2020-12-08_15h40.54.234,MetaAwareness,2020.1.2,Win32,60,34ZTTGSNJYRZ1704JS5L0JJSO0THQZ,3DZQRBDBSMIZ6Z6CMDAQF8S7AFTS3I,BRZD3,BRZD3,3DZQRBDBSMIZ6Z6CMDAQF8S7AFTS3I,3DZQRBDBSMIZ6Z6CMDAQF8S7AFTS3I,262733,262733,,,,
,,,,,,,,3,6.015565,0,2,2,26,1,A2POU9TTW177VH,44,rensink_SummerLake-a_w_outline.jpg,rensink_SummerLake-b_w_outline.jpg,44,f,A2POU9TTW177VH,2020-12-08_15h40.54.234,MetaAwareness,2020.1.2,Win32,60,34ZTTGSNJYRZ1704JS5L0JJSO0THQZ,3DZQRBDBSMIZ6Z6CMDAQF8S7AFTS3I,BRZD3,BRZD3,3DZQRBDBSMIZ6Z6CMDAQF8S7AFTS3I,3DZQRBDBSMIZ6Z6CMDAQF8S7AFTS3I,262733,262733,,,,
,,,,,,,,1,6.070685,0,3,3,25,1,A2POU9TTW177VH,43,rensink_Station-a_w_outline.jpg,rensink_Station-b_w_outline.jpg,44,f,A2POU9TTW177VH,2020-12-08_15h40.54.234,MetaAwareness,2020.1.2,Win32,60,34ZTTGSNJYRZ1704JS5L0JJSO0THQZ,3DZQRBDBSMIZ6Z6CMDAQF8S7AFTS3I,BRZD3,BRZD3,3DZQRBDBSMIZ6Z6CMDAQF8S7AFTS3I,3DZQRBDBSMIZ6Z6CMDAQF8S7AFTS3I,262733,262733,,,,
,,,,,,,,4,6.7849,0,4,4,2,1,A2POU9TTW177VH,3,rensink_Barns-a_w_outline.jpg,rensink_Barns-b_w_outline.jpg,44,f,A2POU9TTW177VH,2020-12-08_15h40.54.234,MetaAwareness,2020.1.2,Win32,60,34ZTTGSNJYRZ1704JS5L0JJSO0THQZ,3DZQRBDBSMIZ6Z6CMDAQF8S7AFTS3I,BRZD3,BRZD3,3DZQRBDBSMIZ6Z6CMDAQF8S7AFTS3I,3DZQRBDBSMIZ6Z6CMDAQF8S7AFTS3I,262733,262733,,,,
,,,,,,,,3,8.43368,0,5,5,9,1,A2POU9TTW177VH,16,rensink_Description-a_w_outline.jpg,rensink_Description-b_w_outline.jpg,44,f,A2POU9TTW177VH,2020-12-08_15h40.54.234,MetaAwareness,2020.1.2,Win32,60,34ZTTGSNJYRZ1704JS5L0JJSO0THQZ,3DZQRBDBSMIZ6Z6CMDAQF8S7AFTS3I,BRZD3,BRZD3,3DZQRBDBSMIZ6Z6CMDAQF8S7AFTS3I,3DZQRBDBSMIZ6Z6CMDAQF8S7AFTS3I,262733,262733,,,,
,,,,,,,,4,6.95164,0,6,6,6,1,A2POU9TTW177VH,9,rensink_Bus-a_w_outline.jpg,rensink_Bus-b_w_outline.jpg,44,f,A2POU9TTW177VH,2020-12-08_15h40.54.234,MetaAwareness,2020.1.2,Win32,60,34ZTTGSNJYRZ1704JS5L0JJSO0THQZ,3DZQRBDBSMIZ6Z6CMDAQF8S7AFTS3I,BRZD3,BRZD3,3DZQRBDBSMIZ6Z6CMDAQF8S7AFTS3I,3DZQRBDBSMIZ6Z6CMDAQF8S7AFTS3I,262733,262733,,,,
,,,,,,,,1,16.23192,0,7,7,23,1,A2POU9TTW177VH,39,rensink_OtherDiver-a_w_outline.jpg,rensink_OtherDiver-b_w_outline.jpg,44,f,A2POU9TTW177VH,2020-12-08_15h40.54.234,MetaAwareness,2020.1.2,Win32,60,34ZTTGSNJYRZ1704JS5L0JJSO0THQZ,3DZQRBDBSMIZ6Z6CMDAQF8S7AFTS3I,BRZD3,BRZD3,3DZQRBDBSMIZ6Z6CMDAQF8S7AFTS3I,3DZQRBDBSMIZ6Z6CMDAQF8S7AFTS3I,262733,262733,,,,
,,,,,,,,3,7.48406,0,8,8,28,1,A2POU9TTW177VH,47,rensink_Window-a_w_outline.jpg,rensink_Window-b_w_outline.jpg,44,f,A2POU9TTW177VH,2020-12-08_15h40.54.234,MetaAwareness,2020.1.2,Win32,60,34ZTTGSNJYRZ1704JS5L0JJSO0THQZ,3DZQRBDBSMIZ6Z6CMDAQF8S7AFTS3I,BRZD3,BRZD3,3DZQRBDBSMIZ6Z6CMDAQF8S7AFTS3I,3DZQRBDBSMIZ6Z6CMDAQF8S7AFTS3I,262733,262733,,,,
,,,,,,,,5,6.40084,0,9,9,19,1,A2POU9TTW177VH,35,rensink_Mosque-a_w_outline.jpg,rensink_Mosque-b_w_outline.jpg,44,f,A2POU9TTW177VH,2020-12-08_15h40.54.234,MetaAwareness,2020.1.2,Win32,60,34ZTTGSNJYRZ1704JS5L0JJSO0THQZ,3DZQRBDBSMIZ6Z6CMDAQF8S7AFTS3I,BRZD3,BRZD3,3DZQRBDBSMIZ6Z6CMDAQF8S7AFTS3I,3DZQRBDBSMIZ6Z6CMDAQF8S7AFTS3I,262733,262733,,,,
,,,,,,,,2,16.285775,0,10,10,11,1,A2POU9TTW177VH,20,rensink_Egypt-a_w_outline.jpg,rensink_Egypt-b_w_outline.jpg,44,f,A2POU9TTW177VH,2020-12-08_15h40.54.234,MetaAwareness,2020.1.2,Win32,60,34ZTTGSNJYRZ1704JS5L0JJSO0THQZ,3DZQRBDBSMIZ6Z6CMDAQF8S7AFTS3I,BRZD3,BRZD3,3DZQRBDBSMIZ6Z6CMDAQF8S7AFTS3I,3DZQRBDBSMIZ6Z6CMDAQF8S7AFTS3I,262733,262733,,,,
,,,,,,,,1,6.8561,0,11,11,7,1,A2POU9TTW177VH,12,rensink_CanalBridge-a_w_outline.jpg,rensink_CanalBridge-b_w_outline.jpg,44,f,A2POU9TTW177VH,2020-12-08_15h40.54.234,MetaAwareness,2020.1.2,Win32,60,34ZTTGSNJYRZ1704JS5L0JJSO0THQZ,3DZQRBDBSMIZ6Z6CMDAQF8S7AFTS3I,BRZD3,BRZD3,3DZQRBDBSMIZ6Z6CMDAQF8S7AFTS3I,3DZQRBDBSMIZ6Z6CMDAQF8S7AFTS3I,262733,262733,,,,
,,,,,,,,5,7.13916,0,12,12,24,1,A2POU9TTW177VH,42,rensink_Soldiers-a_w_outline.jpg,rensink_Soldiers-b_w_outline.jpg,44,f,A2POU9TTW177VH,2020-12-08_15h40.54.234,MetaAwareness,2020.1.2,Win32,60,34ZTTGSNJYRZ1704JS5L0JJSO0THQZ,3DZQRBDBSMIZ6Z6CMDAQF8S7AFTS3I,BRZD3,BRZD3,3DZQRBDBSMIZ6Z6CMDAQF8S7AFTS3I,3DZQRBDBSMIZ6Z6CMDAQF8S7AFTS3I,262733,262733,,,,
,,,,,,,,1,7.153975,0,13,13,1,1,A2POU9TTW177VH,2,rensink_Army-a_w_outline.jpg,rensink_Army-b_w_outline.jpg,44,f,A2POU9TTW177VH,2020-12-08_15h40.54.234,MetaAwareness,2020.1.2,Win32,60,34ZTTGSNJYRZ1704JS5L0JJSO0THQZ,3DZQRBDBSMIZ6Z6CMDAQF8S7AFTS3I,BRZD3,BRZD3,3DZQRBDBSMIZ6Z6CMDAQF8S7AFTS3I,3DZQRBDBSMIZ6Z6CMDAQF8S7AFTS3I,262733,262733,,,,
,,,,,,,,3,17.31575,0,14,14,18,1,A2POU9TTW177VH,34,rensink_Marling-a_w_outline.jpg,rensink_Marling-b_w_outline.jpg,44,f,A2POU9TTW177VH,2020-12-08_15h40.54.234,MetaAwareness,2020.1.2,Win32,60,34ZTTGSNJYRZ1704JS5L0JJSO0THQZ,3DZQRBDBSMIZ6Z6CMDAQF8S7AFTS3I,BRZD3,BRZD3,3DZQRBDBSMIZ6Z6CMDAQF8S7AFTS3I,3DZQRBDBSMIZ6Z6CMDAQF8S7AFTS3I,262733,262733,,,,
,,,,,,,,4,6.82838,0,15,15,13,1,A2POU9TTW177VH,24,rensink_Floatplane-a_w_outline.jpg,rensink_Floatplane-b_w_outline.jpg,44,f,A2POU9TTW177VH,2020-12-08_15h40.54.234,MetaAwareness,2020.1.2,Win32,60,34ZTTGSNJYRZ1704JS5L0JJSO0THQZ,3DZQRBDBSMIZ6Z6CMDAQF8S7AFTS3I,BRZD3,BRZD3,3DZQRBDBSMIZ6Z6CMDAQF8S7AFTS3I,3DZQRBDBSMIZ6Z6CMDAQF8S7AFTS3I,262733,262733,,,,
,,,,,,,,4,5.951625,0,16,16,29,1,A2POU9TTW177VH,48,rensink_Wine-a_w_outline.jpg,rensink_Wine-b_w_outline.jpg,44,f,A2POU9TTW177VH,2020-12-08_15h40.54.234,MetaAwareness,2020.1.2,Win32,60,34ZTTGSNJYRZ1704JS5L0JJSO0THQZ,3DZQRBDBSMIZ6Z6CMDAQF8S7AFTS3I,BRZD3,BRZD3,3DZQRBDBSMIZ6Z6CMDAQF8S7AFTS3I,3DZQRBDBSMIZ6Z6CMDAQF8S7AFTS3I,262733,262733,,,,
,,,,,,,,2,7.138455,0,17,17,12,1,A2POU9TTW177VH,23,rensink_Fishing-a_w_outline.jpg,rensink_Fishing-b_w_outline.jpg,44,f,A2POU9TTW177VH,2020-12-08_15h40.54.234,MetaAwareness,2020.1.2,Win32,60,34ZTTGSNJYRZ1704JS5L0JJSO0THQZ,3DZQRBDBSMIZ6Z6CMDAQF8S7AFTS3I,BRZD3,BRZD3,3DZQRBDBSMIZ6Z6CMDAQF8S7AFTS3I,3DZQRBDBSMIZ6Z6CMDAQF8S7AFTS3I,262733,262733,,,,
,,,,,,,,5,5.488715,0,18,18,17,1,A2POU9TTW177VH,32,rensink_Lake-a_w_outline.jpg,rensink_Lake-b_w_outline.jpg,44,f,A2POU9TTW177VH,2020-12-08_15h40.54.234,MetaAwareness,2020.1.2,Win32,60,34ZTTGSNJYRZ1704JS5L0JJSO0THQZ,3DZQRBDBSMIZ6Z6CMDAQF8S7AFTS3I,BRZD3,BRZD3,3DZQRBDBSMIZ6Z6CMDAQF8S7AFTS3I,3DZQRBDBSMIZ6Z6CMDAQF8S7AFTS3I,262733,262733,,,,
,,,,,,,,1,21.549725,0,19,19,27,1,A2POU9TTW177VH,46,rensink_Water-a_w_outline.jpg,rensink_Water-b_w_outline.jpg,44,f,A2POU9TTW177VH,2020-12-08_15h40.54.234,MetaAwareness,2020.1.2,Win32,60,34ZTTGSNJYRZ1704JS5L0JJSO0THQZ,3DZQRBDBSMIZ6Z6CMDAQF8S7AFTS3I,BRZD3,BRZD3,3DZQRBDBSMIZ6Z6CMDAQF8S7AFTS3I,3DZQRBDBSMIZ6Z6CMDAQF8S7AFTS3I,262733,262733,,,,
,,,,,,,,4,4.08589,0,20,20,4,1,A2POU9TTW177VH,6,rensink_Beach-a_w_outline.jpg,rensink_Beach-b_w_outline.jpg,44,f,A2POU9TTW177VH,2020-12-08_15h40.54.234,MetaAwareness,2020.1.2,Win32,60,34ZTTGSNJYRZ1704JS5L0JJSO0THQZ,3DZQRBDBSMIZ6Z6CMDAQF8S7AFTS3I,BRZD3,BRZD3,3DZQRBDBSMIZ6Z6CMDAQF8S7AFTS3I,3DZQRBDBSMIZ6Z6CMDAQF8S7AFTS3I,262733,262733,,,,
,,,,,,,,5,7.08377,0,21,21,0,1,A2POU9TTW177VH,1,rensink_Amish-a_w_outline.jpg,rensink_Amish-b_w_outline.jpg,44,f,A2POU9TTW177VH,2020-12-08_15h40.54.234,MetaAwareness,2020.1.2,Win32,60,34ZTTGSNJYRZ1704JS5L0JJSO0THQZ,3DZQRBDBSMIZ6Z6CMDAQF8S7AFTS3I,BRZD3,BRZD3,3DZQRBDBSMIZ6Z6CMDAQF8S7AFTS3I,3DZQRBDBSMIZ6Z6CMDAQF8S7AFTS3I,262733,262733,,,,
,,,,,,,,1,17.79775,0,22,22,8,1,A2POU9TTW177VH,14,rensink_Chopper-a_w_outline.jpg,rensink_Chopper-b_w_outline.jpg,44,f,A2POU9TTW177VH,2020-12-08_15h40.54.234,MetaAwareness,2020.1.2,Win32,60,34ZTTGSNJYRZ1704JS5L0JJSO0THQZ,3DZQRBDBSMIZ6Z6CMDAQF8S7AFTS3I,BRZD3,BRZD3,3DZQRBDBSMIZ6Z6CMDAQF8S7AFTS3I,3DZQRBDBSMIZ6Z6CMDAQF8S7AFTS3I,262733,262733,,,,
,,,,,,,,5,10.283785,0,23,23,21,1,A2POU9TTW177VH,37,rensink_Nurses-a_w_outline.jpg,rensink_Nurses-b_w_outline.jpg,44,f,A2POU9TTW177VH,2020-12-08_15h40.54.234,MetaAwareness,2020.1.2,Win32,60,34ZTTGSNJYRZ1704JS5L0JJSO0THQZ,3DZQRBDBSMIZ6Z6CMDAQF8S7AFTS3I,BRZD3,BRZD3,3DZQRBDBSMIZ6Z6CMDAQF8S7AFTS3I,3DZQRBDBSMIZ6Z6CMDAQF8S7AFTS3I,262733,262733,,,,
,,,,,,,,2,5.973915,0,24,24,20,1,A2POU9TTW177VH,36,rensink_NotreDame-a_w_outline.jpg,rensink_NotreDame-b_w_outline.jpg,44,f,A2POU9TTW177VH,2020-12-08_15h40.54.234,MetaAwareness,2020.1.2,Win32,60,34ZTTGSNJYRZ1704JS5L0JJSO0THQZ,3DZQRBDBSMIZ6Z6CMDAQF8S7AFTS3I,BRZD3,BRZD3,3DZQRBDBSMIZ6Z6CMDAQF8S7AFTS3I,3DZQRBDBSMIZ6Z6CMDAQF8S7AFTS3I,262733,262733,,,,
,,,,,,,,1,14.70335,0,25,25,5,1,A2POU9TTW177VH,7,rensink_Birds-a_w_outline.jpg,rensink_Birds-b_w_outline.jpg,44,f,A2POU9TTW177VH,2020-12-08_15h40.54.234,MetaAwareness,2020.1.2,Win32,60,34ZTTGSNJYRZ1704JS5L0JJSO0THQZ,3DZQRBDBSMIZ6Z6CMDAQF8S7AFTS3I,BRZD3,BRZD3,3DZQRBDBSMIZ6Z6CMDAQF8S7AFTS3I,3DZQRBDBSMIZ6Z6CMDAQF8S7AFTS3I,262733,262733,,,,
,,,,,,,,2,6.18967,0,26,26,16,1,A2POU9TTW177VH,30,rensink_Kayaker-a_w_outline.jpg,rensink_Kayaker-b_w_outline.jpg,44,f,A2POU9TTW177VH,2020-12-08_15h40.54.234,MetaAwareness,2020.1.2,Win32,60,34ZTTGSNJYRZ1704JS5L0JJSO0THQZ,3DZQRBDBSMIZ6Z6CMDAQF8S7AFTS3I,BRZD3,BRZD3,3DZQRBDBSMIZ6Z6CMDAQF8S7AFTS3I,3DZQRBDBSMIZ6Z6CMDAQF8S7AFTS3I,262733,262733,,,,
,,,,,,,,4,8.386765,0,27,27,3,1,A2POU9TTW177VH,4,rensink_BarnTrack-a_w_outline.jpg,rensink_BarnTrack-b_w_outline.jpg,44,f,A2POU9TTW177VH,2020-12-08_15h40.54.234,MetaAwareness,2020.1.2,Win32,60,34ZTTGSNJYRZ1704JS5L0JJSO0THQZ,3DZQRBDBSMIZ6Z6CMDAQF8S7AFTS3I,BRZD3,BRZD3,3DZQRBDBSMIZ6Z6CMDAQF8S7AFTS3I,3DZQRBDBSMIZ6Z6CMDAQF8S7AFTS3I,262733,262733,,,,
,,,,,,,,5,8.375435,0,28,28,15,1,A2POU9TTW177VH,29,rensink_Kayak-a_w_outline.jpg,rensink_Kayak-b_w_outline.jpg,44,f,A2POU9TTW177VH,2020-12-08_15h40.54.234,MetaAwareness,2020.1.2,Win32,60,34ZTTGSNJYRZ1704JS5L0JJSO0THQZ,3DZQRBDBSMIZ6Z6CMDAQF8S7AFTS3I,BRZD3,BRZD3,3DZQRBDBSMIZ6Z6CMDAQF8S7AFTS3I,3DZQRBDBSMIZ6Z6CMDAQF8S7AFTS3I,262733,262733,,,,
,,,,,,,,5,4.21841,0,29,29,22,1,A2POU9TTW177VH,38,rensink_Obelisk-a_w_outline.jpg,rensink_Obelisk-b_w_outline.jpg,44,f,A2POU9TTW177VH,2020-12-08_15h40.54.234,MetaAwareness,2020.1.2,Win32,60,34ZTTGSNJYRZ1704JS5L0JJSO0THQZ,3DZQRBDBSMIZ6Z6CMDAQF8S7AFTS3I,BRZD3,BRZD3,3DZQRBDBSMIZ6Z6CMDAQF8S7AFTS3I,3DZQRBDBSMIZ6Z6CMDAQF8S7AFTS3I,262733,262733,,,,
,,,,,,,,,,,,,,,A2POU9TTW177VH,,,,44,f,A2POU9TTW177VH,2020-12-08_15h40.54.234,MetaAwareness,2020.1.2,Win32,60,34ZTTGSNJYRZ1704JS5L0JJSO0THQZ,3DZQRBDBSMIZ6Z6CMDAQF8S7AFTS3I,BRZD3,BRZD3,3DZQRBDBSMIZ6Z6CMDAQF8S7AFTS3I,3DZQRBDBSMIZ6Z6CMDAQF8S7AFTS3I,262733,262733,5,2.74835,2,10.64396
