consent_response.keys,consent_response.rt,key_resp_2.keys,key_resp_2.rt,Airplane_resp.keys,Airplane_resp.rt,Boat_resp.keys,Boat_resp.rt,user_resp.keys,user_resp.rt,trials.thisRepN,trials.thisTrialN,trials.thisN,trials.thisIndex,trials.ran,workerId,trial_num,image_a,image_b,age,gender (m/f),worker_ID,date,expName,psychopyVersion,OS,frameRate,hitId,assignmentId,a,tp_a,b,tp_b,c,tp_c,Cow_resp.keys,Cow_resp.rt,Garden_resp.keys,Garden_resp.rt
space,1.95312,space,0.1751,4,4.68327,4,0.335645,5,0.39291,0,0,0,4,1,A33JUNE5HHLET4,7,rensink_Birds-a_w_outline.jpg,rensink_Birds-b_w_outline.jpg,28,m,A33JUNE5HHLET4,2020-12-07_17h22.57.903,MetaAwareness,2020.1.2,Win32,60,3JGHED38EEUBHKLEXT03MSX095NY7O,3B1NLC6UG0Z3NJ28PBDG3XC5RW3PGB,UL1B8,UL1B8,3B1NLC6UG0Z3NJ28PBDG3XC5RW3PGB,3B1NLC6UG0Z3NJ28PBDG3XC5RW3PGB,262458,262458,,,,
,,,,,,,,4,0.565935,0,1,1,14,1,A33JUNE5HHLET4,27,rensink_Horizon-a_w_outline.jpg,rensink_Horizon-b_w_outline.jpg,28,m,A33JUNE5HHLET4,2020-12-07_17h22.57.903,MetaAwareness,2020.1.2,Win32,60,3JGHED38EEUBHKLEXT03MSX095NY7O,3B1NLC6UG0Z3NJ28PBDG3XC5RW3PGB,UL1B8,UL1B8,3B1NLC6UG0Z3NJ28PBDG3XC5RW3PGB,3B1NLC6UG0Z3NJ28PBDG3XC5RW3PGB,262458,262458,,,,
,,,,,,,,4,0.069915,0,2,2,12,1,A33JUNE5HHLET4,19,rensink_Eating-a_w_outline.jpg,rensink_Eating-b_w_outline.jpg,28,m,A33JUNE5HHLET4,2020-12-07_17h22.57.903,MetaAwareness,2020.1.2,Win32,60,3JGHED38EEUBHKLEXT03MSX095NY7O,3B1NLC6UG0Z3NJ28PBDG3XC5RW3PGB,UL1B8,UL1B8,3B1NLC6UG0Z3NJ28PBDG3XC5RW3PGB,3B1NLC6UG0Z3NJ28PBDG3XC5RW3PGB,262458,262458,,,,
,,,,,,,,3,0.13754,0,3,3,19,1,A33JUNE5HHLET4,34,rensink_Marling-a_w_outline.jpg,rensink_Marling-b_w_outline.jpg,28,m,A33JUNE5HHLET4,2020-12-07_17h22.57.903,MetaAwareness,2020.1.2,Win32,60,3JGHED38EEUBHKLEXT03MSX095NY7O,3B1NLC6UG0Z3NJ28PBDG3XC5RW3PGB,UL1B8,UL1B8,3B1NLC6UG0Z3NJ28PBDG3XC5RW3PGB,3B1NLC6UG0Z3NJ28PBDG3XC5RW3PGB,262458,262458,,,,
,,,,,,,,3,0.363105,0,4,4,26,1,A33JUNE5HHLET4,45,rensink_Turtle-a_w_outline.jpg,rensink_Turtle-b_w_outline.jpg,28,m,A33JUNE5HHLET4,2020-12-07_17h22.57.903,MetaAwareness,2020.1.2,Win32,60,3JGHED38EEUBHKLEXT03MSX095NY7O,3B1NLC6UG0Z3NJ28PBDG3XC5RW3PGB,UL1B8,UL1B8,3B1NLC6UG0Z3NJ28PBDG3XC5RW3PGB,3B1NLC6UG0Z3NJ28PBDG3XC5RW3PGB,262458,262458,,,,
,,,,,,,,3,0.210035,0,5,5,15,1,A33JUNE5HHLET4,28,rensink_Ice-a_w_outline.jpg,rensink_Ice-b_w_outline.jpg,28,m,A33JUNE5HHLET4,2020-12-07_17h22.57.903,MetaAwareness,2020.1.2,Win32,60,3JGHED38EEUBHKLEXT03MSX095NY7O,3B1NLC6UG0Z3NJ28PBDG3XC5RW3PGB,UL1B8,UL1B8,3B1NLC6UG0Z3NJ28PBDG3XC5RW3PGB,3B1NLC6UG0Z3NJ28PBDG3XC5RW3PGB,262458,262458,,,,
,,,,,,,,4,0.42713,0,6,6,0,1,A33JUNE5HHLET4,1,rensink_Amish-a_w_outline.jpg,rensink_Amish-b_w_outline.jpg,28,m,A33JUNE5HHLET4,2020-12-07_17h22.57.903,MetaAwareness,2020.1.2,Win32,60,3JGHED38EEUBHKLEXT03MSX095NY7O,3B1NLC6UG0Z3NJ28PBDG3XC5RW3PGB,UL1B8,UL1B8,3B1NLC6UG0Z3NJ28PBDG3XC5RW3PGB,3B1NLC6UG0Z3NJ28PBDG3XC5RW3PGB,262458,262458,,,,
,,,,,,,,3,0.014825,0,7,7,1,1,A33JUNE5HHLET4,2,rensink_Army-a_w_outline.jpg,rensink_Army-b_w_outline.jpg,28,m,A33JUNE5HHLET4,2020-12-07_17h22.57.903,MetaAwareness,2020.1.2,Win32,60,3JGHED38EEUBHKLEXT03MSX095NY7O,3B1NLC6UG0Z3NJ28PBDG3XC5RW3PGB,UL1B8,UL1B8,3B1NLC6UG0Z3NJ28PBDG3XC5RW3PGB,3B1NLC6UG0Z3NJ28PBDG3XC5RW3PGB,262458,262458,,,,
,,,,,,,,5,1.29456,0,8,8,25,1,A33JUNE5HHLET4,44,rensink_SummerLake-a_w_outline.jpg,rensink_SummerLake-b_w_outline.jpg,28,m,A33JUNE5HHLET4,2020-12-07_17h22.57.903,MetaAwareness,2020.1.2,Win32,60,3JGHED38EEUBHKLEXT03MSX095NY7O,3B1NLC6UG0Z3NJ28PBDG3XC5RW3PGB,UL1B8,UL1B8,3B1NLC6UG0Z3NJ28PBDG3XC5RW3PGB,3B1NLC6UG0Z3NJ28PBDG3XC5RW3PGB,262458,262458,,,,
,,,,,,,,4,1.829755,0,9,9,27,1,A33JUNE5HHLET4,46,rensink_Water-a_w_outline.jpg,rensink_Water-b_w_outline.jpg,28,m,A33JUNE5HHLET4,2020-12-07_17h22.57.903,MetaAwareness,2020.1.2,Win32,60,3JGHED38EEUBHKLEXT03MSX095NY7O,3B1NLC6UG0Z3NJ28PBDG3XC5RW3PGB,UL1B8,UL1B8,3B1NLC6UG0Z3NJ28PBDG3XC5RW3PGB,3B1NLC6UG0Z3NJ28PBDG3XC5RW3PGB,262458,262458,,,,
,,,,,,,,3,0.713045,0,10,10,5,1,A33JUNE5HHLET4,8,rensink_Boat-a_w_outline.jpg,rensink_Boat-b_w_outline.jpg,28,m,A33JUNE5HHLET4,2020-12-07_17h22.57.903,MetaAwareness,2020.1.2,Win32,60,3JGHED38EEUBHKLEXT03MSX095NY7O,3B1NLC6UG0Z3NJ28PBDG3XC5RW3PGB,UL1B8,UL1B8,3B1NLC6UG0Z3NJ28PBDG3XC5RW3PGB,3B1NLC6UG0Z3NJ28PBDG3XC5RW3PGB,262458,262458,,,,
,,,,,,,,3,0.01645,0,11,11,11,1,A33JUNE5HHLET4,17,rensink_Dinner-a_w_outline.jpg,rensink_Dinner-b_w_outline.jpg,28,m,A33JUNE5HHLET4,2020-12-07_17h22.57.903,MetaAwareness,2020.1.2,Win32,60,3JGHED38EEUBHKLEXT03MSX095NY7O,3B1NLC6UG0Z3NJ28PBDG3XC5RW3PGB,UL1B8,UL1B8,3B1NLC6UG0Z3NJ28PBDG3XC5RW3PGB,3B1NLC6UG0Z3NJ28PBDG3XC5RW3PGB,262458,262458,,,,
,,,,,,,,5,0.075575,0,12,12,9,1,A33JUNE5HHLET4,14,rensink_Chopper-a_w_outline.jpg,rensink_Chopper-b_w_outline.jpg,28,m,A33JUNE5HHLET4,2020-12-07_17h22.57.903,MetaAwareness,2020.1.2,Win32,60,3JGHED38EEUBHKLEXT03MSX095NY7O,3B1NLC6UG0Z3NJ28PBDG3XC5RW3PGB,UL1B8,UL1B8,3B1NLC6UG0Z3NJ28PBDG3XC5RW3PGB,3B1NLC6UG0Z3NJ28PBDG3XC5RW3PGB,262458,262458,,,,
,,,,,,,,3,0.014875,0,13,13,2,1,A33JUNE5HHLET4,3,rensink_Barns-a_w_outline.jpg,rensink_Barns-b_w_outline.jpg,28,m,A33JUNE5HHLET4,2020-12-07_17h22.57.903,MetaAwareness,2020.1.2,Win32,60,3JGHED38EEUBHKLEXT03MSX095NY7O,3B1NLC6UG0Z3NJ28PBDG3XC5RW3PGB,UL1B8,UL1B8,3B1NLC6UG0Z3NJ28PBDG3XC5RW3PGB,3B1NLC6UG0Z3NJ28PBDG3XC5RW3PGB,262458,262458,,,,
,,,,,,,,4,0.170625,0,14,14,7,1,A33JUNE5HHLET4,12,rensink_CanalBridge-a_w_outline.jpg,rensink_CanalBridge-b_w_outline.jpg,28,m,A33JUNE5HHLET4,2020-12-07_17h22.57.903,MetaAwareness,2020.1.2,Win32,60,3JGHED38EEUBHKLEXT03MSX095NY7O,3B1NLC6UG0Z3NJ28PBDG3XC5RW3PGB,UL1B8,UL1B8,3B1NLC6UG0Z3NJ28PBDG3XC5RW3PGB,3B1NLC6UG0Z3NJ28PBDG3XC5RW3PGB,262458,262458,,,,
,,,,,,,,3,0.19501,0,15,15,17,1,A33JUNE5HHLET4,31,rensink_Kids-a_w_outline.jpg,rensink_Kids-b_w_outline.jpg,28,m,A33JUNE5HHLET4,2020-12-07_17h22.57.903,MetaAwareness,2020.1.2,Win32,60,3JGHED38EEUBHKLEXT03MSX095NY7O,3B1NLC6UG0Z3NJ28PBDG3XC5RW3PGB,UL1B8,UL1B8,3B1NLC6UG0Z3NJ28PBDG3XC5RW3PGB,3B1NLC6UG0Z3NJ28PBDG3XC5RW3PGB,262458,262458,,,,
,,,,,,,,4,0.213355,0,16,16,28,1,A33JUNE5HHLET4,47,rensink_Window-a_w_outline.jpg,rensink_Window-b_w_outline.jpg,28,m,A33JUNE5HHLET4,2020-12-07_17h22.57.903,MetaAwareness,2020.1.2,Win32,60,3JGHED38EEUBHKLEXT03MSX095NY7O,3B1NLC6UG0Z3NJ28PBDG3XC5RW3PGB,UL1B8,UL1B8,3B1NLC6UG0Z3NJ28PBDG3XC5RW3PGB,3B1NLC6UG0Z3NJ28PBDG3XC5RW3PGB,262458,262458,,,,
,,,,,,,,3,0.087845,0,17,17,21,1,A33JUNE5HHLET4,37,rensink_Nurses-a_w_outline.jpg,rensink_Nurses-b_w_outline.jpg,28,m,A33JUNE5HHLET4,2020-12-07_17h22.57.903,MetaAwareness,2020.1.2,Win32,60,3JGHED38EEUBHKLEXT03MSX095NY7O,3B1NLC6UG0Z3NJ28PBDG3XC5RW3PGB,UL1B8,UL1B8,3B1NLC6UG0Z3NJ28PBDG3XC5RW3PGB,3B1NLC6UG0Z3NJ28PBDG3XC5RW3PGB,262458,262458,,,,
,,,,,,,,5,0.237105,0,18,18,6,1,A33JUNE5HHLET4,10,rensink_Cactus-a_w_outline.jpg,rensink_Cactus-b_w_outline.jpg,28,m,A33JUNE5HHLET4,2020-12-07_17h22.57.903,MetaAwareness,2020.1.2,Win32,60,3JGHED38EEUBHKLEXT03MSX095NY7O,3B1NLC6UG0Z3NJ28PBDG3XC5RW3PGB,UL1B8,UL1B8,3B1NLC6UG0Z3NJ28PBDG3XC5RW3PGB,3B1NLC6UG0Z3NJ28PBDG3XC5RW3PGB,262458,262458,,,,
,,,,,,,,4,0.140445,0,19,19,24,1,A33JUNE5HHLET4,43,rensink_Station-a_w_outline.jpg,rensink_Station-b_w_outline.jpg,28,m,A33JUNE5HHLET4,2020-12-07_17h22.57.903,MetaAwareness,2020.1.2,Win32,60,3JGHED38EEUBHKLEXT03MSX095NY7O,3B1NLC6UG0Z3NJ28PBDG3XC5RW3PGB,UL1B8,UL1B8,3B1NLC6UG0Z3NJ28PBDG3XC5RW3PGB,3B1NLC6UG0Z3NJ28PBDG3XC5RW3PGB,262458,262458,,,,
,,,,,,,,3,0.013465,0,20,20,23,1,A33JUNE5HHLET4,42,rensink_Soldiers-a_w_outline.jpg,rensink_Soldiers-b_w_outline.jpg,28,m,A33JUNE5HHLET4,2020-12-07_17h22.57.903,MetaAwareness,2020.1.2,Win32,60,3JGHED38EEUBHKLEXT03MSX095NY7O,3B1NLC6UG0Z3NJ28PBDG3XC5RW3PGB,UL1B8,UL1B8,3B1NLC6UG0Z3NJ28PBDG3XC5RW3PGB,3B1NLC6UG0Z3NJ28PBDG3XC5RW3PGB,262458,262458,,,,
,,,,,,,,3,0.2345,0,21,21,8,1,A33JUNE5HHLET4,13,rensink_Castle-a_w_outline.jpg,rensink_Castle-b_w_outline.jpg,28,m,A33JUNE5HHLET4,2020-12-07_17h22.57.903,MetaAwareness,2020.1.2,Win32,60,3JGHED38EEUBHKLEXT03MSX095NY7O,3B1NLC6UG0Z3NJ28PBDG3XC5RW3PGB,UL1B8,UL1B8,3B1NLC6UG0Z3NJ28PBDG3XC5RW3PGB,3B1NLC6UG0Z3NJ28PBDG3XC5RW3PGB,262458,262458,,,,
,,,,,,,,3,0.21626,0,22,22,20,1,A33JUNE5HHLET4,35,rensink_Mosque-a_w_outline.jpg,rensink_Mosque-b_w_outline.jpg,28,m,A33JUNE5HHLET4,2020-12-07_17h22.57.903,MetaAwareness,2020.1.2,Win32,60,3JGHED38EEUBHKLEXT03MSX095NY7O,3B1NLC6UG0Z3NJ28PBDG3XC5RW3PGB,UL1B8,UL1B8,3B1NLC6UG0Z3NJ28PBDG3XC5RW3PGB,3B1NLC6UG0Z3NJ28PBDG3XC5RW3PGB,262458,262458,,,,
,,,,,,,,4,0.04728,0,23,23,10,1,A33JUNE5HHLET4,15,rensink_Cockpit-a_w_outline.jpg,rensink_Cockpit-b_w_outline.jpg,28,m,A33JUNE5HHLET4,2020-12-07_17h22.57.903,MetaAwareness,2020.1.2,Win32,60,3JGHED38EEUBHKLEXT03MSX095NY7O,3B1NLC6UG0Z3NJ28PBDG3XC5RW3PGB,UL1B8,UL1B8,3B1NLC6UG0Z3NJ28PBDG3XC5RW3PGB,3B1NLC6UG0Z3NJ28PBDG3XC5RW3PGB,262458,262458,,,,
,,,,,,,,4,0.28854,0,24,24,22,1,A33JUNE5HHLET4,38,rensink_Obelisk-a_w_outline.jpg,rensink_Obelisk-b_w_outline.jpg,28,m,A33JUNE5HHLET4,2020-12-07_17h22.57.903,MetaAwareness,2020.1.2,Win32,60,3JGHED38EEUBHKLEXT03MSX095NY7O,3B1NLC6UG0Z3NJ28PBDG3XC5RW3PGB,UL1B8,UL1B8,3B1NLC6UG0Z3NJ28PBDG3XC5RW3PGB,3B1NLC6UG0Z3NJ28PBDG3XC5RW3PGB,262458,262458,,,,
,,,,,,,,5,0.21365,0,25,25,16,1,A33JUNE5HHLET4,29,rensink_Kayak-a_w_outline.jpg,rensink_Kayak-b_w_outline.jpg,28,m,A33JUNE5HHLET4,2020-12-07_17h22.57.903,MetaAwareness,2020.1.2,Win32,60,3JGHED38EEUBHKLEXT03MSX095NY7O,3B1NLC6UG0Z3NJ28PBDG3XC5RW3PGB,UL1B8,UL1B8,3B1NLC6UG0Z3NJ28PBDG3XC5RW3PGB,3B1NLC6UG0Z3NJ28PBDG3XC5RW3PGB,262458,262458,,,,
,,,,,,,,3,0.235705,0,26,26,18,1,A33JUNE5HHLET4,32,rensink_Lake-a_w_outline.jpg,rensink_Lake-b_w_outline.jpg,28,m,A33JUNE5HHLET4,2020-12-07_17h22.57.903,MetaAwareness,2020.1.2,Win32,60,3JGHED38EEUBHKLEXT03MSX095NY7O,3B1NLC6UG0Z3NJ28PBDG3XC5RW3PGB,UL1B8,UL1B8,3B1NLC6UG0Z3NJ28PBDG3XC5RW3PGB,3B1NLC6UG0Z3NJ28PBDG3XC5RW3PGB,262458,262458,,,,
,,,,,,,,4,0.01346,0,27,27,3,1,A33JUNE5HHLET4,5,rensink_Barrels-a_w_outline.jpg,rensink_Barrels-b_w_outline.jpg,28,m,A33JUNE5HHLET4,2020-12-07_17h22.57.903,MetaAwareness,2020.1.2,Win32,60,3JGHED38EEUBHKLEXT03MSX095NY7O,3B1NLC6UG0Z3NJ28PBDG3XC5RW3PGB,UL1B8,UL1B8,3B1NLC6UG0Z3NJ28PBDG3XC5RW3PGB,3B1NLC6UG0Z3NJ28PBDG3XC5RW3PGB,262458,262458,,,,
,,,,,,,,5,0.220525,0,28,28,13,1,A33JUNE5HHLET4,24,rensink_Floatplane-a_w_outline.jpg,rensink_Floatplane-b_w_outline.jpg,28,m,A33JUNE5HHLET4,2020-12-07_17h22.57.903,MetaAwareness,2020.1.2,Win32,60,3JGHED38EEUBHKLEXT03MSX095NY7O,3B1NLC6UG0Z3NJ28PBDG3XC5RW3PGB,UL1B8,UL1B8,3B1NLC6UG0Z3NJ28PBDG3XC5RW3PGB,3B1NLC6UG0Z3NJ28PBDG3XC5RW3PGB,262458,262458,,,,
,,,,,,,,3,0.29,0,29,29,29,1,A33JUNE5HHLET4,48,rensink_Wine-a_w_outline.jpg,rensink_Wine-b_w_outline.jpg,28,m,A33JUNE5HHLET4,2020-12-07_17h22.57.903,MetaAwareness,2020.1.2,Win32,60,3JGHED38EEUBHKLEXT03MSX095NY7O,3B1NLC6UG0Z3NJ28PBDG3XC5RW3PGB,UL1B8,UL1B8,3B1NLC6UG0Z3NJ28PBDG3XC5RW3PGB,3B1NLC6UG0Z3NJ28PBDG3XC5RW3PGB,262458,262458,,,,
,,,,,,,,,,,,,,,A33JUNE5HHLET4,,,,28,m,A33JUNE5HHLET4,2020-12-07_17h22.57.903,MetaAwareness,2020.1.2,Win32,60,3JGHED38EEUBHKLEXT03MSX095NY7O,3B1NLC6UG0Z3NJ28PBDG3XC5RW3PGB,UL1B8,UL1B8,3B1NLC6UG0Z3NJ28PBDG3XC5RW3PGB,3B1NLC6UG0Z3NJ28PBDG3XC5RW3PGB,262458,262458,4,0.18815,4,0.53543
