consent_response.keys,consent_response.rt,key_resp_2.keys,key_resp_2.rt,Airplane_resp.keys,Airplane_resp.rt,Boat_resp.keys,Boat_resp.rt,user_resp.keys,user_resp.rt,trials.thisRepN,trials.thisTrialN,trials.thisN,trials.thisIndex,trials.ran,workerId,trial_num,image_a,image_b,age,gender (m/f),worker_ID,date,expName,psychopyVersion,OS,frameRate,hitId,assignmentId,a,tp_a,b,tp_b,c,tp_c,Cow_resp.keys,Cow_resp.rt,Garden_resp.keys,Garden_resp.rt
space,22.663,space,70.125,5,8.489,5,1.792,4,4.215,0,0,0,23,1,A34YRW76R9JICL,39,rensink_OtherDiver-a_w_outline.jpg,rensink_OtherDiver-b_w_outline.jpg,41,female,A34YRW76R9JICL,2020-12-08_12h20.58.379,MetaAwareness,2020.1.2,Win32,60,3SU800BH87V46T6OJRCKJY8II8TUQB,3CFVK00FWMOBZ5Y4L6BNAPQWSCK6LL,FKFC3,FKFC3,3CFVK00FWMOBZ5Y4L6BNAPQWSCK6LL,3CFVK00FWMOBZ5Y4L6BNAPQWSCK6LL,262733,262733,,,,
,,,,,,,,1,5.29,0,1,1,15,1,A34YRW76R9JICL,28,rensink_Ice-a_w_outline.jpg,rensink_Ice-b_w_outline.jpg,41,female,A34YRW76R9JICL,2020-12-08_12h20.58.379,MetaAwareness,2020.1.2,Win32,60,3SU800BH87V46T6OJRCKJY8II8TUQB,3CFVK00FWMOBZ5Y4L6BNAPQWSCK6LL,FKFC3,FKFC3,3CFVK00FWMOBZ5Y4L6BNAPQWSCK6LL,3CFVK00FWMOBZ5Y4L6BNAPQWSCK6LL,262733,262733,,,,
,,,,,,,,3,5.385,0,2,2,27,1,A34YRW76R9JICL,45,rensink_Turtle-a_w_outline.jpg,rensink_Turtle-b_w_outline.jpg,41,female,A34YRW76R9JICL,2020-12-08_12h20.58.379,MetaAwareness,2020.1.2,Win32,60,3SU800BH87V46T6OJRCKJY8II8TUQB,3CFVK00FWMOBZ5Y4L6BNAPQWSCK6LL,FKFC3,FKFC3,3CFVK00FWMOBZ5Y4L6BNAPQWSCK6LL,3CFVK00FWMOBZ5Y4L6BNAPQWSCK6LL,262733,262733,,,,
,,,,,,,,1,6.637,0,3,3,0,1,A34YRW76R9JICL,2,rensink_Army-a_w_outline.jpg,rensink_Army-b_w_outline.jpg,41,female,A34YRW76R9JICL,2020-12-08_12h20.58.379,MetaAwareness,2020.1.2,Win32,60,3SU800BH87V46T6OJRCKJY8II8TUQB,3CFVK00FWMOBZ5Y4L6BNAPQWSCK6LL,FKFC3,FKFC3,3CFVK00FWMOBZ5Y4L6BNAPQWSCK6LL,3CFVK00FWMOBZ5Y4L6BNAPQWSCK6LL,262733,262733,,,,
,,,,,,,,1,7.398,0,4,4,19,1,A34YRW76R9JICL,35,rensink_Mosque-a_w_outline.jpg,rensink_Mosque-b_w_outline.jpg,41,female,A34YRW76R9JICL,2020-12-08_12h20.58.379,MetaAwareness,2020.1.2,Win32,60,3SU800BH87V46T6OJRCKJY8II8TUQB,3CFVK00FWMOBZ5Y4L6BNAPQWSCK6LL,FKFC3,FKFC3,3CFVK00FWMOBZ5Y4L6BNAPQWSCK6LL,3CFVK00FWMOBZ5Y4L6BNAPQWSCK6LL,262733,262733,,,,
,,,,,,,,3,6.089,0,5,5,13,1,A34YRW76R9JICL,26,rensink_Harbor-a_w_outline.jpg,rensink_Harbor-b_w_outline.jpg,41,female,A34YRW76R9JICL,2020-12-08_12h20.58.379,MetaAwareness,2020.1.2,Win32,60,3SU800BH87V46T6OJRCKJY8II8TUQB,3CFVK00FWMOBZ5Y4L6BNAPQWSCK6LL,FKFC3,FKFC3,3CFVK00FWMOBZ5Y4L6BNAPQWSCK6LL,3CFVK00FWMOBZ5Y4L6BNAPQWSCK6LL,262733,262733,,,,
,,,,,,,,2,6.018,0,6,6,7,1,A34YRW76R9JICL,16,rensink_Description-a_w_outline.jpg,rensink_Description-b_w_outline.jpg,41,female,A34YRW76R9JICL,2020-12-08_12h20.58.379,MetaAwareness,2020.1.2,Win32,60,3SU800BH87V46T6OJRCKJY8II8TUQB,3CFVK00FWMOBZ5Y4L6BNAPQWSCK6LL,FKFC3,FKFC3,3CFVK00FWMOBZ5Y4L6BNAPQWSCK6LL,3CFVK00FWMOBZ5Y4L6BNAPQWSCK6LL,262733,262733,,,,
,,,,,,,,3,5.31,0,7,7,25,1,A34YRW76R9JICL,43,rensink_Station-a_w_outline.jpg,rensink_Station-b_w_outline.jpg,41,female,A34YRW76R9JICL,2020-12-08_12h20.58.379,MetaAwareness,2020.1.2,Win32,60,3SU800BH87V46T6OJRCKJY8II8TUQB,3CFVK00FWMOBZ5Y4L6BNAPQWSCK6LL,FKFC3,FKFC3,3CFVK00FWMOBZ5Y4L6BNAPQWSCK6LL,3CFVK00FWMOBZ5Y4L6BNAPQWSCK6LL,262733,262733,,,,
,,,,,,,,3,8.137,0,8,8,10,1,A34YRW76R9JICL,21,rensink_FarmByPond-a_w_outline.jpg,rensink_FarmByPond-b_w_outline.jpg,41,female,A34YRW76R9JICL,2020-12-08_12h20.58.379,MetaAwareness,2020.1.2,Win32,60,3SU800BH87V46T6OJRCKJY8II8TUQB,3CFVK00FWMOBZ5Y4L6BNAPQWSCK6LL,FKFC3,FKFC3,3CFVK00FWMOBZ5Y4L6BNAPQWSCK6LL,3CFVK00FWMOBZ5Y4L6BNAPQWSCK6LL,262733,262733,,,,
,,,,,,,,3,6.265,0,9,9,14,1,A34YRW76R9JICL,27,rensink_Horizon-a_w_outline.jpg,rensink_Horizon-b_w_outline.jpg,41,female,A34YRW76R9JICL,2020-12-08_12h20.58.379,MetaAwareness,2020.1.2,Win32,60,3SU800BH87V46T6OJRCKJY8II8TUQB,3CFVK00FWMOBZ5Y4L6BNAPQWSCK6LL,FKFC3,FKFC3,3CFVK00FWMOBZ5Y4L6BNAPQWSCK6LL,3CFVK00FWMOBZ5Y4L6BNAPQWSCK6LL,262733,262733,,,,
,,,,,,,,2,6.41,0,10,10,6,1,A34YRW76R9JICL,15,rensink_Cockpit-a_w_outline.jpg,rensink_Cockpit-b_w_outline.jpg,41,female,A34YRW76R9JICL,2020-12-08_12h20.58.379,MetaAwareness,2020.1.2,Win32,60,3SU800BH87V46T6OJRCKJY8II8TUQB,3CFVK00FWMOBZ5Y4L6BNAPQWSCK6LL,FKFC3,FKFC3,3CFVK00FWMOBZ5Y4L6BNAPQWSCK6LL,3CFVK00FWMOBZ5Y4L6BNAPQWSCK6LL,262733,262733,,,,
,,,,,,,,2,6.362,0,11,11,18,1,A34YRW76R9JICL,31,rensink_Kids-a_w_outline.jpg,rensink_Kids-b_w_outline.jpg,41,female,A34YRW76R9JICL,2020-12-08_12h20.58.379,MetaAwareness,2020.1.2,Win32,60,3SU800BH87V46T6OJRCKJY8II8TUQB,3CFVK00FWMOBZ5Y4L6BNAPQWSCK6LL,FKFC3,FKFC3,3CFVK00FWMOBZ5Y4L6BNAPQWSCK6LL,3CFVK00FWMOBZ5Y4L6BNAPQWSCK6LL,262733,262733,,,,
,,,,,,,,4,5.913,0,12,12,3,1,A34YRW76R9JICL,8,rensink_Boat-a_w_outline.jpg,rensink_Boat-b_w_outline.jpg,41,female,A34YRW76R9JICL,2020-12-08_12h20.58.379,MetaAwareness,2020.1.2,Win32,60,3SU800BH87V46T6OJRCKJY8II8TUQB,3CFVK00FWMOBZ5Y4L6BNAPQWSCK6LL,FKFC3,FKFC3,3CFVK00FWMOBZ5Y4L6BNAPQWSCK6LL,3CFVK00FWMOBZ5Y4L6BNAPQWSCK6LL,262733,262733,,,,
,,,,,,,,3,18.394,0,13,13,21,1,A34YRW76R9JICL,37,rensink_Nurses-a_w_outline.jpg,rensink_Nurses-b_w_outline.jpg,41,female,A34YRW76R9JICL,2020-12-08_12h20.58.379,MetaAwareness,2020.1.2,Win32,60,3SU800BH87V46T6OJRCKJY8II8TUQB,3CFVK00FWMOBZ5Y4L6BNAPQWSCK6LL,FKFC3,FKFC3,3CFVK00FWMOBZ5Y4L6BNAPQWSCK6LL,3CFVK00FWMOBZ5Y4L6BNAPQWSCK6LL,262733,262733,,,,
,,,,,,,,1,3.9,0,14,14,22,1,A34YRW76R9JICL,38,rensink_Obelisk-a_w_outline.jpg,rensink_Obelisk-b_w_outline.jpg,41,female,A34YRW76R9JICL,2020-12-08_12h20.58.379,MetaAwareness,2020.1.2,Win32,60,3SU800BH87V46T6OJRCKJY8II8TUQB,3CFVK00FWMOBZ5Y4L6BNAPQWSCK6LL,FKFC3,FKFC3,3CFVK00FWMOBZ5Y4L6BNAPQWSCK6LL,3CFVK00FWMOBZ5Y4L6BNAPQWSCK6LL,262733,262733,,,,
,,,,,,,,3,3.419,0,15,15,24,1,A34YRW76R9JICL,40,rensink_Pilots-a_w_outline.jpg,rensink_Pilots-b_w_outline.jpg,41,female,A34YRW76R9JICL,2020-12-08_12h20.58.379,MetaAwareness,2020.1.2,Win32,60,3SU800BH87V46T6OJRCKJY8II8TUQB,3CFVK00FWMOBZ5Y4L6BNAPQWSCK6LL,FKFC3,FKFC3,3CFVK00FWMOBZ5Y4L6BNAPQWSCK6LL,3CFVK00FWMOBZ5Y4L6BNAPQWSCK6LL,262733,262733,,,,
,,,,,,,,3,4.979,0,16,16,20,1,A34YRW76R9JICL,36,rensink_NotreDame-a_w_outline.jpg,rensink_NotreDame-b_w_outline.jpg,41,female,A34YRW76R9JICL,2020-12-08_12h20.58.379,MetaAwareness,2020.1.2,Win32,60,3SU800BH87V46T6OJRCKJY8II8TUQB,3CFVK00FWMOBZ5Y4L6BNAPQWSCK6LL,FKFC3,FKFC3,3CFVK00FWMOBZ5Y4L6BNAPQWSCK6LL,3CFVK00FWMOBZ5Y4L6BNAPQWSCK6LL,262733,262733,,,,
,,,,,,,,3,6.076,0,17,17,12,1,A34YRW76R9JICL,25,rensink_Fountain-a_w_outline.jpg,rensink_Fountain-b_w_outline.jpg,41,female,A34YRW76R9JICL,2020-12-08_12h20.58.379,MetaAwareness,2020.1.2,Win32,60,3SU800BH87V46T6OJRCKJY8II8TUQB,3CFVK00FWMOBZ5Y4L6BNAPQWSCK6LL,FKFC3,FKFC3,3CFVK00FWMOBZ5Y4L6BNAPQWSCK6LL,3CFVK00FWMOBZ5Y4L6BNAPQWSCK6LL,262733,262733,,,,
,,,,,,,,4,6.6,0,18,18,11,1,A34YRW76R9JICL,23,rensink_Fishing-a_w_outline.jpg,rensink_Fishing-b_w_outline.jpg,41,female,A34YRW76R9JICL,2020-12-08_12h20.58.379,MetaAwareness,2020.1.2,Win32,60,3SU800BH87V46T6OJRCKJY8II8TUQB,3CFVK00FWMOBZ5Y4L6BNAPQWSCK6LL,FKFC3,FKFC3,3CFVK00FWMOBZ5Y4L6BNAPQWSCK6LL,3CFVK00FWMOBZ5Y4L6BNAPQWSCK6LL,262733,262733,,,,
,,,,,,,,4,4.006,0,19,19,1,1,A34YRW76R9JICL,4,rensink_BarnTrack-a_w_outline.jpg,rensink_BarnTrack-b_w_outline.jpg,41,female,A34YRW76R9JICL,2020-12-08_12h20.58.379,MetaAwareness,2020.1.2,Win32,60,3SU800BH87V46T6OJRCKJY8II8TUQB,3CFVK00FWMOBZ5Y4L6BNAPQWSCK6LL,FKFC3,FKFC3,3CFVK00FWMOBZ5Y4L6BNAPQWSCK6LL,3CFVK00FWMOBZ5Y4L6BNAPQWSCK6LL,262733,262733,,,,
,,,,,,,,2,4.772,0,20,20,16,1,A34YRW76R9JICL,29,rensink_Kayak-a_w_outline.jpg,rensink_Kayak-b_w_outline.jpg,41,female,A34YRW76R9JICL,2020-12-08_12h20.58.379,MetaAwareness,2020.1.2,Win32,60,3SU800BH87V46T6OJRCKJY8II8TUQB,3CFVK00FWMOBZ5Y4L6BNAPQWSCK6LL,FKFC3,FKFC3,3CFVK00FWMOBZ5Y4L6BNAPQWSCK6LL,3CFVK00FWMOBZ5Y4L6BNAPQWSCK6LL,262733,262733,,,,
,,,,,,,,5,6.989,0,21,21,2,1,A34YRW76R9JICL,7,rensink_Birds-a_w_outline.jpg,rensink_Birds-b_w_outline.jpg,41,female,A34YRW76R9JICL,2020-12-08_12h20.58.379,MetaAwareness,2020.1.2,Win32,60,3SU800BH87V46T6OJRCKJY8II8TUQB,3CFVK00FWMOBZ5Y4L6BNAPQWSCK6LL,FKFC3,FKFC3,3CFVK00FWMOBZ5Y4L6BNAPQWSCK6LL,3CFVK00FWMOBZ5Y4L6BNAPQWSCK6LL,262733,262733,,,,
,,,,,,,,4,6.421,0,22,22,8,1,A34YRW76R9JICL,17,rensink_Dinner-a_w_outline.jpg,rensink_Dinner-b_w_outline.jpg,41,female,A34YRW76R9JICL,2020-12-08_12h20.58.379,MetaAwareness,2020.1.2,Win32,60,3SU800BH87V46T6OJRCKJY8II8TUQB,3CFVK00FWMOBZ5Y4L6BNAPQWSCK6LL,FKFC3,FKFC3,3CFVK00FWMOBZ5Y4L6BNAPQWSCK6LL,3CFVK00FWMOBZ5Y4L6BNAPQWSCK6LL,262733,262733,,,,
,,,,,,,,1,8.798,0,23,23,26,1,A34YRW76R9JICL,44,rensink_SummerLake-a_w_outline.jpg,rensink_SummerLake-b_w_outline.jpg,41,female,A34YRW76R9JICL,2020-12-08_12h20.58.379,MetaAwareness,2020.1.2,Win32,60,3SU800BH87V46T6OJRCKJY8II8TUQB,3CFVK00FWMOBZ5Y4L6BNAPQWSCK6LL,FKFC3,FKFC3,3CFVK00FWMOBZ5Y4L6BNAPQWSCK6LL,3CFVK00FWMOBZ5Y4L6BNAPQWSCK6LL,262733,262733,,,,
,,,,,,,,5,4.497,0,24,24,5,1,A34YRW76R9JICL,13,rensink_Castle-a_w_outline.jpg,rensink_Castle-b_w_outline.jpg,41,female,A34YRW76R9JICL,2020-12-08_12h20.58.379,MetaAwareness,2020.1.2,Win32,60,3SU800BH87V46T6OJRCKJY8II8TUQB,3CFVK00FWMOBZ5Y4L6BNAPQWSCK6LL,FKFC3,FKFC3,3CFVK00FWMOBZ5Y4L6BNAPQWSCK6LL,3CFVK00FWMOBZ5Y4L6BNAPQWSCK6LL,262733,262733,,,,
,,,,,,,,1,6.946,0,25,25,29,1,A34YRW76R9JICL,48,rensink_Wine-a_w_outline.jpg,rensink_Wine-b_w_outline.jpg,41,female,A34YRW76R9JICL,2020-12-08_12h20.58.379,MetaAwareness,2020.1.2,Win32,60,3SU800BH87V46T6OJRCKJY8II8TUQB,3CFVK00FWMOBZ5Y4L6BNAPQWSCK6LL,FKFC3,FKFC3,3CFVK00FWMOBZ5Y4L6BNAPQWSCK6LL,3CFVK00FWMOBZ5Y4L6BNAPQWSCK6LL,262733,262733,,,,
,,,,,,,,1,7.041,0,26,26,4,1,A34YRW76R9JICL,9,rensink_Bus-a_w_outline.jpg,rensink_Bus-b_w_outline.jpg,41,female,A34YRW76R9JICL,2020-12-08_12h20.58.379,MetaAwareness,2020.1.2,Win32,60,3SU800BH87V46T6OJRCKJY8II8TUQB,3CFVK00FWMOBZ5Y4L6BNAPQWSCK6LL,FKFC3,FKFC3,3CFVK00FWMOBZ5Y4L6BNAPQWSCK6LL,3CFVK00FWMOBZ5Y4L6BNAPQWSCK6LL,262733,262733,,,,
,,,,,,,,1,5.159,0,27,27,17,1,A34YRW76R9JICL,30,rensink_Kayaker-a_w_outline.jpg,rensink_Kayaker-b_w_outline.jpg,41,female,A34YRW76R9JICL,2020-12-08_12h20.58.379,MetaAwareness,2020.1.2,Win32,60,3SU800BH87V46T6OJRCKJY8II8TUQB,3CFVK00FWMOBZ5Y4L6BNAPQWSCK6LL,FKFC3,FKFC3,3CFVK00FWMOBZ5Y4L6BNAPQWSCK6LL,3CFVK00FWMOBZ5Y4L6BNAPQWSCK6LL,262733,262733,,,,
,,,,,,,,1,5.677,0,28,28,28,1,A34YRW76R9JICL,47,rensink_Window-a_w_outline.jpg,rensink_Window-b_w_outline.jpg,41,female,A34YRW76R9JICL,2020-12-08_12h20.58.379,MetaAwareness,2020.1.2,Win32,60,3SU800BH87V46T6OJRCKJY8II8TUQB,3CFVK00FWMOBZ5Y4L6BNAPQWSCK6LL,FKFC3,FKFC3,3CFVK00FWMOBZ5Y4L6BNAPQWSCK6LL,3CFVK00FWMOBZ5Y4L6BNAPQWSCK6LL,262733,262733,,,,
,,,,,,,,5,6.507,0,29,29,9,1,A34YRW76R9JICL,19,rensink_Eating-a_w_outline.jpg,rensink_Eating-b_w_outline.jpg,41,female,A34YRW76R9JICL,2020-12-08_12h20.58.379,MetaAwareness,2020.1.2,Win32,60,3SU800BH87V46T6OJRCKJY8II8TUQB,3CFVK00FWMOBZ5Y4L6BNAPQWSCK6LL,FKFC3,FKFC3,3CFVK00FWMOBZ5Y4L6BNAPQWSCK6LL,3CFVK00FWMOBZ5Y4L6BNAPQWSCK6LL,262733,262733,,,,
,,,,,,,,,,,,,,,A34YRW76R9JICL,,,,41,female,A34YRW76R9JICL,2020-12-08_12h20.58.379,MetaAwareness,2020.1.2,Win32,60,3SU800BH87V46T6OJRCKJY8II8TUQB,3CFVK00FWMOBZ5Y4L6BNAPQWSCK6LL,FKFC3,FKFC3,3CFVK00FWMOBZ5Y4L6BNAPQWSCK6LL,3CFVK00FWMOBZ5Y4L6BNAPQWSCK6LL,262733,262733,1,1.897,1,17.704
