consent_response.keys,consent_response.rt,key_resp_2.keys,key_resp_2.rt,user_resp.keys,user_resp.rt,trials.thisRepN,trials.thisTrialN,trials.thisN,trials.thisIndex,trials.ran,image_1_text,image_2_text,database,image,number,age,worker_ID,date,expName,psychopyVersion,OS,frameRate,hitId,workerId,assignmentId,a,tp_a,b,tp_b,c,tp_c,catch_same_resp.keys,catch_same_resp.rt,image_1_text_catch_same,image_2_text_catch_same,image_catch_same,catch_different_resp.keys,catch_different_resp.rt,image_1_text_catch_different,image_2_text_catch_different,image_catch_different
space,3.936365,space,9.90895,4,9.515805,0,0,0,212,1,a nice bathroom with a bathtub with two handles over the wall,a nice bathroom with a bathtub with three handles over the wall,wolfe2,068_L_faucet,3,36,A12FCLCVIM2CL3,2021-01-25_19h43.22.351,MetaAwareness,2020.1.2,Win32,60,3P520RYKCI9FD7NQZZOHLNDROTRU5J,A12FCLCVIM2CL3,3DY46V3X3QL1ECV5O0LB1UGZFSX55B,X6YD1,X6YD1,3DY46V3X3QL1ECV5O0LB1UGZFSX55B,3DY46V3X3QL1ECV5O0LB1UGZFSX55B,271351,271351,,,,,,,,,,
,,,,3,6.948985,0,1,1,260,1,there is nothing appear in the under the stool set chamber,a small piece appear under the chamber,wolfe2,081_R_football,1,36,A12FCLCVIM2CL3,2021-01-25_19h43.22.351,MetaAwareness,2020.1.2,Win32,60,3P520RYKCI9FD7NQZZOHLNDROTRU5J,A12FCLCVIM2CL3,3DY46V3X3QL1ECV5O0LB1UGZFSX55B,X6YD1,X6YD1,3DY46V3X3QL1ECV5O0LB1UGZFSX55B,3DY46V3X3QL1ECV5O0LB1UGZFSX55B,271351,271351,,,,,,,,,,
,,,,5,7.308665,0,2,2,378,1,a well lit bedroom with a car and a lamp on the left end table,a well lit bedroom with a lamp on the left end table.,wolfe2,121_L_car,1,36,A12FCLCVIM2CL3,2021-01-25_19h43.22.351,MetaAwareness,2020.1.2,Win32,60,3P520RYKCI9FD7NQZZOHLNDROTRU5J,A12FCLCVIM2CL3,3DY46V3X3QL1ECV5O0LB1UGZFSX55B,X6YD1,X6YD1,3DY46V3X3QL1ECV5O0LB1UGZFSX55B,3DY46V3X3QL1ECV5O0LB1UGZFSX55B,271351,271351,,,,,,,,,,
,,,,2,5.574875,0,3,3,214,1,a bathroom with three different,a bathroom with an extra faucet to start the bath,wolfe2,068_R_faucet,1,36,A12FCLCVIM2CL3,2021-01-25_19h43.22.351,MetaAwareness,2020.1.2,Win32,60,3P520RYKCI9FD7NQZZOHLNDROTRU5J,A12FCLCVIM2CL3,3DY46V3X3QL1ECV5O0LB1UGZFSX55B,X6YD1,X6YD1,3DY46V3X3QL1ECV5O0LB1UGZFSX55B,3DY46V3X3QL1ECV5O0LB1UGZFSX55B,271351,271351,,,,,,,,,,
,,,,4,6.521875,0,4,4,104,1,a bedroom with a white nighstand and two drawers,a bedroom with a white nightstand and three drawers,wolfe2,034_R_handle,2,36,A12FCLCVIM2CL3,2021-01-25_19h43.22.351,MetaAwareness,2020.1.2,Win32,60,3P520RYKCI9FD7NQZZOHLNDROTRU5J,A12FCLCVIM2CL3,3DY46V3X3QL1ECV5O0LB1UGZFSX55B,X6YD1,X6YD1,3DY46V3X3QL1ECV5O0LB1UGZFSX55B,3DY46V3X3QL1ECV5O0LB1UGZFSX55B,271351,271351,,,,,,,,,,
,,,,2,8.34891,0,5,5,279,1,the picture is very union and clock is showing the time,the picture is very union and there is no clock,wolfe2,088_L_clock,3,36,A12FCLCVIM2CL3,2021-01-25_19h43.22.351,MetaAwareness,2020.1.2,Win32,60,3P520RYKCI9FD7NQZZOHLNDROTRU5J,A12FCLCVIM2CL3,3DY46V3X3QL1ECV5O0LB1UGZFSX55B,X6YD1,X6YD1,3DY46V3X3QL1ECV5O0LB1UGZFSX55B,3DY46V3X3QL1ECV5O0LB1UGZFSX55B,271351,271351,,,,,,,,,,
,,,,5,7.321725,0,6,6,71,1,"a colorful office with a desk, chair and computer","a colorful office with a desk, chair, keyboard, and computer",wolfe2,021_R_keyboard,3,36,A12FCLCVIM2CL3,2021-01-25_19h43.22.351,MetaAwareness,2020.1.2,Win32,60,3P520RYKCI9FD7NQZZOHLNDROTRU5J,A12FCLCVIM2CL3,3DY46V3X3QL1ECV5O0LB1UGZFSX55B,X6YD1,X6YD1,3DY46V3X3QL1ECV5O0LB1UGZFSX55B,3DY46V3X3QL1ECV5O0LB1UGZFSX55B,271351,271351,,,,,,,,,,
,,,,5,8.45491,0,7,7,111,1,a colorful red and light colored kitchen with a shelf with 5 coffee mugs,a colorful red and light colored kitchen with a shelf with 6 coffee mugs,wolfe2,036_L_bowl,4,36,A12FCLCVIM2CL3,2021-01-25_19h43.22.351,MetaAwareness,2020.1.2,Win32,60,3P520RYKCI9FD7NQZZOHLNDROTRU5J,A12FCLCVIM2CL3,3DY46V3X3QL1ECV5O0LB1UGZFSX55B,X6YD1,X6YD1,3DY46V3X3QL1ECV5O0LB1UGZFSX55B,3DY46V3X3QL1ECV5O0LB1UGZFSX55B,271351,271351,,,,,,,,,,
,,,,4,9.676925,0,8,8,225,1,"a white, bright, upscale living room with one light fixture next to the mirror","a white, bright, upscale living room with a light fixture on either side of the mirror",wolfe2,070_R_lamp,5,36,A12FCLCVIM2CL3,2021-01-25_19h43.22.351,MetaAwareness,2020.1.2,Win32,60,3P520RYKCI9FD7NQZZOHLNDROTRU5J,A12FCLCVIM2CL3,3DY46V3X3QL1ECV5O0LB1UGZFSX55B,X6YD1,X6YD1,3DY46V3X3QL1ECV5O0LB1UGZFSX55B,3DY46V3X3QL1ECV5O0LB1UGZFSX55B,271351,271351,,,,,,,,,,
,,,,2,6.495485,0,9,9,277,1,a disorganized bathroom with a towel holder attached to the wall,a disorganized bathroom without a towel holder on the wall,wolfe2,087_R_towelhandle,1,36,A12FCLCVIM2CL3,2021-01-25_19h43.22.351,MetaAwareness,2020.1.2,Win32,60,3P520RYKCI9FD7NQZZOHLNDROTRU5J,A12FCLCVIM2CL3,3DY46V3X3QL1ECV5O0LB1UGZFSX55B,X6YD1,X6YD1,3DY46V3X3QL1ECV5O0LB1UGZFSX55B,3DY46V3X3QL1ECV5O0LB1UGZFSX55B,271351,271351,,,,,,,,,,
,,,,4,11.127025,0,10,10,112,1,a clean looking kitchen with  four mugs and one bowl on shelf under cabinets to left of stove,a clean looking kitchen with four mugs and two bowls on shelf under cabinets to left of stove,wolfe2,036_R_bowl,2,36,A12FCLCVIM2CL3,2021-01-25_19h43.22.351,MetaAwareness,2020.1.2,Win32,60,3P520RYKCI9FD7NQZZOHLNDROTRU5J,A12FCLCVIM2CL3,3DY46V3X3QL1ECV5O0LB1UGZFSX55B,X6YD1,X6YD1,3DY46V3X3QL1ECV5O0LB1UGZFSX55B,3DY46V3X3QL1ECV5O0LB1UGZFSX55B,271351,271351,,,,,,,,,,
,,,,3,7.70461,0,11,11,355,1,a kitchen and cabinets with a plant on the counter,a kitchen and cabinets with a large spacious counter,wolfe2,115_R_pot,2,36,A12FCLCVIM2CL3,2021-01-25_19h43.22.351,MetaAwareness,2020.1.2,Win32,60,3P520RYKCI9FD7NQZZOHLNDROTRU5J,A12FCLCVIM2CL3,3DY46V3X3QL1ECV5O0LB1UGZFSX55B,X6YD1,X6YD1,3DY46V3X3QL1ECV5O0LB1UGZFSX55B,3DY46V3X3QL1ECV5O0LB1UGZFSX55B,271351,271351,,,,,,,,,,
,,,,5,6.042755,0,12,12,232,1,darke bedroom funiture missing a drawer pull,dark bedroom furniture,wolfe2,072_R_handle,1,36,A12FCLCVIM2CL3,2021-01-25_19h43.22.351,MetaAwareness,2020.1.2,Win32,60,3P520RYKCI9FD7NQZZOHLNDROTRU5J,A12FCLCVIM2CL3,3DY46V3X3QL1ECV5O0LB1UGZFSX55B,X6YD1,X6YD1,3DY46V3X3QL1ECV5O0LB1UGZFSX55B,3DY46V3X3QL1ECV5O0LB1UGZFSX55B,271351,271351,,,,,,,,,,
,,,,2,6.35845,0,13,13,89,1,a long bathroom with nothing between the two bathroom sink counters,a long bathroom with an addiional platform between the two bathroom sink counters,wolfe2,030_L_drawer,2,36,A12FCLCVIM2CL3,2021-01-25_19h43.22.351,MetaAwareness,2020.1.2,Win32,60,3P520RYKCI9FD7NQZZOHLNDROTRU5J,A12FCLCVIM2CL3,3DY46V3X3QL1ECV5O0LB1UGZFSX55B,X6YD1,X6YD1,3DY46V3X3QL1ECV5O0LB1UGZFSX55B,3DY46V3X3QL1ECV5O0LB1UGZFSX55B,271351,271351,,,,,,,,,,
,,,,2,6.39178,0,14,14,172,1,there is a rathe large stain on the rug at the library.,there is a white trashcan on the rug at the library.,wolfe2,057_R_bin,2,36,A12FCLCVIM2CL3,2021-01-25_19h43.22.351,MetaAwareness,2020.1.2,Win32,60,3P520RYKCI9FD7NQZZOHLNDROTRU5J,A12FCLCVIM2CL3,3DY46V3X3QL1ECV5O0LB1UGZFSX55B,X6YD1,X6YD1,3DY46V3X3QL1ECV5O0LB1UGZFSX55B,3DY46V3X3QL1ECV5O0LB1UGZFSX55B,271351,271351,,,,,,,,,,
,,,,2,6.77819,0,15,15,400,1,a modern living room with a three-pillared sculpture under the television.,a modern living room with nothing inder the television.,wolfe2,126_L_candles,1,36,A12FCLCVIM2CL3,2021-01-25_19h43.22.351,MetaAwareness,2020.1.2,Win32,60,3P520RYKCI9FD7NQZZOHLNDROTRU5J,A12FCLCVIM2CL3,3DY46V3X3QL1ECV5O0LB1UGZFSX55B,X6YD1,X6YD1,3DY46V3X3QL1ECV5O0LB1UGZFSX55B,3DY46V3X3QL1ECV5O0LB1UGZFSX55B,271351,271351,,,,,,,,,,
,,,,3,10.584605,0,16,16,408,1,a hope office that has a white desk with a flower in a pot on the desk,a home office with a white desk with a printer and a laptop on it,wolfe2,128_L_pot,2,36,A12FCLCVIM2CL3,2021-01-25_19h43.22.351,MetaAwareness,2020.1.2,Win32,60,3P520RYKCI9FD7NQZZOHLNDROTRU5J,A12FCLCVIM2CL3,3DY46V3X3QL1ECV5O0LB1UGZFSX55B,X6YD1,X6YD1,3DY46V3X3QL1ECV5O0LB1UGZFSX55B,3DY46V3X3QL1ECV5O0LB1UGZFSX55B,271351,271351,,,,,,,,,,
,,,,3,11.491055,0,17,17,56,1,modern home living area with a glass door to the patio. it has a statue holder but no statue,modern home living area with a glass door to the patio. it has a statue holder with a statue on it.,wolfe2,016_R_art,3,36,A12FCLCVIM2CL3,2021-01-25_19h43.22.351,MetaAwareness,2020.1.2,Win32,60,3P520RYKCI9FD7NQZZOHLNDROTRU5J,A12FCLCVIM2CL3,3DY46V3X3QL1ECV5O0LB1UGZFSX55B,X6YD1,X6YD1,3DY46V3X3QL1ECV5O0LB1UGZFSX55B,3DY46V3X3QL1ECV5O0LB1UGZFSX55B,271351,271351,,,,,,,,,,
,,,,5,6.68602,0,18,18,269,1,a living room with a scenic view,a living room with a scenic view and wall light,wolfe2,084_R_light,6,36,A12FCLCVIM2CL3,2021-01-25_19h43.22.351,MetaAwareness,2020.1.2,Win32,60,3P520RYKCI9FD7NQZZOHLNDROTRU5J,A12FCLCVIM2CL3,3DY46V3X3QL1ECV5O0LB1UGZFSX55B,X6YD1,X6YD1,3DY46V3X3QL1ECV5O0LB1UGZFSX55B,3DY46V3X3QL1ECV5O0LB1UGZFSX55B,271351,271351,,,,,,,,,,
,,,,2,4.428695,0,19,19,100,1,a bedroom with a vase on the shelf,a bedroom without a vase on the shelf,wolfe2,033_R_vase,1,36,A12FCLCVIM2CL3,2021-01-25_19h43.22.351,MetaAwareness,2020.1.2,Win32,60,3P520RYKCI9FD7NQZZOHLNDROTRU5J,A12FCLCVIM2CL3,3DY46V3X3QL1ECV5O0LB1UGZFSX55B,X6YD1,X6YD1,3DY46V3X3QL1ECV5O0LB1UGZFSX55B,3DY46V3X3QL1ECV5O0LB1UGZFSX55B,271351,271351,,,,,,,,,,
,,,,5,8.71108,0,20,20,73,1,a kitchen with high end appliances and white walls and cabinets,"a kitchen with high end appliances and white walls and cabinets, and hanging bulbs.",wolfe2,022_R_lamp,3,36,A12FCLCVIM2CL3,2021-01-25_19h43.22.351,MetaAwareness,2020.1.2,Win32,60,3P520RYKCI9FD7NQZZOHLNDROTRU5J,A12FCLCVIM2CL3,3DY46V3X3QL1ECV5O0LB1UGZFSX55B,X6YD1,X6YD1,3DY46V3X3QL1ECV5O0LB1UGZFSX55B,3DY46V3X3QL1ECV5O0LB1UGZFSX55B,271351,271351,,,,,,,,,,
,,,,4,13.229165,0,21,21,92,1,"a narrow bathroom lit by a window in the background, with two sinks and cabinets that are not connected","a narrow bathroom lit by a window in the background, with two sinks an cabinets that are connected by a surface",wolfe2,030_R_drawer,2,36,A12FCLCVIM2CL3,2021-01-25_19h43.22.351,MetaAwareness,2020.1.2,Win32,60,3P520RYKCI9FD7NQZZOHLNDROTRU5J,A12FCLCVIM2CL3,3DY46V3X3QL1ECV5O0LB1UGZFSX55B,X6YD1,X6YD1,3DY46V3X3QL1ECV5O0LB1UGZFSX55B,3DY46V3X3QL1ECV5O0LB1UGZFSX55B,271351,271351,,,,,,,,,,
,,,,4,9.824565,0,22,22,146,1,"a dimly-lit bedroom with a bed, night table, dresser, large mirror, and 3 pictures on the wall","a dimly-lit bedroom with a bed, night table, dresser, large mirror, and 4 pictures on the walls",wolfe2,049_R_painting,1,36,A12FCLCVIM2CL3,2021-01-25_19h43.22.351,MetaAwareness,2020.1.2,Win32,60,3P520RYKCI9FD7NQZZOHLNDROTRU5J,A12FCLCVIM2CL3,3DY46V3X3QL1ECV5O0LB1UGZFSX55B,X6YD1,X6YD1,3DY46V3X3QL1ECV5O0LB1UGZFSX55B,3DY46V3X3QL1ECV5O0LB1UGZFSX55B,271351,271351,,,,,,,,,,
,,,,3,7.555285,0,23,23,223,1,a white modern looking living room with 1 hanging lamp on the wall,a white modern looking living room with 2 hanging lamps on the wall,wolfe2,070_R_lamp,1,36,A12FCLCVIM2CL3,2021-01-25_19h43.22.351,MetaAwareness,2020.1.2,Win32,60,3P520RYKCI9FD7NQZZOHLNDROTRU5J,A12FCLCVIM2CL3,3DY46V3X3QL1ECV5O0LB1UGZFSX55B,X6YD1,X6YD1,3DY46V3X3QL1ECV5O0LB1UGZFSX55B,3DY46V3X3QL1ECV5O0LB1UGZFSX55B,271351,271351,,,,,,,,,,
,,,,5,8.88626,0,24,24,200,1,"it's a dining room with fancy furniture, it looks very nice and expensive.","dining room with fancy furniture, it looks nice and expensive, there appears to be two more wine bottles on the shelving now.",wolfe2,064_R_bottles,5,36,A12FCLCVIM2CL3,2021-01-25_19h43.22.351,MetaAwareness,2020.1.2,Win32,60,3P520RYKCI9FD7NQZZOHLNDROTRU5J,A12FCLCVIM2CL3,3DY46V3X3QL1ECV5O0LB1UGZFSX55B,X6YD1,X6YD1,3DY46V3X3QL1ECV5O0LB1UGZFSX55B,3DY46V3X3QL1ECV5O0LB1UGZFSX55B,271351,271351,,,,,,,,,,
,,,,6,20.37372,0,25,25,115,1,a gorgeous white and wood bathroom includes small shelves near the bath and shower for washcloths and decor.,a gorgeous white and wood bathroom includes small shelves near the bath and shower for washcloths and decor.,wolfe2,037_L_towel,2,36,A12FCLCVIM2CL3,2021-01-25_19h43.22.351,MetaAwareness,2020.1.2,Win32,60,3P520RYKCI9FD7NQZZOHLNDROTRU5J,A12FCLCVIM2CL3,3DY46V3X3QL1ECV5O0LB1UGZFSX55B,X6YD1,X6YD1,3DY46V3X3QL1ECV5O0LB1UGZFSX55B,3DY46V3X3QL1ECV5O0LB1UGZFSX55B,271351,271351,,,,,,,,,,
,,,,5,12.7435,0,26,26,315,1,a sophisticated and modern bathroom containing a lighted shelf with a red cup and other stemware and vessels and containers on it,a sophisticated and modern bathroom containing a lighted shelf with stemware and other vessels and containers on it,wolfe2,101_L_cup,4,36,A12FCLCVIM2CL3,2021-01-25_19h43.22.351,MetaAwareness,2020.1.2,Win32,60,3P520RYKCI9FD7NQZZOHLNDROTRU5J,A12FCLCVIM2CL3,3DY46V3X3QL1ECV5O0LB1UGZFSX55B,X6YD1,X6YD1,3DY46V3X3QL1ECV5O0LB1UGZFSX55B,3DY46V3X3QL1ECV5O0LB1UGZFSX55B,271351,271351,,,,,,,,,,
,,,,1,11.89726,0,27,27,21,1,this room has a study desk and seating. there is a window in the back of the room with gray walls.the city can be seen in the window.,there is a mirror on the gray wall next to the window overlooking the city.,wolfe2,005_R_mirror,5,36,A12FCLCVIM2CL3,2021-01-25_19h43.22.351,MetaAwareness,2020.1.2,Win32,60,3P520RYKCI9FD7NQZZOHLNDROTRU5J,A12FCLCVIM2CL3,3DY46V3X3QL1ECV5O0LB1UGZFSX55B,X6YD1,X6YD1,3DY46V3X3QL1ECV5O0LB1UGZFSX55B,3DY46V3X3QL1ECV5O0LB1UGZFSX55B,271351,271351,,,,,,,,,,
,,,,4,6.43376,0,28,28,258,1,an office with a large window,an office with a large window and something in the corner,wolfe2,081_L_football,3,36,A12FCLCVIM2CL3,2021-01-25_19h43.22.351,MetaAwareness,2020.1.2,Win32,60,3P520RYKCI9FD7NQZZOHLNDROTRU5J,A12FCLCVIM2CL3,3DY46V3X3QL1ECV5O0LB1UGZFSX55B,X6YD1,X6YD1,3DY46V3X3QL1ECV5O0LB1UGZFSX55B,3DY46V3X3QL1ECV5O0LB1UGZFSX55B,271351,271351,,,,,,,,,,
,,,,3,12.2573,0,29,29,138,1,"a bedroom with yellow carpeting and walls, and an empty black table next to the bed","a bedroom with yellow carpeting and walls, and several electronic devices on a black table next to the bed",wolfe2,045_L_musicdock,2,36,A12FCLCVIM2CL3,2021-01-25_19h43.22.351,MetaAwareness,2020.1.2,Win32,60,3P520RYKCI9FD7NQZZOHLNDROTRU5J,A12FCLCVIM2CL3,3DY46V3X3QL1ECV5O0LB1UGZFSX55B,X6YD1,X6YD1,3DY46V3X3QL1ECV5O0LB1UGZFSX55B,3DY46V3X3QL1ECV5O0LB1UGZFSX55B,271351,271351,,,,,,,,,,
,,,,,,,,,,,,,,,,36,A12FCLCVIM2CL3,2021-01-25_19h43.22.351,MetaAwareness,2020.1.2,Win32,60,3P520RYKCI9FD7NQZZOHLNDROTRU5J,A12FCLCVIM2CL3,3DY46V3X3QL1ECV5O0LB1UGZFSX55B,X6YD1,X6YD1,3DY46V3X3QL1ECV5O0LB1UGZFSX55B,3DY46V3X3QL1ECV5O0LB1UGZFSX55B,271351,271351,6,10.3118,someone laying underneath a blue beach umbrella on a crowded beach,someone laying underneath a blue beach umbrella on a crowded beach,same,1,8.72432,members of a marching band crossing a track that all have feather plumes at the front of their hats,a cluttered and rustic looking cafe with 10 hanging lights,different
