consent_response.keys,consent_response.rt,key_resp_2.keys,key_resp_2.rt,user_resp.keys,user_resp.rt,trials.thisRepN,trials.thisTrialN,trials.thisN,trials.thisIndex,trials.ran,image_1_text,image_2_text,database,image,number,age,worker_ID,date,expName,psychopyVersion,OS,frameRate,hitId,workerId,assignmentId,a,tp_a,b,tp_b,c,tp_c,catch_same_resp.keys,catch_same_resp.rt,image_1_text_catch_same,image_2_text_catch_same,image_catch_same,catch_different_resp.keys,catch_different_resp.rt,image_1_text_catch_different,image_2_text_catch_different,image_catch_different
space,14.14225,space,20.902235,5,26.79042,0,0,0,48,1,an indoor-outdoor bar seating area with three wall-mounted lights,an indoor-outdoor bar seating area with four wall-mounted lights,wolfe2,014_R_lamp,1,71,A14ADQ7RUN6TDY,2021-01-25_18h10.38.263,MetaAwareness,2020.1.2,Win32,60,37ZQELHEQ110QOONUXTHOUWJ2SPNMB,A14ADQ7RUN6TDY,3R6BYFZZP8F2IS840IHFFPYWXLNFXG,ZY6R1,ZY6R1,3R6BYFZZP8F2IS840IHFFPYWXLNFXG,3R6BYFZZP8F2IS840IHFFPYWXLNFXG,271351,271351,,,,,,,,,,
,,,,3,13.007365,0,1,1,275,1,this is a bathroom vanity. to the right of the mirror is a light switch,this is a bathroom vanity. there is no light switch on the wall,wolfe2,085_R_switchboard,8,71,A14ADQ7RUN6TDY,2021-01-25_18h10.38.263,MetaAwareness,2020.1.2,Win32,60,37ZQELHEQ110QOONUXTHOUWJ2SPNMB,A14ADQ7RUN6TDY,3R6BYFZZP8F2IS840IHFFPYWXLNFXG,ZY6R1,ZY6R1,3R6BYFZZP8F2IS840IHFFPYWXLNFXG,3R6BYFZZP8F2IS840IHFFPYWXLNFXG,271351,271351,,,,,,,,,,
,,,,5,10.92882,0,2,2,27,1,a clean and orderly blue bathroom with a large mirror and one bottle on the window sill,a clean and orderly blue bathroom with a large mirror and two bottles on the window sill,wolfe2,008_R_bottle,2,71,A14ADQ7RUN6TDY,2021-01-25_18h10.38.263,MetaAwareness,2020.1.2,Win32,60,37ZQELHEQ110QOONUXTHOUWJ2SPNMB,A14ADQ7RUN6TDY,3R6BYFZZP8F2IS840IHFFPYWXLNFXG,ZY6R1,ZY6R1,3R6BYFZZP8F2IS840IHFFPYWXLNFXG,3R6BYFZZP8F2IS840IHFFPYWXLNFXG,271351,271351,,,,,,,,,,
,,,,4,7.669535,0,3,3,301,1,girl's bedroom with white object on pink table.,girl's bedroom with nothing on pink table.,wolfe2,096_L_painting,4,71,A14ADQ7RUN6TDY,2021-01-25_18h10.38.263,MetaAwareness,2020.1.2,Win32,60,37ZQELHEQ110QOONUXTHOUWJ2SPNMB,A14ADQ7RUN6TDY,3R6BYFZZP8F2IS840IHFFPYWXLNFXG,ZY6R1,ZY6R1,3R6BYFZZP8F2IS840IHFFPYWXLNFXG,3R6BYFZZP8F2IS840IHFFPYWXLNFXG,271351,271351,,,,,,,,,,
,,,,4,8.800635,0,4,4,310,1,a modern dining room with a candal and holder on the wall,a modern dining room without a candal and holder on the wall,wolfe2,099_R_sconce,4,71,A14ADQ7RUN6TDY,2021-01-25_18h10.38.263,MetaAwareness,2020.1.2,Win32,60,37ZQELHEQ110QOONUXTHOUWJ2SPNMB,A14ADQ7RUN6TDY,3R6BYFZZP8F2IS840IHFFPYWXLNFXG,ZY6R1,ZY6R1,3R6BYFZZP8F2IS840IHFFPYWXLNFXG,3R6BYFZZP8F2IS840IHFFPYWXLNFXG,271351,271351,,,,,,,,,,
,,,,3,10.63002,0,5,5,287,1,a relaxing bedroom that is colored mostly red with a lamp in the corner.,a relaxing bedroom that is colored mostly red.,wolfe2,090_R_lamp,4,71,A14ADQ7RUN6TDY,2021-01-25_18h10.38.263,MetaAwareness,2020.1.2,Win32,60,37ZQELHEQ110QOONUXTHOUWJ2SPNMB,A14ADQ7RUN6TDY,3R6BYFZZP8F2IS840IHFFPYWXLNFXG,ZY6R1,ZY6R1,3R6BYFZZP8F2IS840IHFFPYWXLNFXG,3R6BYFZZP8F2IS840IHFFPYWXLNFXG,271351,271351,,,,,,,,,,
,,,,1,11.39673,0,6,6,347,1,here is abrown hamper,this shows an empty floor,wolfe2,112_L_basket,3,71,A14ADQ7RUN6TDY,2021-01-25_18h10.38.263,MetaAwareness,2020.1.2,Win32,60,37ZQELHEQ110QOONUXTHOUWJ2SPNMB,A14ADQ7RUN6TDY,3R6BYFZZP8F2IS840IHFFPYWXLNFXG,ZY6R1,ZY6R1,3R6BYFZZP8F2IS840IHFFPYWXLNFXG,3R6BYFZZP8F2IS840IHFFPYWXLNFXG,271351,271351,,,,,,,,,,
,,,,4,12.44428,0,7,7,212,1,a nice bathroom with a bathtub with two handles over the wall,a nice bathroom with a bathtub with three handles over the wall,wolfe2,068_L_faucet,3,71,A14ADQ7RUN6TDY,2021-01-25_18h10.38.263,MetaAwareness,2020.1.2,Win32,60,37ZQELHEQ110QOONUXTHOUWJ2SPNMB,A14ADQ7RUN6TDY,3R6BYFZZP8F2IS840IHFFPYWXLNFXG,ZY6R1,ZY6R1,3R6BYFZZP8F2IS840IHFFPYWXLNFXG,3R6BYFZZP8F2IS840IHFFPYWXLNFXG,271351,271351,,,,,,,,,,
,,,,3,10.147055,0,8,8,229,1,a living room nothing on the lamp table,i living room with flower plant on the lamp table,wolfe2,071_R_art,3,71,A14ADQ7RUN6TDY,2021-01-25_18h10.38.263,MetaAwareness,2020.1.2,Win32,60,37ZQELHEQ110QOONUXTHOUWJ2SPNMB,A14ADQ7RUN6TDY,3R6BYFZZP8F2IS840IHFFPYWXLNFXG,ZY6R1,ZY6R1,3R6BYFZZP8F2IS840IHFFPYWXLNFXG,3R6BYFZZP8F2IS840IHFFPYWXLNFXG,271351,271351,,,,,,,,,,
,,,,4,11.103075,0,9,9,124,1,a dining room with wooden furnature and two photos haning on the wall,a dining room with wooden furnature and three photos hanging on the wall,wolfe2,040_R_painting,5,71,A14ADQ7RUN6TDY,2021-01-25_18h10.38.263,MetaAwareness,2020.1.2,Win32,60,37ZQELHEQ110QOONUXTHOUWJ2SPNMB,A14ADQ7RUN6TDY,3R6BYFZZP8F2IS840IHFFPYWXLNFXG,ZY6R1,ZY6R1,3R6BYFZZP8F2IS840IHFFPYWXLNFXG,3R6BYFZZP8F2IS840IHFFPYWXLNFXG,271351,271351,,,,,,,,,,
,,,,5,10.5541,0,10,10,190,1,"a living room area with a couch, some chairs and an ottomannum","a living room area with a couch, some chairs and a pet of some sort near the ottoman",wolfe2,062_R_flowers,3,71,A14ADQ7RUN6TDY,2021-01-25_18h10.38.263,MetaAwareness,2020.1.2,Win32,60,37ZQELHEQ110QOONUXTHOUWJ2SPNMB,A14ADQ7RUN6TDY,3R6BYFZZP8F2IS840IHFFPYWXLNFXG,ZY6R1,ZY6R1,3R6BYFZZP8F2IS840IHFFPYWXLNFXG,3R6BYFZZP8F2IS840IHFFPYWXLNFXG,271351,271351,,,,,,,,,,
,,,,2,9.00054,0,11,11,194,1,there is no book to read,there is book to read,wolfe2,063_L_laptop,2,71,A14ADQ7RUN6TDY,2021-01-25_18h10.38.263,MetaAwareness,2020.1.2,Win32,60,37ZQELHEQ110QOONUXTHOUWJ2SPNMB,A14ADQ7RUN6TDY,3R6BYFZZP8F2IS840IHFFPYWXLNFXG,ZY6R1,ZY6R1,3R6BYFZZP8F2IS840IHFFPYWXLNFXG,3R6BYFZZP8F2IS840IHFFPYWXLNFXG,271351,271351,,,,,,,,,,
,,,,5,7.20352,0,12,12,280,1,an empty barbershop with black chairs,an empty barbershop with black chairs and a smoke detector,wolfe2,088_R_clock,4,71,A14ADQ7RUN6TDY,2021-01-25_18h10.38.263,MetaAwareness,2020.1.2,Win32,60,37ZQELHEQ110QOONUXTHOUWJ2SPNMB,A14ADQ7RUN6TDY,3R6BYFZZP8F2IS840IHFFPYWXLNFXG,ZY6R1,ZY6R1,3R6BYFZZP8F2IS840IHFFPYWXLNFXG,3R6BYFZZP8F2IS840IHFFPYWXLNFXG,271351,271351,,,,,,,,,,
,,,,6,15.250955,0,13,13,110,1,"white dishes sit on a shelf underneath a cabinet in a beautiful, modern kitchen.","white dishes sit on a shelf underneath a cabinet in a beautiful, modern kitchen.",wolfe2,036_L_bowl,3,71,A14ADQ7RUN6TDY,2021-01-25_18h10.38.263,MetaAwareness,2020.1.2,Win32,60,37ZQELHEQ110QOONUXTHOUWJ2SPNMB,A14ADQ7RUN6TDY,3R6BYFZZP8F2IS840IHFFPYWXLNFXG,ZY6R1,ZY6R1,3R6BYFZZP8F2IS840IHFFPYWXLNFXG,3R6BYFZZP8F2IS840IHFFPYWXLNFXG,271351,271351,,,,,,,,,,
,,,,3,8.02405,0,14,14,329,1,a bedroom with a bed that has a hat on it.,a bedroom with a bed that doesn't have a hat on it,wolfe2,105_R_hat,4,71,A14ADQ7RUN6TDY,2021-01-25_18h10.38.263,MetaAwareness,2020.1.2,Win32,60,37ZQELHEQ110QOONUXTHOUWJ2SPNMB,A14ADQ7RUN6TDY,3R6BYFZZP8F2IS840IHFFPYWXLNFXG,ZY6R1,ZY6R1,3R6BYFZZP8F2IS840IHFFPYWXLNFXG,3R6BYFZZP8F2IS840IHFFPYWXLNFXG,271351,271351,,,,,,,,,,
,,,,5,8.546925,0,15,15,276,1,wood like kitchen table that is set with a caserole on the counter,wood like kitchen table that is set with a bowl on the counter,wolfe2,086_R_book,2,71,A14ADQ7RUN6TDY,2021-01-25_18h10.38.263,MetaAwareness,2020.1.2,Win32,60,37ZQELHEQ110QOONUXTHOUWJ2SPNMB,A14ADQ7RUN6TDY,3R6BYFZZP8F2IS840IHFFPYWXLNFXG,ZY6R1,ZY6R1,3R6BYFZZP8F2IS840IHFFPYWXLNFXG,3R6BYFZZP8F2IS840IHFFPYWXLNFXG,271351,271351,,,,,,,,,,
,,,,3,24.056965,0,16,16,312,1,a bathroom with a mirror mounted on the ight of the walla,a small mirror with a towl rack to the right of the wall,wolfe2,100_R_mirror,2,71,A14ADQ7RUN6TDY,2021-01-25_18h10.38.263,MetaAwareness,2020.1.2,Win32,60,37ZQELHEQ110QOONUXTHOUWJ2SPNMB,A14ADQ7RUN6TDY,3R6BYFZZP8F2IS840IHFFPYWXLNFXG,ZY6R1,ZY6R1,3R6BYFZZP8F2IS840IHFFPYWXLNFXG,3R6BYFZZP8F2IS840IHFFPYWXLNFXG,271351,271351,,,,,,,,,,
,,,,5,9.086665,0,17,17,236,1,in a kitchen there is a pot with many utencils next to the stove,in a kitchen there is a pot with few utencils next to the stove,wolfe2,073_L_coffeemug,1,71,A14ADQ7RUN6TDY,2021-01-25_18h10.38.263,MetaAwareness,2020.1.2,Win32,60,37ZQELHEQ110QOONUXTHOUWJ2SPNMB,A14ADQ7RUN6TDY,3R6BYFZZP8F2IS840IHFFPYWXLNFXG,ZY6R1,ZY6R1,3R6BYFZZP8F2IS840IHFFPYWXLNFXG,3R6BYFZZP8F2IS840IHFFPYWXLNFXG,271351,271351,,,,,,,,,,
,,,,4,14.40051,0,18,18,113,1,lit and spacious kitchen with a color combination of red and white,"lit and spacious kitchen with a color combination of red and white, bowls in the middle",wolfe2,036_R_bowl,4,71,A14ADQ7RUN6TDY,2021-01-25_18h10.38.263,MetaAwareness,2020.1.2,Win32,60,37ZQELHEQ110QOONUXTHOUWJ2SPNMB,A14ADQ7RUN6TDY,3R6BYFZZP8F2IS840IHFFPYWXLNFXG,ZY6R1,ZY6R1,3R6BYFZZP8F2IS840IHFFPYWXLNFXG,3R6BYFZZP8F2IS840IHFFPYWXLNFXG,271351,271351,,,,,,,,,,
,,,,4,6.34634,0,19,19,332,1,a light blue wall with a napkin dispenser next to the white door.,a light blue wall next to the white door.,wolfe2,106_L_toweldispenser,7,71,A14ADQ7RUN6TDY,2021-01-25_18h10.38.263,MetaAwareness,2020.1.2,Win32,60,37ZQELHEQ110QOONUXTHOUWJ2SPNMB,A14ADQ7RUN6TDY,3R6BYFZZP8F2IS840IHFFPYWXLNFXG,ZY6R1,ZY6R1,3R6BYFZZP8F2IS840IHFFPYWXLNFXG,3R6BYFZZP8F2IS840IHFFPYWXLNFXG,271351,271351,,,,,,,,,,
,,,,5,16.50468,0,20,20,382,1,a master bedroom with a side table that has a telephone and a lamp on it,a master bedroom with a side table that has a lamp on it,wolfe2,121_R_car,3,71,A14ADQ7RUN6TDY,2021-01-25_18h10.38.263,MetaAwareness,2020.1.2,Win32,60,37ZQELHEQ110QOONUXTHOUWJ2SPNMB,A14ADQ7RUN6TDY,3R6BYFZZP8F2IS840IHFFPYWXLNFXG,ZY6R1,ZY6R1,3R6BYFZZP8F2IS840IHFFPYWXLNFXG,3R6BYFZZP8F2IS840IHFFPYWXLNFXG,271351,271351,,,,,,,,,,
,,,,5,11.737755,0,21,21,155,1,"a very large bathroom that has a double sinks, a shower, a tub, and a wooden closet with a bottom drawer.","a very large bathroom that has double sinks, a shower, a tub, and a wooden closet with two bottom drawers.",wolfe2,053_R_handle,2,71,A14ADQ7RUN6TDY,2021-01-25_18h10.38.263,MetaAwareness,2020.1.2,Win32,60,37ZQELHEQ110QOONUXTHOUWJ2SPNMB,A14ADQ7RUN6TDY,3R6BYFZZP8F2IS840IHFFPYWXLNFXG,ZY6R1,ZY6R1,3R6BYFZZP8F2IS840IHFFPYWXLNFXG,3R6BYFZZP8F2IS840IHFFPYWXLNFXG,271351,271351,,,,,,,,,,
,,,,5,14.88046,0,22,22,135,1,a bathroom with a tub connected to the shower and a light on the wall of the tub,a bathroom with a tub connected to the shower and two lights on the wall of the tub.,wolfe2,044_L_light,2,71,A14ADQ7RUN6TDY,2021-01-25_18h10.38.263,MetaAwareness,2020.1.2,Win32,60,37ZQELHEQ110QOONUXTHOUWJ2SPNMB,A14ADQ7RUN6TDY,3R6BYFZZP8F2IS840IHFFPYWXLNFXG,ZY6R1,ZY6R1,3R6BYFZZP8F2IS840IHFFPYWXLNFXG,3R6BYFZZP8F2IS840IHFFPYWXLNFXG,271351,271351,,,,,,,,,,
,,,,5,6.25896,0,23,23,93,1,a bathroom with seperate sinks.,"a bathroom with seperate sinks, the sinks are ajoined by a small counter top and drawer",wolfe2,030_R_drawer,3,71,A14ADQ7RUN6TDY,2021-01-25_18h10.38.263,MetaAwareness,2020.1.2,Win32,60,37ZQELHEQ110QOONUXTHOUWJ2SPNMB,A14ADQ7RUN6TDY,3R6BYFZZP8F2IS840IHFFPYWXLNFXG,ZY6R1,ZY6R1,3R6BYFZZP8F2IS840IHFFPYWXLNFXG,3R6BYFZZP8F2IS840IHFFPYWXLNFXG,271351,271351,,,,,,,,,,
,,,,4,16.83396,0,24,24,34,1,bedroom with pictures across the bed and one candle in a holder beside the bed on the right.,there are now two candles beside the bed on the right side.,wolfe2,010_R_candle,1,71,A14ADQ7RUN6TDY,2021-01-25_18h10.38.263,MetaAwareness,2020.1.2,Win32,60,37ZQELHEQ110QOONUXTHOUWJ2SPNMB,A14ADQ7RUN6TDY,3R6BYFZZP8F2IS840IHFFPYWXLNFXG,ZY6R1,ZY6R1,3R6BYFZZP8F2IS840IHFFPYWXLNFXG,3R6BYFZZP8F2IS840IHFFPYWXLNFXG,271351,271351,,,,,,,,,,
,,,,4,22.07837,0,25,25,362,1,a clean living room with full light and wide openning that show backyard with a table with a lant vessel with a plant on the top,a clean living room with full light and wide openning that show backyard with a table without a plant vessel with a plant on the top,wolfe2,117_L_plant_sized,5,71,A14ADQ7RUN6TDY,2021-01-25_18h10.38.263,MetaAwareness,2020.1.2,Win32,60,37ZQELHEQ110QOONUXTHOUWJ2SPNMB,A14ADQ7RUN6TDY,3R6BYFZZP8F2IS840IHFFPYWXLNFXG,ZY6R1,ZY6R1,3R6BYFZZP8F2IS840IHFFPYWXLNFXG,3R6BYFZZP8F2IS840IHFFPYWXLNFXG,271351,271351,,,,,,,,,,
,,,,4,5.71163,0,26,26,285,1,a red and white bedroom with a lamp on the floor in the corner,a red and white bedroom with nothing on the floor in the corner,wolfe2,090_L_lamp,5,71,A14ADQ7RUN6TDY,2021-01-25_18h10.38.263,MetaAwareness,2020.1.2,Win32,60,37ZQELHEQ110QOONUXTHOUWJ2SPNMB,A14ADQ7RUN6TDY,3R6BYFZZP8F2IS840IHFFPYWXLNFXG,ZY6R1,ZY6R1,3R6BYFZZP8F2IS840IHFFPYWXLNFXG,3R6BYFZZP8F2IS840IHFFPYWXLNFXG,271351,271351,,,,,,,,,,
,,,,4,5.401065,0,27,27,28,1,only one item is in the window cell,there are two items on the window shelf,wolfe2,008_R_bottle,4,71,A14ADQ7RUN6TDY,2021-01-25_18h10.38.263,MetaAwareness,2020.1.2,Win32,60,37ZQELHEQ110QOONUXTHOUWJ2SPNMB,A14ADQ7RUN6TDY,3R6BYFZZP8F2IS840IHFFPYWXLNFXG,ZY6R1,ZY6R1,3R6BYFZZP8F2IS840IHFFPYWXLNFXG,3R6BYFZZP8F2IS840IHFFPYWXLNFXG,271351,271351,,,,,,,,,,
,,,,5,8.844095,0,28,28,200,1,"it's a dining room with fancy furniture, it looks very nice and expensive.","dining room with fancy furniture, it looks nice and expensive, there appears to be two more wine bottles on the shelving now.",wolfe2,064_R_bottles,5,71,A14ADQ7RUN6TDY,2021-01-25_18h10.38.263,MetaAwareness,2020.1.2,Win32,60,37ZQELHEQ110QOONUXTHOUWJ2SPNMB,A14ADQ7RUN6TDY,3R6BYFZZP8F2IS840IHFFPYWXLNFXG,ZY6R1,ZY6R1,3R6BYFZZP8F2IS840IHFFPYWXLNFXG,3R6BYFZZP8F2IS840IHFFPYWXLNFXG,271351,271351,,,,,,,,,,
,,,,4,9.13645,0,29,29,321,1,a brown vase on a table in a cozy restaurant,a red candle placed on a table on a cozy restaurant,wolfe2,104_L_bottle,1,71,A14ADQ7RUN6TDY,2021-01-25_18h10.38.263,MetaAwareness,2020.1.2,Win32,60,37ZQELHEQ110QOONUXTHOUWJ2SPNMB,A14ADQ7RUN6TDY,3R6BYFZZP8F2IS840IHFFPYWXLNFXG,ZY6R1,ZY6R1,3R6BYFZZP8F2IS840IHFFPYWXLNFXG,3R6BYFZZP8F2IS840IHFFPYWXLNFXG,271351,271351,,,,,,,,,,
,,,,,,,,,,,,,,,,71,A14ADQ7RUN6TDY,2021-01-25_18h10.38.263,MetaAwareness,2020.1.2,Win32,60,37ZQELHEQ110QOONUXTHOUWJ2SPNMB,A14ADQ7RUN6TDY,3R6BYFZZP8F2IS840IHFFPYWXLNFXG,ZY6R1,ZY6R1,3R6BYFZZP8F2IS840IHFFPYWXLNFXG,3R6BYFZZP8F2IS840IHFFPYWXLNFXG,271351,271351,6,8.55212,someone laying underneath a blue beach umbrella on a crowded beach,someone laying underneath a blue beach umbrella on a crowded beach,same,1,8.10042,members of a marching band crossing a track that all have feather plumes at the front of their hats,a cluttered and rustic looking cafe with 10 hanging lights,different
