consent_response.keys,consent_response.rt,key_resp_2.keys,key_resp_2.rt,user_resp.keys,user_resp.rt,trials.thisRepN,trials.thisTrialN,trials.thisN,trials.thisIndex,trials.ran,image_1_text,image_2_text,database,image,number,age,worker_ID,date,expName,psychopyVersion,OS,frameRate,hitId,workerId,assignmentId,a,tp_a,b,tp_b,c,tp_c,catch_same_resp.keys,catch_same_resp.rt,image_1_text_catch_same,image_2_text_catch_same,image_catch_same,catch_different_resp.keys,catch_different_resp.rt,image_1_text_catch_different,image_2_text_catch_different,image_catch_different
space,4.5025,space,20.240875,4,15.00394,0,0,0,83,1,"bathroom wit wood toilet, shower, and 4 decrative soaps","bathroom with wood toilet, shower, 4 decrative soaps under a shelf",wolfe2,026_L_rack,2,36,A17Q4QN6UE0EZC,2021-01-25_16h16.03.465,MetaAwareness,2020.1.2,Win32,60,35ZRNT9RUJ1HMNGPPUOF7KNISBB3OO,A17Q4QN6UE0EZC,3TK8OJTYM2OM5GS3E6C23YFFJFSPVE,YOKT1,YOKT1,3TK8OJTYM2OM5GS3E6C23YFFJFSPVE,3TK8OJTYM2OM5GS3E6C23YFFJFSPVE,271351,271351,,,,,,,,,,
,,,,2,5.17697,0,1,1,38,1,the white tile color scheme does not mix well with the blue tiles,the hidious bottle of perfume sits on top of the marble sink near a large bottle of pink perfume,wolfe2,011_R_parfum,4,36,A17Q4QN6UE0EZC,2021-01-25_16h16.03.465,MetaAwareness,2020.1.2,Win32,60,35ZRNT9RUJ1HMNGPPUOF7KNISBB3OO,A17Q4QN6UE0EZC,3TK8OJTYM2OM5GS3E6C23YFFJFSPVE,YOKT1,YOKT1,3TK8OJTYM2OM5GS3E6C23YFFJFSPVE,3TK8OJTYM2OM5GS3E6C23YFFJFSPVE,271351,271351,,,,,,,,,,
,,,,3,19.356895,0,2,2,248,1,a kitchen with four tall chairs and one of the chairs has not leg pedal,a kitchen with four tall charis and all of the chairs have leg pedal,wolfe2,077_L_footrest,5,36,A17Q4QN6UE0EZC,2021-01-25_16h16.03.465,MetaAwareness,2020.1.2,Win32,60,35ZRNT9RUJ1HMNGPPUOF7KNISBB3OO,A17Q4QN6UE0EZC,3TK8OJTYM2OM5GS3E6C23YFFJFSPVE,YOKT1,YOKT1,3TK8OJTYM2OM5GS3E6C23YFFJFSPVE,3TK8OJTYM2OM5GS3E6C23YFFJFSPVE,271351,271351,,,,,,,,,,
,,,,5,15.992035,0,3,3,24,1,"a colorful bathroom counter area with a striped hand towel, mint green walls, a large mirror, a chalkboard, and a small bowl next to one of the two rectangular sinks","a colorful bathroom counter area with a striped hand towel, mint green walls, a large mirror, a chalkboard, and a small bowl next to each rectangular sink",wolfe2,007_R_soap,6,36,A17Q4QN6UE0EZC,2021-01-25_16h16.03.465,MetaAwareness,2020.1.2,Win32,60,35ZRNT9RUJ1HMNGPPUOF7KNISBB3OO,A17Q4QN6UE0EZC,3TK8OJTYM2OM5GS3E6C23YFFJFSPVE,YOKT1,YOKT1,3TK8OJTYM2OM5GS3E6C23YFFJFSPVE,3TK8OJTYM2OM5GS3E6C23YFFJFSPVE,271351,271351,,,,,,,,,,
,,,,4,14.620325,0,4,4,39,1,a modern bath with free-standing tub underneath a three pane window to the back yard.,a modern bath with free-standing tub underneath a three pane window to the back yard. the tub drain switch is clearly visible.,wolfe2,012_L_tubaccesory,3,36,A17Q4QN6UE0EZC,2021-01-25_16h16.03.465,MetaAwareness,2020.1.2,Win32,60,35ZRNT9RUJ1HMNGPPUOF7KNISBB3OO,A17Q4QN6UE0EZC,3TK8OJTYM2OM5GS3E6C23YFFJFSPVE,YOKT1,YOKT1,3TK8OJTYM2OM5GS3E6C23YFFJFSPVE,3TK8OJTYM2OM5GS3E6C23YFFJFSPVE,271351,271351,,,,,,,,,,
,,,,3,2.376825,0,5,5,229,1,a living room nothing on the lamp table,i living room with flower plant on the lamp table,wolfe2,071_R_art,3,36,A17Q4QN6UE0EZC,2021-01-25_16h16.03.465,MetaAwareness,2020.1.2,Win32,60,35ZRNT9RUJ1HMNGPPUOF7KNISBB3OO,A17Q4QN6UE0EZC,3TK8OJTYM2OM5GS3E6C23YFFJFSPVE,YOKT1,YOKT1,3TK8OJTYM2OM5GS3E6C23YFFJFSPVE,3TK8OJTYM2OM5GS3E6C23YFFJFSPVE,271351,271351,,,,,,,,,,
,,,,4,9.06438,0,6,6,178,1,a glamorous pink and white bedroom,a glamorous pink and white bedroom with a purple cloth laying on a seat,wolfe2,058_R_clutch,4,36,A17Q4QN6UE0EZC,2021-01-25_16h16.03.465,MetaAwareness,2020.1.2,Win32,60,35ZRNT9RUJ1HMNGPPUOF7KNISBB3OO,A17Q4QN6UE0EZC,3TK8OJTYM2OM5GS3E6C23YFFJFSPVE,YOKT1,YOKT1,3TK8OJTYM2OM5GS3E6C23YFFJFSPVE,3TK8OJTYM2OM5GS3E6C23YFFJFSPVE,271351,271351,,,,,,,,,,
,,,,2,6.285835,0,7,7,98,1,modern bathtub future pad,cicle drawers in cool bathroom,wolfe2,032_R_bottle,5,36,A17Q4QN6UE0EZC,2021-01-25_16h16.03.465,MetaAwareness,2020.1.2,Win32,60,35ZRNT9RUJ1HMNGPPUOF7KNISBB3OO,A17Q4QN6UE0EZC,3TK8OJTYM2OM5GS3E6C23YFFJFSPVE,YOKT1,YOKT1,3TK8OJTYM2OM5GS3E6C23YFFJFSPVE,3TK8OJTYM2OM5GS3E6C23YFFJFSPVE,271351,271351,,,,,,,,,,
,,,,4,5.74119,0,8,8,114,1,towels well aranged,more towels on a rack,wolfe2,037_L_towel,1,36,A17Q4QN6UE0EZC,2021-01-25_16h16.03.465,MetaAwareness,2020.1.2,Win32,60,35ZRNT9RUJ1HMNGPPUOF7KNISBB3OO,A17Q4QN6UE0EZC,3TK8OJTYM2OM5GS3E6C23YFFJFSPVE,YOKT1,YOKT1,3TK8OJTYM2OM5GS3E6C23YFFJFSPVE,3TK8OJTYM2OM5GS3E6C23YFFJFSPVE,271351,271351,,,,,,,,,,
,,,,4,13.553895,0,9,9,330,1,a bathroom with a tissue box on the wall,a bathroom without any tissue box on the wall,wolfe2,106_L_toweldispenser,2,36,A17Q4QN6UE0EZC,2021-01-25_16h16.03.465,MetaAwareness,2020.1.2,Win32,60,35ZRNT9RUJ1HMNGPPUOF7KNISBB3OO,A17Q4QN6UE0EZC,3TK8OJTYM2OM5GS3E6C23YFFJFSPVE,YOKT1,YOKT1,3TK8OJTYM2OM5GS3E6C23YFFJFSPVE,3TK8OJTYM2OM5GS3E6C23YFFJFSPVE,271351,271351,,,,,,,,,,
,,,,3,7.99183,0,10,10,251,1,clean and tidy bathroom setting,clean new focets in nice bathroom,wolfe2,078_R_faucet,6,36,A17Q4QN6UE0EZC,2021-01-25_16h16.03.465,MetaAwareness,2020.1.2,Win32,60,35ZRNT9RUJ1HMNGPPUOF7KNISBB3OO,A17Q4QN6UE0EZC,3TK8OJTYM2OM5GS3E6C23YFFJFSPVE,YOKT1,YOKT1,3TK8OJTYM2OM5GS3E6C23YFFJFSPVE,3TK8OJTYM2OM5GS3E6C23YFFJFSPVE,271351,271351,,,,,,,,,,
,,,,4,8.633555,0,11,11,380,1,a modern bedroom with a car figurine on the nightstand next to the lamp.,a modern bedroom with nothing on the nightstand next to the lamp.,wolfe2,121_L_car,4,36,A17Q4QN6UE0EZC,2021-01-25_16h16.03.465,MetaAwareness,2020.1.2,Win32,60,35ZRNT9RUJ1HMNGPPUOF7KNISBB3OO,A17Q4QN6UE0EZC,3TK8OJTYM2OM5GS3E6C23YFFJFSPVE,YOKT1,YOKT1,3TK8OJTYM2OM5GS3E6C23YFFJFSPVE,3TK8OJTYM2OM5GS3E6C23YFFJFSPVE,271351,271351,,,,,,,,,,
,,,,5,8.784185,0,12,12,378,1,a well lit bedroom with a car and a lamp on the left end table,a well lit bedroom with a lamp on the left end table.,wolfe2,121_L_car,1,36,A17Q4QN6UE0EZC,2021-01-25_16h16.03.465,MetaAwareness,2020.1.2,Win32,60,35ZRNT9RUJ1HMNGPPUOF7KNISBB3OO,A17Q4QN6UE0EZC,3TK8OJTYM2OM5GS3E6C23YFFJFSPVE,YOKT1,YOKT1,3TK8OJTYM2OM5GS3E6C23YFFJFSPVE,3TK8OJTYM2OM5GS3E6C23YFFJFSPVE,271351,271351,,,,,,,,,,
,,,,3,15.22468,0,13,13,322,1,a mostly-empty cafe with one dark-haired person seen sitting alone in a booth with his back to the camera,"a cafe with several booths visible, none of which have anyone seated in them",wolfe2,104_L_bottle,2,36,A17Q4QN6UE0EZC,2021-01-25_16h16.03.465,MetaAwareness,2020.1.2,Win32,60,35ZRNT9RUJ1HMNGPPUOF7KNISBB3OO,A17Q4QN6UE0EZC,3TK8OJTYM2OM5GS3E6C23YFFJFSPVE,YOKT1,YOKT1,3TK8OJTYM2OM5GS3E6C23YFFJFSPVE,3TK8OJTYM2OM5GS3E6C23YFFJFSPVE,271351,271351,,,,,,,,,,
,,,,5,5.508685,0,14,14,162,1,a room with two footmat,a room with three footmat,wolfe2,055_R_carpet,7,36,A17Q4QN6UE0EZC,2021-01-25_16h16.03.465,MetaAwareness,2020.1.2,Win32,60,35ZRNT9RUJ1HMNGPPUOF7KNISBB3OO,A17Q4QN6UE0EZC,3TK8OJTYM2OM5GS3E6C23YFFJFSPVE,YOKT1,YOKT1,3TK8OJTYM2OM5GS3E6C23YFFJFSPVE,3TK8OJTYM2OM5GS3E6C23YFFJFSPVE,271351,271351,,,,,,,,,,
,,,,4,8.013755,0,15,15,89,1,a long bathroom with nothing between the two bathroom sink counters,a long bathroom with an addiional platform between the two bathroom sink counters,wolfe2,030_L_drawer,2,36,A17Q4QN6UE0EZC,2021-01-25_16h16.03.465,MetaAwareness,2020.1.2,Win32,60,35ZRNT9RUJ1HMNGPPUOF7KNISBB3OO,A17Q4QN6UE0EZC,3TK8OJTYM2OM5GS3E6C23YFFJFSPVE,YOKT1,YOKT1,3TK8OJTYM2OM5GS3E6C23YFFJFSPVE,3TK8OJTYM2OM5GS3E6C23YFFJFSPVE,271351,271351,,,,,,,,,,
,,,,4,16.746555,0,16,16,406,1,"a large sitting room in a house with two sofas, a dog, and two lights on the wall","a large sitting room in a  house with two sofas, a dog in a dog bed, and one light on the wall",wolfe2,127_R_light,3,36,A17Q4QN6UE0EZC,2021-01-25_16h16.03.465,MetaAwareness,2020.1.2,Win32,60,35ZRNT9RUJ1HMNGPPUOF7KNISBB3OO,A17Q4QN6UE0EZC,3TK8OJTYM2OM5GS3E6C23YFFJFSPVE,YOKT1,YOKT1,3TK8OJTYM2OM5GS3E6C23YFFJFSPVE,3TK8OJTYM2OM5GS3E6C23YFFJFSPVE,271351,271351,,,,,,,,,,
,,,,4,6.21424,0,17,17,355,1,a kitchen and cabinets with a plant on the counter,a kitchen and cabinets with a large spacious counter,wolfe2,115_R_pot,2,36,A17Q4QN6UE0EZC,2021-01-25_16h16.03.465,MetaAwareness,2020.1.2,Win32,60,35ZRNT9RUJ1HMNGPPUOF7KNISBB3OO,A17Q4QN6UE0EZC,3TK8OJTYM2OM5GS3E6C23YFFJFSPVE,YOKT1,YOKT1,3TK8OJTYM2OM5GS3E6C23YFFJFSPVE,3TK8OJTYM2OM5GS3E6C23YFFJFSPVE,271351,271351,,,,,,,,,,
,,,,5,9.014305,0,18,18,383,1,a modern bedroom with a nightstand that has a red lamp and a black toy car,a modern bedroom with a nightstand that has a red lamp,wolfe2,121_R_car,4,36,A17Q4QN6UE0EZC,2021-01-25_16h16.03.465,MetaAwareness,2020.1.2,Win32,60,35ZRNT9RUJ1HMNGPPUOF7KNISBB3OO,A17Q4QN6UE0EZC,3TK8OJTYM2OM5GS3E6C23YFFJFSPVE,YOKT1,YOKT1,3TK8OJTYM2OM5GS3E6C23YFFJFSPVE,3TK8OJTYM2OM5GS3E6C23YFFJFSPVE,271351,271351,,,,,,,,,,
,,,,1,3.79522,0,19,19,347,1,here is abrown hamper,this shows an empty floor,wolfe2,112_L_basket,3,36,A17Q4QN6UE0EZC,2021-01-25_16h16.03.465,MetaAwareness,2020.1.2,Win32,60,35ZRNT9RUJ1HMNGPPUOF7KNISBB3OO,A17Q4QN6UE0EZC,3TK8OJTYM2OM5GS3E6C23YFFJFSPVE,YOKT1,YOKT1,3TK8OJTYM2OM5GS3E6C23YFFJFSPVE,3TK8OJTYM2OM5GS3E6C23YFFJFSPVE,271351,271351,,,,,,,,,,
,,,,4,16.89962,0,20,20,163,1,a living room with two windows and a sofa that has pilllows on it,a living room with two windows and a sofa that has pillows on it and a blanket  and a book on the corner of it,wolfe2,056_L_comforter,2,36,A17Q4QN6UE0EZC,2021-01-25_16h16.03.465,MetaAwareness,2020.1.2,Win32,60,35ZRNT9RUJ1HMNGPPUOF7KNISBB3OO,A17Q4QN6UE0EZC,3TK8OJTYM2OM5GS3E6C23YFFJFSPVE,YOKT1,YOKT1,3TK8OJTYM2OM5GS3E6C23YFFJFSPVE,3TK8OJTYM2OM5GS3E6C23YFFJFSPVE,271351,271351,,,,,,,,,,
,,,,4,14.75623,0,21,21,328,1,a bedroom that is cluttered with clothes and a hat on top of the bed,a bedroom that is cluttered with a cheetah print bedspread and clothes on the bed,wolfe2,105_R_hat,2,36,A17Q4QN6UE0EZC,2021-01-25_16h16.03.465,MetaAwareness,2020.1.2,Win32,60,35ZRNT9RUJ1HMNGPPUOF7KNISBB3OO,A17Q4QN6UE0EZC,3TK8OJTYM2OM5GS3E6C23YFFJFSPVE,YOKT1,YOKT1,3TK8OJTYM2OM5GS3E6C23YFFJFSPVE,3TK8OJTYM2OM5GS3E6C23YFFJFSPVE,271351,271351,,,,,,,,,,
,,,,4,19.87681,0,22,22,23,1,iin a bathroom there is a sink with no soap dish next to a yellow bucker,in a bathroom there is a  sink with a soapdish with soap next to a yellow bucket,wolfe2,007_L_soap,1,36,A17Q4QN6UE0EZC,2021-01-25_16h16.03.465,MetaAwareness,2020.1.2,Win32,60,35ZRNT9RUJ1HMNGPPUOF7KNISBB3OO,A17Q4QN6UE0EZC,3TK8OJTYM2OM5GS3E6C23YFFJFSPVE,YOKT1,YOKT1,3TK8OJTYM2OM5GS3E6C23YFFJFSPVE,3TK8OJTYM2OM5GS3E6C23YFFJFSPVE,271351,271351,,,,,,,,,,
,,,,4,3.801215,0,23,23,388,1,theres a hot tub with a bowl to the left of it,theres a hot tub with nothing around it,wolfe2,123_L_pot,1,36,A17Q4QN6UE0EZC,2021-01-25_16h16.03.465,MetaAwareness,2020.1.2,Win32,60,35ZRNT9RUJ1HMNGPPUOF7KNISBB3OO,A17Q4QN6UE0EZC,3TK8OJTYM2OM5GS3E6C23YFFJFSPVE,YOKT1,YOKT1,3TK8OJTYM2OM5GS3E6C23YFFJFSPVE,3TK8OJTYM2OM5GS3E6C23YFFJFSPVE,271351,271351,,,,,,,,,,
,,,,5,5.4147,0,24,24,45,1,a meeting area with a wooden table with a hanging light above it,a meeting area with a wooden table with two hanging lights above it,wolfe2,013_R_lamp,6,36,A17Q4QN6UE0EZC,2021-01-25_16h16.03.465,MetaAwareness,2020.1.2,Win32,60,35ZRNT9RUJ1HMNGPPUOF7KNISBB3OO,A17Q4QN6UE0EZC,3TK8OJTYM2OM5GS3E6C23YFFJFSPVE,YOKT1,YOKT1,3TK8OJTYM2OM5GS3E6C23YFFJFSPVE,3TK8OJTYM2OM5GS3E6C23YFFJFSPVE,271351,271351,,,,,,,,,,
,,,,5,18.008505,0,25,25,108,1,a bedroom with one wall covered in blue-flowered brown wallpaper with a narrow wood table topped with two vases over a radiator,a bedroom with one wall covered in blue-flowered brown wallpaper with a narrow wood table topped with two vases and a fruit bowl over a radiator,wolfe2,035_L_fruit,4,36,A17Q4QN6UE0EZC,2021-01-25_16h16.03.465,MetaAwareness,2020.1.2,Win32,60,35ZRNT9RUJ1HMNGPPUOF7KNISBB3OO,A17Q4QN6UE0EZC,3TK8OJTYM2OM5GS3E6C23YFFJFSPVE,YOKT1,YOKT1,3TK8OJTYM2OM5GS3E6C23YFFJFSPVE,3TK8OJTYM2OM5GS3E6C23YFFJFSPVE,271351,271351,,,,,,,,,,
,,,,3,6.048615,0,26,26,379,1,a picture of a bedroom that has a white night stand with a lamp and car on it,a bedroom that has a white night stand with a lamp on it,wolfe2,121_L_car,2,36,A17Q4QN6UE0EZC,2021-01-25_16h16.03.465,MetaAwareness,2020.1.2,Win32,60,35ZRNT9RUJ1HMNGPPUOF7KNISBB3OO,A17Q4QN6UE0EZC,3TK8OJTYM2OM5GS3E6C23YFFJFSPVE,YOKT1,YOKT1,3TK8OJTYM2OM5GS3E6C23YFFJFSPVE,3TK8OJTYM2OM5GS3E6C23YFFJFSPVE,271351,271351,,,,,,,,,,
,,,,5,9.82234,0,27,27,297,1,a living room that has a fireplace looking thing that has candles on the shelf that are red,a living room that has a fireplace looking mantle that has white candles on the shelf,wolfe2,095_L_candle,3,36,A17Q4QN6UE0EZC,2021-01-25_16h16.03.465,MetaAwareness,2020.1.2,Win32,60,35ZRNT9RUJ1HMNGPPUOF7KNISBB3OO,A17Q4QN6UE0EZC,3TK8OJTYM2OM5GS3E6C23YFFJFSPVE,YOKT1,YOKT1,3TK8OJTYM2OM5GS3E6C23YFFJFSPVE,3TK8OJTYM2OM5GS3E6C23YFFJFSPVE,271351,271351,,,,,,,,,,
,,,,4,4.9918,0,28,28,259,1,home office with nothing on floor next to shelves.,home office with white object on floor next to shelves.,wolfe2,081_L_football,4,36,A17Q4QN6UE0EZC,2021-01-25_16h16.03.465,MetaAwareness,2020.1.2,Win32,60,35ZRNT9RUJ1HMNGPPUOF7KNISBB3OO,A17Q4QN6UE0EZC,3TK8OJTYM2OM5GS3E6C23YFFJFSPVE,YOKT1,YOKT1,3TK8OJTYM2OM5GS3E6C23YFFJFSPVE,3TK8OJTYM2OM5GS3E6C23YFFJFSPVE,271351,271351,,,,,,,,,,
,,,,5,14.96493,0,29,29,315,1,a sophisticated and modern bathroom containing a lighted shelf with a red cup and other stemware and vessels and containers on it,a sophisticated and modern bathroom containing a lighted shelf with stemware and other vessels and containers on it,wolfe2,101_L_cup,4,36,A17Q4QN6UE0EZC,2021-01-25_16h16.03.465,MetaAwareness,2020.1.2,Win32,60,35ZRNT9RUJ1HMNGPPUOF7KNISBB3OO,A17Q4QN6UE0EZC,3TK8OJTYM2OM5GS3E6C23YFFJFSPVE,YOKT1,YOKT1,3TK8OJTYM2OM5GS3E6C23YFFJFSPVE,3TK8OJTYM2OM5GS3E6C23YFFJFSPVE,271351,271351,,,,,,,,,,
,,,,,,,,,,,,,,,,36,A17Q4QN6UE0EZC,2021-01-25_16h16.03.465,MetaAwareness,2020.1.2,Win32,60,35ZRNT9RUJ1HMNGPPUOF7KNISBB3OO,A17Q4QN6UE0EZC,3TK8OJTYM2OM5GS3E6C23YFFJFSPVE,YOKT1,YOKT1,3TK8OJTYM2OM5GS3E6C23YFFJFSPVE,3TK8OJTYM2OM5GS3E6C23YFFJFSPVE,271351,271351,6,10.723955,someone laying underneath a blue beach umbrella on a crowded beach,someone laying underneath a blue beach umbrella on a crowded beach,same,1,5.22879,members of a marching band crossing a track that all have feather plumes at the front of their hats,a cluttered and rustic looking cafe with 10 hanging lights,different
