consent_response.keys,consent_response.rt,key_resp_2.keys,key_resp_2.rt,user_resp.keys,user_resp.rt,trials.thisRepN,trials.thisTrialN,trials.thisN,trials.thisIndex,trials.ran,image_1_text,image_2_text,database,image,number,age,worker_ID,date,expName,psychopyVersion,OS,frameRate,hitId,workerId,assignmentId,a,tp_a,b,tp_b,c,tp_c,catch_same_resp.keys,catch_same_resp.rt,image_1_text_catch_same,image_2_text_catch_same,image_catch_same,catch_different_resp.keys,catch_different_resp.rt,image_1_text_catch_different,image_2_text_catch_different,image_catch_different
space,5.389935,space,18.805835,5,16.86676,0,0,0,128,1,white and brown bathroom with white sink missing faucet,white and brown bathroom with white sinks,wolfe2,042_R_tap,2,25,A1E1APZSE8OFWU,2021-01-25_18h05.17.241,MetaAwareness,2020.1.2,Win32,60,35ZRNT9RUJ1HMNGPPUOF7KNISBB3OO,A1E1APZSE8OFWU,3A9AA95ATXP57MDO8FUPZ0LG6RQ5PN,AA9A1,AA9A1,3A9AA95ATXP57MDO8FUPZ0LG6RQ5PN,3A9AA95ATXP57MDO8FUPZ0LG6RQ5PN,271351,271351,,,,,,,,,,
,,,,2,12.49833,0,1,1,313,1,"a sleek, modern bathroom with two sinks and a large mirror","a sleek, modern bathroom with two sinks, a large mirror and a smaller mirror",wolfe2,100_R_mirror,3,25,A1E1APZSE8OFWU,2021-01-25_18h05.17.241,MetaAwareness,2020.1.2,Win32,60,35ZRNT9RUJ1HMNGPPUOF7KNISBB3OO,A1E1APZSE8OFWU,3A9AA95ATXP57MDO8FUPZ0LG6RQ5PN,AA9A1,AA9A1,3A9AA95ATXP57MDO8FUPZ0LG6RQ5PN,3A9AA95ATXP57MDO8FUPZ0LG6RQ5PN,271351,271351,,,,,,,,,,
,,,,2,9.005645,0,2,2,62,1,an outside porch with two chairs and one plant against the windows of the house,an outside porch with two chairs and two plants against the wall of the house,wolfe2,018_R_plant,2,25,A1E1APZSE8OFWU,2021-01-25_18h05.17.241,MetaAwareness,2020.1.2,Win32,60,35ZRNT9RUJ1HMNGPPUOF7KNISBB3OO,A1E1APZSE8OFWU,3A9AA95ATXP57MDO8FUPZ0LG6RQ5PN,AA9A1,AA9A1,3A9AA95ATXP57MDO8FUPZ0LG6RQ5PN,3A9AA95ATXP57MDO8FUPZ0LG6RQ5PN,271351,271351,,,,,,,,,,
,,,,1,9.18275,0,3,3,2,1,a bedroom with nothing on the wall near the corner of the room,a bedroom with a small mirror hanging near the corner of the room,wolfe2,001_R_mirror,2,25,A1E1APZSE8OFWU,2021-01-25_18h05.17.241,MetaAwareness,2020.1.2,Win32,60,35ZRNT9RUJ1HMNGPPUOF7KNISBB3OO,A1E1APZSE8OFWU,3A9AA95ATXP57MDO8FUPZ0LG6RQ5PN,AA9A1,AA9A1,3A9AA95ATXP57MDO8FUPZ0LG6RQ5PN,3A9AA95ATXP57MDO8FUPZ0LG6RQ5PN,271351,271351,,,,,,,,,,
,,,,1,9.243515,0,4,4,308,1,a hotel room with mostly white and grey furniture plus a small dark grey object lying on the floor,a hotel room with mostly white and grey furniture,wolfe2,098_R_slippers,5,25,A1E1APZSE8OFWU,2021-01-25_18h05.17.241,MetaAwareness,2020.1.2,Win32,60,35ZRNT9RUJ1HMNGPPUOF7KNISBB3OO,A1E1APZSE8OFWU,3A9AA95ATXP57MDO8FUPZ0LG6RQ5PN,AA9A1,AA9A1,3A9AA95ATXP57MDO8FUPZ0LG6RQ5PN,3A9AA95ATXP57MDO8FUPZ0LG6RQ5PN,271351,271351,,,,,,,,,,
,,,,5,5.79402,0,5,5,199,1,a bottle sits on top of a wooden buffet table,2 bottles sits on top of a wooden buffet table,wolfe2,064_R_bottles,3,25,A1E1APZSE8OFWU,2021-01-25_18h05.17.241,MetaAwareness,2020.1.2,Win32,60,35ZRNT9RUJ1HMNGPPUOF7KNISBB3OO,A1E1APZSE8OFWU,3A9AA95ATXP57MDO8FUPZ0LG6RQ5PN,AA9A1,AA9A1,3A9AA95ATXP57MDO8FUPZ0LG6RQ5PN,3A9AA95ATXP57MDO8FUPZ0LG6RQ5PN,271351,271351,,,,,,,,,,
,,,,2,14.28426,0,6,6,137,1,a blue and white bathroom with a glass shower and a large jacuzzi tub that does not have any lights on the front right side,a blue and white bathroom with a glass shower and a large jacuzzitub that has a light on the front right side,wolfe2,044_R_light,4,25,A1E1APZSE8OFWU,2021-01-25_18h05.17.241,MetaAwareness,2020.1.2,Win32,60,35ZRNT9RUJ1HMNGPPUOF7KNISBB3OO,A1E1APZSE8OFWU,3A9AA95ATXP57MDO8FUPZ0LG6RQ5PN,AA9A1,AA9A1,3A9AA95ATXP57MDO8FUPZ0LG6RQ5PN,3A9AA95ATXP57MDO8FUPZ0LG6RQ5PN,271351,271351,,,,,,,,,,
,,,,6,7.232135,0,7,7,335,1,this is a gym shower or bathroo with a paper towel rack on the wall,this is a gym shower or bathroom without a paper towel rack on the wall,wolfe2,106_R_toweldispenser,6,25,A1E1APZSE8OFWU,2021-01-25_18h05.17.241,MetaAwareness,2020.1.2,Win32,60,35ZRNT9RUJ1HMNGPPUOF7KNISBB3OO,A1E1APZSE8OFWU,3A9AA95ATXP57MDO8FUPZ0LG6RQ5PN,AA9A1,AA9A1,3A9AA95ATXP57MDO8FUPZ0LG6RQ5PN,3A9AA95ATXP57MDO8FUPZ0LG6RQ5PN,271351,271351,,,,,,,,,,
,,,,5,6.79657,0,8,8,223,1,a white modern looking living room with 1 hanging lamp on the wall,a white modern looking living room with 2 hanging lamps on the wall,wolfe2,070_R_lamp,1,25,A1E1APZSE8OFWU,2021-01-25_18h05.17.241,MetaAwareness,2020.1.2,Win32,60,35ZRNT9RUJ1HMNGPPUOF7KNISBB3OO,A1E1APZSE8OFWU,3A9AA95ATXP57MDO8FUPZ0LG6RQ5PN,AA9A1,AA9A1,3A9AA95ATXP57MDO8FUPZ0LG6RQ5PN,3A9AA95ATXP57MDO8FUPZ0LG6RQ5PN,271351,271351,,,,,,,,,,
,,,,1,5.62934,0,9,9,304,1,master bedroom with carpet and a light on the wall,master bedroom with dark sheets and a mirrored wall behind the bed and a plain wall beside,wolfe2,097_R_light,4,25,A1E1APZSE8OFWU,2021-01-25_18h05.17.241,MetaAwareness,2020.1.2,Win32,60,35ZRNT9RUJ1HMNGPPUOF7KNISBB3OO,A1E1APZSE8OFWU,3A9AA95ATXP57MDO8FUPZ0LG6RQ5PN,AA9A1,AA9A1,3A9AA95ATXP57MDO8FUPZ0LG6RQ5PN,3A9AA95ATXP57MDO8FUPZ0LG6RQ5PN,271351,271351,,,,,,,,,,
,,,,4,7.800315,0,10,10,205,1,a modern bedroom with a black painted wall,a modern bedroom decorated with thin white sculptures,wolfe2,066_L_vase,5,25,A1E1APZSE8OFWU,2021-01-25_18h05.17.241,MetaAwareness,2020.1.2,Win32,60,35ZRNT9RUJ1HMNGPPUOF7KNISBB3OO,A1E1APZSE8OFWU,3A9AA95ATXP57MDO8FUPZ0LG6RQ5PN,AA9A1,AA9A1,3A9AA95ATXP57MDO8FUPZ0LG6RQ5PN,3A9AA95ATXP57MDO8FUPZ0LG6RQ5PN,271351,271351,,,,,,,,,,
,,,,3,7.139915,0,11,11,190,1,"a living room area with a couch, some chairs and an ottomannum","a living room area with a couch, some chairs and a pet of some sort near the ottoman",wolfe2,062_R_flowers,3,25,A1E1APZSE8OFWU,2021-01-25_18h05.17.241,MetaAwareness,2020.1.2,Win32,60,35ZRNT9RUJ1HMNGPPUOF7KNISBB3OO,A1E1APZSE8OFWU,3A9AA95ATXP57MDO8FUPZ0LG6RQ5PN,AA9A1,AA9A1,3A9AA95ATXP57MDO8FUPZ0LG6RQ5PN,3A9AA95ATXP57MDO8FUPZ0LG6RQ5PN,271351,271351,,,,,,,,,,
,,,,5,9.907425,0,12,12,382,1,a master bedroom with a side table that has a telephone and a lamp on it,a master bedroom with a side table that has a lamp on it,wolfe2,121_R_car,3,25,A1E1APZSE8OFWU,2021-01-25_18h05.17.241,MetaAwareness,2020.1.2,Win32,60,35ZRNT9RUJ1HMNGPPUOF7KNISBB3OO,A1E1APZSE8OFWU,3A9AA95ATXP57MDO8FUPZ0LG6RQ5PN,AA9A1,AA9A1,3A9AA95ATXP57MDO8FUPZ0LG6RQ5PN,3A9AA95ATXP57MDO8FUPZ0LG6RQ5PN,271351,271351,,,,,,,,,,
,,,,4,29.3573,0,13,13,220,1,a room with two sofas. everything looks very white. there is a single light fixture on the wall beside the mirror over the fireplace.,a room with two sofas. everything is very white. there are two light fixtures beside the mirror over the fireplace.,wolfe2,070_L_lamp,1,25,A1E1APZSE8OFWU,2021-01-25_18h05.17.241,MetaAwareness,2020.1.2,Win32,60,35ZRNT9RUJ1HMNGPPUOF7KNISBB3OO,A1E1APZSE8OFWU,3A9AA95ATXP57MDO8FUPZ0LG6RQ5PN,AA9A1,AA9A1,3A9AA95ATXP57MDO8FUPZ0LG6RQ5PN,3A9AA95ATXP57MDO8FUPZ0LG6RQ5PN,271351,271351,,,,,,,,,,
,,,,3,8.9186,0,14,14,73,1,a kitchen with high end appliances and white walls and cabinets,"a kitchen with high end appliances and white walls and cabinets, and hanging bulbs.",wolfe2,022_R_lamp,3,25,A1E1APZSE8OFWU,2021-01-25_18h05.17.241,MetaAwareness,2020.1.2,Win32,60,35ZRNT9RUJ1HMNGPPUOF7KNISBB3OO,A1E1APZSE8OFWU,3A9AA95ATXP57MDO8FUPZ0LG6RQ5PN,AA9A1,AA9A1,3A9AA95ATXP57MDO8FUPZ0LG6RQ5PN,3A9AA95ATXP57MDO8FUPZ0LG6RQ5PN,271351,271351,,,,,,,,,,
,,,,1,5.140535,0,15,15,261,1,there is a black bookcase in a bedroom with a pink toy scooter.,there is an unidentified object next to the black bookcase in the bedroom,wolfe2,081_R_football,4,25,A1E1APZSE8OFWU,2021-01-25_18h05.17.241,MetaAwareness,2020.1.2,Win32,60,35ZRNT9RUJ1HMNGPPUOF7KNISBB3OO,A1E1APZSE8OFWU,3A9AA95ATXP57MDO8FUPZ0LG6RQ5PN,AA9A1,AA9A1,3A9AA95ATXP57MDO8FUPZ0LG6RQ5PN,3A9AA95ATXP57MDO8FUPZ0LG6RQ5PN,271351,271351,,,,,,,,,,
,,,,5,7.73975,0,16,16,390,1,a sun room with a hot tub and a potted plant on its far left corner,a sun room with a hot tub and no potted plant on its far left corner,wolfe2,123_L_pot,5,25,A1E1APZSE8OFWU,2021-01-25_18h05.17.241,MetaAwareness,2020.1.2,Win32,60,35ZRNT9RUJ1HMNGPPUOF7KNISBB3OO,A1E1APZSE8OFWU,3A9AA95ATXP57MDO8FUPZ0LG6RQ5PN,AA9A1,AA9A1,3A9AA95ATXP57MDO8FUPZ0LG6RQ5PN,3A9AA95ATXP57MDO8FUPZ0LG6RQ5PN,271351,271351,,,,,,,,,,
,,,,2,8.7341,0,17,17,230,1,a mostly black and tan living room,a mostly black and tan living room with a unique sculture on the end table,wolfe2,071_R_art,4,25,A1E1APZSE8OFWU,2021-01-25_18h05.17.241,MetaAwareness,2020.1.2,Win32,60,35ZRNT9RUJ1HMNGPPUOF7KNISBB3OO,A1E1APZSE8OFWU,3A9AA95ATXP57MDO8FUPZ0LG6RQ5PN,AA9A1,AA9A1,3A9AA95ATXP57MDO8FUPZ0LG6RQ5PN,3A9AA95ATXP57MDO8FUPZ0LG6RQ5PN,271351,271351,,,,,,,,,,
,,,,5,4.63707,0,18,18,395,1,a modern room with glass windows and vases on the floor,a modern room with glass windows and no decorations on the floor,wolfe2,124_L_vase,6,25,A1E1APZSE8OFWU,2021-01-25_18h05.17.241,MetaAwareness,2020.1.2,Win32,60,35ZRNT9RUJ1HMNGPPUOF7KNISBB3OO,A1E1APZSE8OFWU,3A9AA95ATXP57MDO8FUPZ0LG6RQ5PN,AA9A1,AA9A1,3A9AA95ATXP57MDO8FUPZ0LG6RQ5PN,3A9AA95ATXP57MDO8FUPZ0LG6RQ5PN,271351,271351,,,,,,,,,,
,,,,5,6.90223,0,19,19,156,1,a rustic style bathroom with stone floors and a dresser with one drawer handle,a rustic style bathroom with stone floors and a dresser with two drawer handles,wolfe2,053_R_handle,4,25,A1E1APZSE8OFWU,2021-01-25_18h05.17.241,MetaAwareness,2020.1.2,Win32,60,35ZRNT9RUJ1HMNGPPUOF7KNISBB3OO,A1E1APZSE8OFWU,3A9AA95ATXP57MDO8FUPZ0LG6RQ5PN,AA9A1,AA9A1,3A9AA95ATXP57MDO8FUPZ0LG6RQ5PN,3A9AA95ATXP57MDO8FUPZ0LG6RQ5PN,271351,271351,,,,,,,,,,
,,,,3,3.68853,0,20,20,169,1,a living room with a large white couch and brown carpet.,a living room with a large white couch and brown carpet. a small blanket laying on the couch.,wolfe2,056_R_comforter,7,25,A1E1APZSE8OFWU,2021-01-25_18h05.17.241,MetaAwareness,2020.1.2,Win32,60,35ZRNT9RUJ1HMNGPPUOF7KNISBB3OO,A1E1APZSE8OFWU,3A9AA95ATXP57MDO8FUPZ0LG6RQ5PN,AA9A1,AA9A1,3A9AA95ATXP57MDO8FUPZ0LG6RQ5PN,3A9AA95ATXP57MDO8FUPZ0LG6RQ5PN,271351,271351,,,,,,,,,,
,,,,5,6.074475,0,21,21,10,1,a lakeside house with a door open looking out at a lake with no ducks,a lakeside house with a door open looking out a lake with ducks in it,wolfe2,003_R_ducks,2,25,A1E1APZSE8OFWU,2021-01-25_18h05.17.241,MetaAwareness,2020.1.2,Win32,60,35ZRNT9RUJ1HMNGPPUOF7KNISBB3OO,A1E1APZSE8OFWU,3A9AA95ATXP57MDO8FUPZ0LG6RQ5PN,AA9A1,AA9A1,3A9AA95ATXP57MDO8FUPZ0LG6RQ5PN,3A9AA95ATXP57MDO8FUPZ0LG6RQ5PN,271351,271351,,,,,,,,,,
,,,,5,7.59045,0,22,22,202,1,theres a book shelf in an office with nothing in the middle,theres a bookshelf in an office with books in the middle,wolfe2,065_L_cd,5,25,A1E1APZSE8OFWU,2021-01-25_18h05.17.241,MetaAwareness,2020.1.2,Win32,60,35ZRNT9RUJ1HMNGPPUOF7KNISBB3OO,A1E1APZSE8OFWU,3A9AA95ATXP57MDO8FUPZ0LG6RQ5PN,AA9A1,AA9A1,3A9AA95ATXP57MDO8FUPZ0LG6RQ5PN,3A9AA95ATXP57MDO8FUPZ0LG6RQ5PN,271351,271351,,,,,,,,,,
,,,,3,4.249425,0,23,23,167,1,a living room with a brown rug and a white couch,a living room with a brown rug and a white couch with a blanket on it,wolfe2,056_R_comforter,5,25,A1E1APZSE8OFWU,2021-01-25_18h05.17.241,MetaAwareness,2020.1.2,Win32,60,35ZRNT9RUJ1HMNGPPUOF7KNISBB3OO,A1E1APZSE8OFWU,3A9AA95ATXP57MDO8FUPZ0LG6RQ5PN,AA9A1,AA9A1,3A9AA95ATXP57MDO8FUPZ0LG6RQ5PN,3A9AA95ATXP57MDO8FUPZ0LG6RQ5PN,271351,271351,,,,,,,,,,
,,,,2,7.24014,0,24,24,135,1,a bathroom with a tub connected to the shower and a light on the wall of the tub,a bathroom with a tub connected to the shower and two lights on the wall of the tub.,wolfe2,044_L_light,2,25,A1E1APZSE8OFWU,2021-01-25_18h05.17.241,MetaAwareness,2020.1.2,Win32,60,35ZRNT9RUJ1HMNGPPUOF7KNISBB3OO,A1E1APZSE8OFWU,3A9AA95ATXP57MDO8FUPZ0LG6RQ5PN,AA9A1,AA9A1,3A9AA95ATXP57MDO8FUPZ0LG6RQ5PN,3A9AA95ATXP57MDO8FUPZ0LG6RQ5PN,271351,271351,,,,,,,,,,
,,,,4,5.56549,0,25,25,13,1,a hotel room with a view of the city.,a hotel room with a view of the city that has a tower in the background.,wolfe2,004_R_electricalgrid,2,25,A1E1APZSE8OFWU,2021-01-25_18h05.17.241,MetaAwareness,2020.1.2,Win32,60,35ZRNT9RUJ1HMNGPPUOF7KNISBB3OO,A1E1APZSE8OFWU,3A9AA95ATXP57MDO8FUPZ0LG6RQ5PN,AA9A1,AA9A1,3A9AA95ATXP57MDO8FUPZ0LG6RQ5PN,3A9AA95ATXP57MDO8FUPZ0LG6RQ5PN,271351,271351,,,,,,,,,,
,,,,2,4.37969,0,26,26,388,1,theres a hot tub with a bowl to the left of it,theres a hot tub with nothing around it,wolfe2,123_L_pot,1,25,A1E1APZSE8OFWU,2021-01-25_18h05.17.241,MetaAwareness,2020.1.2,Win32,60,35ZRNT9RUJ1HMNGPPUOF7KNISBB3OO,A1E1APZSE8OFWU,3A9AA95ATXP57MDO8FUPZ0LG6RQ5PN,AA9A1,AA9A1,3A9AA95ATXP57MDO8FUPZ0LG6RQ5PN,3A9AA95ATXP57MDO8FUPZ0LG6RQ5PN,271351,271351,,,,,,,,,,
,,,,5,6.766515,0,27,27,56,1,modern home living area with a glass door to the patio. it has a statue holder but no statue,modern home living area with a glass door to the patio. it has a statue holder with a statue on it.,wolfe2,016_R_art,3,25,A1E1APZSE8OFWU,2021-01-25_18h05.17.241,MetaAwareness,2020.1.2,Win32,60,35ZRNT9RUJ1HMNGPPUOF7KNISBB3OO,A1E1APZSE8OFWU,3A9AA95ATXP57MDO8FUPZ0LG6RQ5PN,AA9A1,AA9A1,3A9AA95ATXP57MDO8FUPZ0LG6RQ5PN,3A9AA95ATXP57MDO8FUPZ0LG6RQ5PN,271351,271351,,,,,,,,,,
,,,,5,5.4196,0,28,28,387,1,a wide open conference room with tan chairs at tables,a wide open conference room with green carpet,wolfe2,122_R_chair,4,25,A1E1APZSE8OFWU,2021-01-25_18h05.17.241,MetaAwareness,2020.1.2,Win32,60,35ZRNT9RUJ1HMNGPPUOF7KNISBB3OO,A1E1APZSE8OFWU,3A9AA95ATXP57MDO8FUPZ0LG6RQ5PN,AA9A1,AA9A1,3A9AA95ATXP57MDO8FUPZ0LG6RQ5PN,3A9AA95ATXP57MDO8FUPZ0LG6RQ5PN,271351,271351,,,,,,,,,,
,,,,1,5.02023,0,29,29,242,1,a coffee table in middle of living room,a book is sitting on a table,wolfe2,074_R_book,7,25,A1E1APZSE8OFWU,2021-01-25_18h05.17.241,MetaAwareness,2020.1.2,Win32,60,35ZRNT9RUJ1HMNGPPUOF7KNISBB3OO,A1E1APZSE8OFWU,3A9AA95ATXP57MDO8FUPZ0LG6RQ5PN,AA9A1,AA9A1,3A9AA95ATXP57MDO8FUPZ0LG6RQ5PN,3A9AA95ATXP57MDO8FUPZ0LG6RQ5PN,271351,271351,,,,,,,,,,
,,,,,,,,,,,,,,,,25,A1E1APZSE8OFWU,2021-01-25_18h05.17.241,MetaAwareness,2020.1.2,Win32,60,35ZRNT9RUJ1HMNGPPUOF7KNISBB3OO,A1E1APZSE8OFWU,3A9AA95ATXP57MDO8FUPZ0LG6RQ5PN,AA9A1,AA9A1,3A9AA95ATXP57MDO8FUPZ0LG6RQ5PN,3A9AA95ATXP57MDO8FUPZ0LG6RQ5PN,271351,271351,6,6.17661,someone laying underneath a blue beach umbrella on a crowded beach,someone laying underneath a blue beach umbrella on a crowded beach,same,1,4.62043,members of a marching band crossing a track that all have feather plumes at the front of their hats,a cluttered and rustic looking cafe with 10 hanging lights,different
