consent_response.keys,consent_response.rt,key_resp_2.keys,key_resp_2.rt,user_resp.keys,user_resp.rt,trials.thisRepN,trials.thisTrialN,trials.thisN,trials.thisIndex,trials.ran,image_1_text,image_2_text,database,image,number,age,worker_ID,date,expName,psychopyVersion,OS,frameRate,hitId,workerId,assignmentId,a,tp_a,b,tp_b,c,tp_c,catch_same_resp.keys,catch_same_resp.rt,image_1_text_catch_same,image_2_text_catch_same,image_catch_same,catch_different_resp.keys,catch_different_resp.rt,image_1_text_catch_different,image_2_text_catch_different,image_catch_different
space,20.109155,space,22.55714,1,15.31582,0,0,0,362,1,a clean living room with full light and wide openning that show backyard with a table with a lant vessel with a plant on the top,a clean living room with full light and wide openning that show backyard with a table without a plant vessel with a plant on the top,wolfe2,117_L_plant_sized,5,37,A231KDND93GAVX,2021-01-25_20h42.50.384,MetaAwareness,2020.1.2,Win32,60,3P520RYKCI9FD7NQZZOHLNDROTRU5J,A231KDND93GAVX,35BLDD71I70GJKU91FA4UWHTTF6ZVI,1DB51,1DB51,35BLDD71I70GJKU91FA4UWHTTF6ZVI,35BLDD71I70GJKU91FA4UWHTTF6ZVI,271351,271351,,,,,,,,,,
,,,,2,10.097575,0,1,1,246,1,"a bathroom with a large mirror, without a towel hanger","a bathroom with a large mirror, with a towel hanger.",wolfe2,076_L_hook,6,37,A231KDND93GAVX,2021-01-25_20h42.50.384,MetaAwareness,2020.1.2,Win32,60,3P520RYKCI9FD7NQZZOHLNDROTRU5J,A231KDND93GAVX,35BLDD71I70GJKU91FA4UWHTTF6ZVI,1DB51,1DB51,35BLDD71I70GJKU91FA4UWHTTF6ZVI,35BLDD71I70GJKU91FA4UWHTTF6ZVI,271351,271351,,,,,,,,,,
,,,,3,9.130155,0,2,2,128,1,white and brown bathroom with white sink missing faucet,white and brown bathroom with white sinks,wolfe2,042_R_tap,2,37,A231KDND93GAVX,2021-01-25_20h42.50.384,MetaAwareness,2020.1.2,Win32,60,3P520RYKCI9FD7NQZZOHLNDROTRU5J,A231KDND93GAVX,35BLDD71I70GJKU91FA4UWHTTF6ZVI,1DB51,1DB51,35BLDD71I70GJKU91FA4UWHTTF6ZVI,35BLDD71I70GJKU91FA4UWHTTF6ZVI,271351,271351,,,,,,,,,,
,,,,3,5.63657,0,3,3,70,1,a modern looking office with a nice desktop mat,a modern looking office with a keyboard on a nice desktop mat.,wolfe2,021_L_keyboard,7,37,A231KDND93GAVX,2021-01-25_20h42.50.384,MetaAwareness,2020.1.2,Win32,60,3P520RYKCI9FD7NQZZOHLNDROTRU5J,A231KDND93GAVX,35BLDD71I70GJKU91FA4UWHTTF6ZVI,1DB51,1DB51,35BLDD71I70GJKU91FA4UWHTTF6ZVI,35BLDD71I70GJKU91FA4UWHTTF6ZVI,271351,271351,,,,,,,,,,
,,,,4,9.3329,0,4,4,146,1,"a dimly-lit bedroom with a bed, night table, dresser, large mirror, and 3 pictures on the wall","a dimly-lit bedroom with a bed, night table, dresser, large mirror, and 4 pictures on the walls",wolfe2,049_R_painting,1,37,A231KDND93GAVX,2021-01-25_20h42.50.384,MetaAwareness,2020.1.2,Win32,60,3P520RYKCI9FD7NQZZOHLNDROTRU5J,A231KDND93GAVX,35BLDD71I70GJKU91FA4UWHTTF6ZVI,1DB51,1DB51,35BLDD71I70GJKU91FA4UWHTTF6ZVI,35BLDD71I70GJKU91FA4UWHTTF6ZVI,271351,271351,,,,,,,,,,
,,,,6,15.963725,0,5,5,195,1,"a common living space type room that blends natural and man-made elements, one of which is a wooden desk","a common living space type room that blends natural and man-made elements, one of which is a wooden desk with a book on top of it.",wolfe2,063_L_laptop,3,37,A231KDND93GAVX,2021-01-25_20h42.50.384,MetaAwareness,2020.1.2,Win32,60,3P520RYKCI9FD7NQZZOHLNDROTRU5J,A231KDND93GAVX,35BLDD71I70GJKU91FA4UWHTTF6ZVI,1DB51,1DB51,35BLDD71I70GJKU91FA4UWHTTF6ZVI,35BLDD71I70GJKU91FA4UWHTTF6ZVI,271351,271351,,,,,,,,,,
,,,,3,8.27111,0,6,6,380,1,a modern bedroom with a car figurine on the nightstand next to the lamp.,a modern bedroom with nothing on the nightstand next to the lamp.,wolfe2,121_L_car,4,37,A231KDND93GAVX,2021-01-25_20h42.50.384,MetaAwareness,2020.1.2,Win32,60,3P520RYKCI9FD7NQZZOHLNDROTRU5J,A231KDND93GAVX,35BLDD71I70GJKU91FA4UWHTTF6ZVI,1DB51,1DB51,35BLDD71I70GJKU91FA4UWHTTF6ZVI,35BLDD71I70GJKU91FA4UWHTTF6ZVI,271351,271351,,,,,,,,,,
,,,,4,7.74401,0,7,7,224,1,a very elegant and modern living room of a big house,a very elegant and modern living room with 3 floating lights on the wall,wolfe2,070_R_lamp,3,37,A231KDND93GAVX,2021-01-25_20h42.50.384,MetaAwareness,2020.1.2,Win32,60,3P520RYKCI9FD7NQZZOHLNDROTRU5J,A231KDND93GAVX,35BLDD71I70GJKU91FA4UWHTTF6ZVI,1DB51,1DB51,35BLDD71I70GJKU91FA4UWHTTF6ZVI,35BLDD71I70GJKU91FA4UWHTTF6ZVI,271351,271351,,,,,,,,,,
,,,,6,11.38311,0,8,8,115,1,a gorgeous white and wood bathroom includes small shelves near the bath and shower for washcloths and decor.,a gorgeous white and wood bathroom includes small shelves near the bath and shower for washcloths and decor.,wolfe2,037_L_towel,2,37,A231KDND93GAVX,2021-01-25_20h42.50.384,MetaAwareness,2020.1.2,Win32,60,3P520RYKCI9FD7NQZZOHLNDROTRU5J,A231KDND93GAVX,35BLDD71I70GJKU91FA4UWHTTF6ZVI,1DB51,1DB51,35BLDD71I70GJKU91FA4UWHTTF6ZVI,35BLDD71I70GJKU91FA4UWHTTF6ZVI,271351,271351,,,,,,,,,,
,,,,2,6.014865,0,9,9,234,1,a chic black and white bedroom with a large dresser that has five drawer handles and is missing one in the bottom right,a chic black and white bedroom with a large dresser tha has six drawers,wolfe2,072_R_handle,3,37,A231KDND93GAVX,2021-01-25_20h42.50.384,MetaAwareness,2020.1.2,Win32,60,3P520RYKCI9FD7NQZZOHLNDROTRU5J,A231KDND93GAVX,35BLDD71I70GJKU91FA4UWHTTF6ZVI,1DB51,1DB51,35BLDD71I70GJKU91FA4UWHTTF6ZVI,35BLDD71I70GJKU91FA4UWHTTF6ZVI,271351,271351,,,,,,,,,,
,,,,2,10.39599,0,10,10,367,1,a pair of shoes is present in a well-lighted living area.,the shoes are no longer present in the well-lighted living area.,wolfe2,118_R_shoes,3,37,A231KDND93GAVX,2021-01-25_20h42.50.384,MetaAwareness,2020.1.2,Win32,60,3P520RYKCI9FD7NQZZOHLNDROTRU5J,A231KDND93GAVX,35BLDD71I70GJKU91FA4UWHTTF6ZVI,1DB51,1DB51,35BLDD71I70GJKU91FA4UWHTTF6ZVI,35BLDD71I70GJKU91FA4UWHTTF6ZVI,271351,271351,,,,,,,,,,
,,,,3,7.613545,0,11,11,321,1,a brown vase on a table in a cozy restaurant,a red candle placed on a table on a cozy restaurant,wolfe2,104_L_bottle,1,37,A231KDND93GAVX,2021-01-25_20h42.50.384,MetaAwareness,2020.1.2,Win32,60,3P520RYKCI9FD7NQZZOHLNDROTRU5J,A231KDND93GAVX,35BLDD71I70GJKU91FA4UWHTTF6ZVI,1DB51,1DB51,35BLDD71I70GJKU91FA4UWHTTF6ZVI,35BLDD71I70GJKU91FA4UWHTTF6ZVI,271351,271351,,,,,,,,,,
,,,,4,5.553635,0,12,12,408,1,a hope office that has a white desk with a flower in a pot on the desk,a home office with a white desk with a printer and a laptop on it,wolfe2,128_L_pot,2,37,A231KDND93GAVX,2021-01-25_20h42.50.384,MetaAwareness,2020.1.2,Win32,60,3P520RYKCI9FD7NQZZOHLNDROTRU5J,A231KDND93GAVX,35BLDD71I70GJKU91FA4UWHTTF6ZVI,1DB51,1DB51,35BLDD71I70GJKU91FA4UWHTTF6ZVI,35BLDD71I70GJKU91FA4UWHTTF6ZVI,271351,271351,,,,,,,,,,
,,,,6,9.320845,0,13,13,159,1,"a bedroom with a desk, shelf and bed and two circular rugs on the floor towards the right.","a bedroo with a desk, shelf and bed and three circular rugs on the floor towards the right.",wolfe2,055_R_carpet,1,37,A231KDND93GAVX,2021-01-25_20h42.50.384,MetaAwareness,2020.1.2,Win32,60,3P520RYKCI9FD7NQZZOHLNDROTRU5J,A231KDND93GAVX,35BLDD71I70GJKU91FA4UWHTTF6ZVI,1DB51,1DB51,35BLDD71I70GJKU91FA4UWHTTF6ZVI,35BLDD71I70GJKU91FA4UWHTTF6ZVI,271351,271351,,,,,,,,,,
,,,,3,5.11235,0,14,14,332,1,a light blue wall with a napkin dispenser next to the white door.,a light blue wall next to the white door.,wolfe2,106_L_toweldispenser,7,37,A231KDND93GAVX,2021-01-25_20h42.50.384,MetaAwareness,2020.1.2,Win32,60,3P520RYKCI9FD7NQZZOHLNDROTRU5J,A231KDND93GAVX,35BLDD71I70GJKU91FA4UWHTTF6ZVI,1DB51,1DB51,35BLDD71I70GJKU91FA4UWHTTF6ZVI,35BLDD71I70GJKU91FA4UWHTTF6ZVI,271351,271351,,,,,,,,,,
,,,,3,2.45616,0,15,15,391,1,an indoor hot tub surrounded by several potted plants.  there's a single plant on the right side of the tub,an indoor hot tub surrounded by several potted plants,wolfe2,123_R_pot,2,37,A231KDND93GAVX,2021-01-25_20h42.50.384,MetaAwareness,2020.1.2,Win32,60,3P520RYKCI9FD7NQZZOHLNDROTRU5J,A231KDND93GAVX,35BLDD71I70GJKU91FA4UWHTTF6ZVI,1DB51,1DB51,35BLDD71I70GJKU91FA4UWHTTF6ZVI,35BLDD71I70GJKU91FA4UWHTTF6ZVI,271351,271351,,,,,,,,,,
,,,,4,5.665505,0,16,16,51,1,a living room that has two lights in the ceiling.,a living room that has three lights in the ceiling.,wolfe2,015_R_ceilinglight,3,37,A231KDND93GAVX,2021-01-25_20h42.50.384,MetaAwareness,2020.1.2,Win32,60,3P520RYKCI9FD7NQZZOHLNDROTRU5J,A231KDND93GAVX,35BLDD71I70GJKU91FA4UWHTTF6ZVI,1DB51,1DB51,35BLDD71I70GJKU91FA4UWHTTF6ZVI,35BLDD71I70GJKU91FA4UWHTTF6ZVI,271351,271351,,,,,,,,,,
,,,,6,5.97688,0,17,17,17,1,a white and red living area with a blank wall above the futon,a white and red living area with a mirror above the futon,wolfe2,005_L_mirror,6,37,A231KDND93GAVX,2021-01-25_20h42.50.384,MetaAwareness,2020.1.2,Win32,60,3P520RYKCI9FD7NQZZOHLNDROTRU5J,A231KDND93GAVX,35BLDD71I70GJKU91FA4UWHTTF6ZVI,1DB51,1DB51,35BLDD71I70GJKU91FA4UWHTTF6ZVI,35BLDD71I70GJKU91FA4UWHTTF6ZVI,271351,271351,,,,,,,,,,
,,,,4,8.98222,0,18,18,71,1,"a colorful office with a desk, chair and computer","a colorful office with a desk, chair, keyboard, and computer",wolfe2,021_R_keyboard,3,37,A231KDND93GAVX,2021-01-25_20h42.50.384,MetaAwareness,2020.1.2,Win32,60,3P520RYKCI9FD7NQZZOHLNDROTRU5J,A231KDND93GAVX,35BLDD71I70GJKU91FA4UWHTTF6ZVI,1DB51,1DB51,35BLDD71I70GJKU91FA4UWHTTF6ZVI,35BLDD71I70GJKU91FA4UWHTTF6ZVI,271351,271351,,,,,,,,,,
,,,,3,7.93753,0,19,19,395,1,a modern room with glass windows and vases on the floor,a modern room with glass windows and no decorations on the floor,wolfe2,124_L_vase,6,37,A231KDND93GAVX,2021-01-25_20h42.50.384,MetaAwareness,2020.1.2,Win32,60,3P520RYKCI9FD7NQZZOHLNDROTRU5J,A231KDND93GAVX,35BLDD71I70GJKU91FA4UWHTTF6ZVI,1DB51,1DB51,35BLDD71I70GJKU91FA4UWHTTF6ZVI,35BLDD71I70GJKU91FA4UWHTTF6ZVI,271351,271351,,,,,,,,,,
,,,,3,5.53051,0,20,20,303,1,a contemporary bedroom with a wall lamp to the right of the bathroom entry.,a contemporary bedroom with no lamps to the right of the bathroom entry.,wolfe2,097_L_light,2,37,A231KDND93GAVX,2021-01-25_20h42.50.384,MetaAwareness,2020.1.2,Win32,60,3P520RYKCI9FD7NQZZOHLNDROTRU5J,A231KDND93GAVX,35BLDD71I70GJKU91FA4UWHTTF6ZVI,1DB51,1DB51,35BLDD71I70GJKU91FA4UWHTTF6ZVI,35BLDD71I70GJKU91FA4UWHTTF6ZVI,271351,271351,,,,,,,,,,
,,,,4,5.85717,0,21,21,307,1,a beige-toned bedroom with a purse on the floor in front of the chair,a beige-toned bedroom with nothing on the floor in front of the chair,wolfe2,098_L_slippers,5,37,A231KDND93GAVX,2021-01-25_20h42.50.384,MetaAwareness,2020.1.2,Win32,60,3P520RYKCI9FD7NQZZOHLNDROTRU5J,A231KDND93GAVX,35BLDD71I70GJKU91FA4UWHTTF6ZVI,1DB51,1DB51,35BLDD71I70GJKU91FA4UWHTTF6ZVI,35BLDD71I70GJKU91FA4UWHTTF6ZVI,271351,271351,,,,,,,,,,
,,,,3,6.22186,0,22,22,151,1,a family photo with a mini clock next to it.,a family photo with a mini clock and perfume bottle next to it.,wolfe2,051_L_owl,6,37,A231KDND93GAVX,2021-01-25_20h42.50.384,MetaAwareness,2020.1.2,Win32,60,3P520RYKCI9FD7NQZZOHLNDROTRU5J,A231KDND93GAVX,35BLDD71I70GJKU91FA4UWHTTF6ZVI,1DB51,1DB51,35BLDD71I70GJKU91FA4UWHTTF6ZVI,35BLDD71I70GJKU91FA4UWHTTF6ZVI,271351,271351,,,,,,,,,,
,,,,2,6.08443,0,23,23,131,1,a high end living room with a bookcase,a high end livig room with a bookcase that has a clock on it,wolfe2,043_L_clock,3,37,A231KDND93GAVX,2021-01-25_20h42.50.384,MetaAwareness,2020.1.2,Win32,60,3P520RYKCI9FD7NQZZOHLNDROTRU5J,A231KDND93GAVX,35BLDD71I70GJKU91FA4UWHTTF6ZVI,1DB51,1DB51,35BLDD71I70GJKU91FA4UWHTTF6ZVI,35BLDD71I70GJKU91FA4UWHTTF6ZVI,271351,271351,,,,,,,,,,
,,,,2,3.90068,0,24,24,196,1,an open design kitchen and living room with a nice desk space,an open design kitchen and living room with a book on top of a nice desk space,wolfe2,063_L_laptop,4,37,A231KDND93GAVX,2021-01-25_20h42.50.384,MetaAwareness,2020.1.2,Win32,60,3P520RYKCI9FD7NQZZOHLNDROTRU5J,A231KDND93GAVX,35BLDD71I70GJKU91FA4UWHTTF6ZVI,1DB51,1DB51,35BLDD71I70GJKU91FA4UWHTTF6ZVI,35BLDD71I70GJKU91FA4UWHTTF6ZVI,271351,271351,,,,,,,,,,
,,,,4,6.661485,0,25,25,217,1,a classic style living room with fireplace and a shelf to the righta,a classic style living room with fireplace and a object on the shelf to the right,wolfe2,069_R_things,2,37,A231KDND93GAVX,2021-01-25_20h42.50.384,MetaAwareness,2020.1.2,Win32,60,3P520RYKCI9FD7NQZZOHLNDROTRU5J,A231KDND93GAVX,35BLDD71I70GJKU91FA4UWHTTF6ZVI,1DB51,1DB51,35BLDD71I70GJKU91FA4UWHTTF6ZVI,35BLDD71I70GJKU91FA4UWHTTF6ZVI,271351,271351,,,,,,,,,,
,,,,4,5.954465,0,26,26,356,1,it is a picture of a kitchen with a plant next to the oven and under a light.,it is a picture of a kitchen with nothing on the counter next to the oven.,wolfe2,115_R_pot,3,37,A231KDND93GAVX,2021-01-25_20h42.50.384,MetaAwareness,2020.1.2,Win32,60,3P520RYKCI9FD7NQZZOHLNDROTRU5J,A231KDND93GAVX,35BLDD71I70GJKU91FA4UWHTTF6ZVI,1DB51,1DB51,35BLDD71I70GJKU91FA4UWHTTF6ZVI,35BLDD71I70GJKU91FA4UWHTTF6ZVI,271351,271351,,,,,,,,,,
,,,,6,5.46981,0,27,27,104,1,a bedroom with a white nighstand and two drawers,a bedroom with a white nightstand and three drawers,wolfe2,034_R_handle,2,37,A231KDND93GAVX,2021-01-25_20h42.50.384,MetaAwareness,2020.1.2,Win32,60,3P520RYKCI9FD7NQZZOHLNDROTRU5J,A231KDND93GAVX,35BLDD71I70GJKU91FA4UWHTTF6ZVI,1DB51,1DB51,35BLDD71I70GJKU91FA4UWHTTF6ZVI,35BLDD71I70GJKU91FA4UWHTTF6ZVI,271351,271351,,,,,,,,,,
,,,,4,6.671345,0,28,28,365,1,an old and rustic wooden room with shoes on a mat on the floor,an old and rustic wooden room without shoes on a mat on the floor,wolfe2,118_L_shoes,5,37,A231KDND93GAVX,2021-01-25_20h42.50.384,MetaAwareness,2020.1.2,Win32,60,3P520RYKCI9FD7NQZZOHLNDROTRU5J,A231KDND93GAVX,35BLDD71I70GJKU91FA4UWHTTF6ZVI,1DB51,1DB51,35BLDD71I70GJKU91FA4UWHTTF6ZVI,35BLDD71I70GJKU91FA4UWHTTF6ZVI,271351,271351,,,,,,,,,,
,,,,4,6.311565,0,29,29,374,1,"modern living room with big glass doors, patio and 3 items on the mantle","modern living room with big glass doors, patio and 2 items on the mantle",wolfe2,120_L_art,2,37,A231KDND93GAVX,2021-01-25_20h42.50.384,MetaAwareness,2020.1.2,Win32,60,3P520RYKCI9FD7NQZZOHLNDROTRU5J,A231KDND93GAVX,35BLDD71I70GJKU91FA4UWHTTF6ZVI,1DB51,1DB51,35BLDD71I70GJKU91FA4UWHTTF6ZVI,35BLDD71I70GJKU91FA4UWHTTF6ZVI,271351,271351,,,,,,,,,,
,,,,,,,,,,,,,,,,37,A231KDND93GAVX,2021-01-25_20h42.50.384,MetaAwareness,2020.1.2,Win32,60,3P520RYKCI9FD7NQZZOHLNDROTRU5J,A231KDND93GAVX,35BLDD71I70GJKU91FA4UWHTTF6ZVI,1DB51,1DB51,35BLDD71I70GJKU91FA4UWHTTF6ZVI,35BLDD71I70GJKU91FA4UWHTTF6ZVI,271351,271351,6,12.76598,someone laying underneath a blue beach umbrella on a crowded beach,someone laying underneath a blue beach umbrella on a crowded beach,same,1,5.15387,members of a marching band crossing a track that all have feather plumes at the front of their hats,a cluttered and rustic looking cafe with 10 hanging lights,different
