consent_response.keys,consent_response.rt,key_resp_2.keys,key_resp_2.rt,user_resp.keys,user_resp.rt,trials.thisRepN,trials.thisTrialN,trials.thisN,trials.thisIndex,trials.ran,image_1_text,image_2_text,database,image,number,age,worker_ID,date,expName,psychopyVersion,OS,frameRate,hitId,workerId,assignmentId,a,tp_a,b,tp_b,c,tp_c,catch_same_resp.keys,catch_same_resp.rt,image_1_text_catch_same,image_2_text_catch_same,image_catch_same,catch_different_resp.keys,catch_different_resp.rt,image_1_text_catch_different,image_2_text_catch_different,image_catch_different
space,23.4495,space,24.956125,5,10.122375,0,0,0,253,1,kitchen with three lights and 26 full shelves,kitchen with three lights and 27 full shelves,wolfe2,079_L_bowl,4,28,A3GITKS8VABUNB,2021-01-25_22h19.10.564,MetaAwareness,2020.1.2,Win32,60,3WUVMVA7OC6T5CTH0IE6AQ8SIPCAZZ,A3GITKS8VABUNB,3AAPLD8UCDKFF7QQQY4IT7P304STHP,ULAA1,ULAA1,3AAPLD8UCDKFF7QQQY4IT7P304STHP,3AAPLD8UCDKFF7QQQY4IT7P304STHP,271351,271351,,,,,,,,,,
,,,,5,12.71947,0,1,1,187,1,a dining room with dark colored wood furniture and a brown shelf in the back,a dining room with dark colored wood furniture and a brown shelf in the back with wine glasses,wolfe2,061_R_glass,4,28,A3GITKS8VABUNB,2021-01-25_22h19.10.564,MetaAwareness,2020.1.2,Win32,60,3WUVMVA7OC6T5CTH0IE6AQ8SIPCAZZ,A3GITKS8VABUNB,3AAPLD8UCDKFF7QQQY4IT7P304STHP,ULAA1,ULAA1,3AAPLD8UCDKFF7QQQY4IT7P304STHP,3AAPLD8UCDKFF7QQQY4IT7P304STHP,271351,271351,,,,,,,,,,
,,,,3,13.29172,0,2,2,292,1,a living room  with huge sofasets and a fireplace that has containers,a living room with huge sofasets and a fireplace without containers,wolfe2,092_L_candles,3,28,A3GITKS8VABUNB,2021-01-25_22h19.10.564,MetaAwareness,2020.1.2,Win32,60,3WUVMVA7OC6T5CTH0IE6AQ8SIPCAZZ,A3GITKS8VABUNB,3AAPLD8UCDKFF7QQQY4IT7P304STHP,ULAA1,ULAA1,3AAPLD8UCDKFF7QQQY4IT7P304STHP,3AAPLD8UCDKFF7QQQY4IT7P304STHP,271351,271351,,,,,,,,,,
,,,,6,21.857975,0,3,3,78,1,"a modern sun porch with brick walls, rattan furniture, and a large television, with views of the garden outside","a moden sun porch with brick walls, rattan furniture, a tv remote on a side table, and a large television, with views of the garden outside",wolfe2,023_R_remote,4,28,A3GITKS8VABUNB,2021-01-25_22h19.10.564,MetaAwareness,2020.1.2,Win32,60,3WUVMVA7OC6T5CTH0IE6AQ8SIPCAZZ,A3GITKS8VABUNB,3AAPLD8UCDKFF7QQQY4IT7P304STHP,ULAA1,ULAA1,3AAPLD8UCDKFF7QQQY4IT7P304STHP,3AAPLD8UCDKFF7QQQY4IT7P304STHP,271351,271351,,,,,,,,,,
,,,,4,13.867215,0,4,4,180,1,this brightly colored child's bedroom has a decorative car above the closet.num_enter,this brightly colored childs bedroom has many cars on the floor,wolfe2,059_R_car,3,28,A3GITKS8VABUNB,2021-01-25_22h19.10.564,MetaAwareness,2020.1.2,Win32,60,3WUVMVA7OC6T5CTH0IE6AQ8SIPCAZZ,A3GITKS8VABUNB,3AAPLD8UCDKFF7QQQY4IT7P304STHP,ULAA1,ULAA1,3AAPLD8UCDKFF7QQQY4IT7P304STHP,3AAPLD8UCDKFF7QQQY4IT7P304STHP,271351,271351,,,,,,,,,,
,,,,2,8.457615,0,5,5,28,1,only one item is in the window cell,there are two items on the window shelf,wolfe2,008_R_bottle,4,28,A3GITKS8VABUNB,2021-01-25_22h19.10.564,MetaAwareness,2020.1.2,Win32,60,3WUVMVA7OC6T5CTH0IE6AQ8SIPCAZZ,A3GITKS8VABUNB,3AAPLD8UCDKFF7QQQY4IT7P304STHP,ULAA1,ULAA1,3AAPLD8UCDKFF7QQQY4IT7P304STHP,3AAPLD8UCDKFF7QQQY4IT7P304STHP,271351,271351,,,,,,,,,,
,,,,6,23.81362,0,6,6,115,1,a gorgeous white and wood bathroom includes small shelves near the bath and shower for washcloths and decor.,a gorgeous white and wood bathroom includes small shelves near the bath and shower for washcloths and decor.,wolfe2,037_L_towel,2,28,A3GITKS8VABUNB,2021-01-25_22h19.10.564,MetaAwareness,2020.1.2,Win32,60,3WUVMVA7OC6T5CTH0IE6AQ8SIPCAZZ,A3GITKS8VABUNB,3AAPLD8UCDKFF7QQQY4IT7P304STHP,ULAA1,ULAA1,3AAPLD8UCDKFF7QQQY4IT7P304STHP,3AAPLD8UCDKFF7QQQY4IT7P304STHP,271351,271351,,,,,,,,,,
,,,,5,12.487875,0,7,7,132,1,a clean living room with a shelving unit to the left of the tv that has the largest shelf empty,a clean living room with a shelving unit to the left of the tv that has a clock in the largest shelf,wolfe2,043_R_clock,3,28,A3GITKS8VABUNB,2021-01-25_22h19.10.564,MetaAwareness,2020.1.2,Win32,60,3WUVMVA7OC6T5CTH0IE6AQ8SIPCAZZ,A3GITKS8VABUNB,3AAPLD8UCDKFF7QQQY4IT7P304STHP,ULAA1,ULAA1,3AAPLD8UCDKFF7QQQY4IT7P304STHP,3AAPLD8UCDKFF7QQQY4IT7P304STHP,271351,271351,,,,,,,,,,
,,,,5,14.74532,0,8,8,238,1,spacious and bright kitchen with several windows and a flower vase on the countertop.,spacious and bright kitchen with several windows and a multiple flower vases on the countertop.,wolfe2,073_R_coffeemug,3,28,A3GITKS8VABUNB,2021-01-25_22h19.10.564,MetaAwareness,2020.1.2,Win32,60,3WUVMVA7OC6T5CTH0IE6AQ8SIPCAZZ,A3GITKS8VABUNB,3AAPLD8UCDKFF7QQQY4IT7P304STHP,ULAA1,ULAA1,3AAPLD8UCDKFF7QQQY4IT7P304STHP,3AAPLD8UCDKFF7QQQY4IT7P304STHP,271351,271351,,,,,,,,,,
,,,,3,36.153995,0,9,9,218,1,"a small living area with brown furniture, and a brown fireplace, as well as a brown shelf",a small living area with wooden material furniture and a decorations on the brown shelf,wolfe2,069_R_things,3,28,A3GITKS8VABUNB,2021-01-25_22h19.10.564,MetaAwareness,2020.1.2,Win32,60,3WUVMVA7OC6T5CTH0IE6AQ8SIPCAZZ,A3GITKS8VABUNB,3AAPLD8UCDKFF7QQQY4IT7P304STHP,ULAA1,ULAA1,3AAPLD8UCDKFF7QQQY4IT7P304STHP,3AAPLD8UCDKFF7QQQY4IT7P304STHP,271351,271351,,,,,,,,,,
,,,,3,11.93843,0,10,10,5,1,a set table that is missing one orange napkin in a dining hall,a set table with orange napkins on all settings in a dining hall,wolfe2,002_R_napkin,1,28,A3GITKS8VABUNB,2021-01-25_22h19.10.564,MetaAwareness,2020.1.2,Win32,60,3WUVMVA7OC6T5CTH0IE6AQ8SIPCAZZ,A3GITKS8VABUNB,3AAPLD8UCDKFF7QQQY4IT7P304STHP,ULAA1,ULAA1,3AAPLD8UCDKFF7QQQY4IT7P304STHP,3AAPLD8UCDKFF7QQQY4IT7P304STHP,271351,271351,,,,,,,,,,
,,,,3,7.950625,0,11,11,2,1,a bedroom with nothing on the wall near the corner of the room,a bedroom with a small mirror hanging near the corner of the room,wolfe2,001_R_mirror,2,28,A3GITKS8VABUNB,2021-01-25_22h19.10.564,MetaAwareness,2020.1.2,Win32,60,3WUVMVA7OC6T5CTH0IE6AQ8SIPCAZZ,A3GITKS8VABUNB,3AAPLD8UCDKFF7QQQY4IT7P304STHP,ULAA1,ULAA1,3AAPLD8UCDKFF7QQQY4IT7P304STHP,3AAPLD8UCDKFF7QQQY4IT7P304STHP,271351,271351,,,,,,,,,,
,,,,6,8.444595,0,12,12,29,1,this bathroom has almost everything needed for function.,this bathroom has everything including lotions.,wolfe2,008_R_bottle,5,28,A3GITKS8VABUNB,2021-01-25_22h19.10.564,MetaAwareness,2020.1.2,Win32,60,3WUVMVA7OC6T5CTH0IE6AQ8SIPCAZZ,A3GITKS8VABUNB,3AAPLD8UCDKFF7QQQY4IT7P304STHP,ULAA1,ULAA1,3AAPLD8UCDKFF7QQQY4IT7P304STHP,3AAPLD8UCDKFF7QQQY4IT7P304STHP,271351,271351,,,,,,,,,,
,,,,6,13.940855,0,13,13,315,1,a sophisticated and modern bathroom containing a lighted shelf with a red cup and other stemware and vessels and containers on it,a sophisticated and modern bathroom containing a lighted shelf with stemware and other vessels and containers on it,wolfe2,101_L_cup,4,28,A3GITKS8VABUNB,2021-01-25_22h19.10.564,MetaAwareness,2020.1.2,Win32,60,3WUVMVA7OC6T5CTH0IE6AQ8SIPCAZZ,A3GITKS8VABUNB,3AAPLD8UCDKFF7QQQY4IT7P304STHP,ULAA1,ULAA1,3AAPLD8UCDKFF7QQQY4IT7P304STHP,3AAPLD8UCDKFF7QQQY4IT7P304STHP,271351,271351,,,,,,,,,,
,,,,4,10.690475,0,14,14,395,1,a modern room with glass windows and vases on the floor,a modern room with glass windows and no decorations on the floor,wolfe2,124_L_vase,6,28,A3GITKS8VABUNB,2021-01-25_22h19.10.564,MetaAwareness,2020.1.2,Win32,60,3WUVMVA7OC6T5CTH0IE6AQ8SIPCAZZ,A3GITKS8VABUNB,3AAPLD8UCDKFF7QQQY4IT7P304STHP,ULAA1,ULAA1,3AAPLD8UCDKFF7QQQY4IT7P304STHP,3AAPLD8UCDKFF7QQQY4IT7P304STHP,271351,271351,,,,,,,,,,
,,,,3,8.927985,0,15,15,278,1,a messy bathroom counter with a towel hook on the wall next to it,a messy bathroom counter with no towel hook on the wall,wolfe2,087_R_towelhandle,4,28,A3GITKS8VABUNB,2021-01-25_22h19.10.564,MetaAwareness,2020.1.2,Win32,60,3WUVMVA7OC6T5CTH0IE6AQ8SIPCAZZ,A3GITKS8VABUNB,3AAPLD8UCDKFF7QQQY4IT7P304STHP,ULAA1,ULAA1,3AAPLD8UCDKFF7QQQY4IT7P304STHP,3AAPLD8UCDKFF7QQQY4IT7P304STHP,271351,271351,,,,,,,,,,
,,,,3,11.452175,0,16,16,188,1,a dining room table with a chandeler above and 2 glasses on the table,a dining room table with a chandeler above and 3 glasses on the table,wolfe2,061_R_glass,7,28,A3GITKS8VABUNB,2021-01-25_22h19.10.564,MetaAwareness,2020.1.2,Win32,60,3WUVMVA7OC6T5CTH0IE6AQ8SIPCAZZ,A3GITKS8VABUNB,3AAPLD8UCDKFF7QQQY4IT7P304STHP,ULAA1,ULAA1,3AAPLD8UCDKFF7QQQY4IT7P304STHP,3AAPLD8UCDKFF7QQQY4IT7P304STHP,271351,271351,,,,,,,,,,
,,,,3,10.23785,0,17,17,143,1,"a bedroom with a bed, tv on a dresser, a large mirror, and a desk and chair.","a bedroom that contains a bed, a tv on a dresser, a large mirror, a desk with four knobs, and a chair.",wolfe2,047_L_handle,3,28,A3GITKS8VABUNB,2021-01-25_22h19.10.564,MetaAwareness,2020.1.2,Win32,60,3WUVMVA7OC6T5CTH0IE6AQ8SIPCAZZ,A3GITKS8VABUNB,3AAPLD8UCDKFF7QQQY4IT7P304STHP,ULAA1,ULAA1,3AAPLD8UCDKFF7QQQY4IT7P304STHP,3AAPLD8UCDKFF7QQQY4IT7P304STHP,271351,271351,,,,,,,,,,
,,,,6,14.151735,0,18,18,326,1,in the dark restaurant there are cozy tables with candles on them.,in the dark restaurant most of the cozy tables have candles on them.,wolfe2,104_R_bottle,3,28,A3GITKS8VABUNB,2021-01-25_22h19.10.564,MetaAwareness,2020.1.2,Win32,60,3WUVMVA7OC6T5CTH0IE6AQ8SIPCAZZ,A3GITKS8VABUNB,3AAPLD8UCDKFF7QQQY4IT7P304STHP,ULAA1,ULAA1,3AAPLD8UCDKFF7QQQY4IT7P304STHP,3AAPLD8UCDKFF7QQQY4IT7P304STHP,271351,271351,,,,,,,,,,
,,,,4,18.415085,0,19,19,397,1,a large black and white living room with a small stool next to the windows,a large black and white living room without a small stool next to the windows,wolfe2,125_L_sofa,5,28,A3GITKS8VABUNB,2021-01-25_22h19.10.564,MetaAwareness,2020.1.2,Win32,60,3WUVMVA7OC6T5CTH0IE6AQ8SIPCAZZ,A3GITKS8VABUNB,3AAPLD8UCDKFF7QQQY4IT7P304STHP,ULAA1,ULAA1,3AAPLD8UCDKFF7QQQY4IT7P304STHP,3AAPLD8UCDKFF7QQQY4IT7P304STHP,271351,271351,,,,,,,,,,
,,,,1,9.517325,0,20,20,334,1,inside a building with something hanging up on the wall to get paper towels,a living room with nothing on the wall hung up,wolfe2,106_R_toweldispenser,1,28,A3GITKS8VABUNB,2021-01-25_22h19.10.564,MetaAwareness,2020.1.2,Win32,60,3WUVMVA7OC6T5CTH0IE6AQ8SIPCAZZ,A3GITKS8VABUNB,3AAPLD8UCDKFF7QQQY4IT7P304STHP,ULAA1,ULAA1,3AAPLD8UCDKFF7QQQY4IT7P304STHP,3AAPLD8UCDKFF7QQQY4IT7P304STHP,271351,271351,,,,,,,,,,
,,,,5,15.200455,0,21,21,290,1,"a darky, fancy restroom with deep red walls and gold trim mirrors","a dark, fancy restroom with deep red walls, gold trim mirrors and a white frame",wolfe2,091_R_airfreshener,2,28,A3GITKS8VABUNB,2021-01-25_22h19.10.564,MetaAwareness,2020.1.2,Win32,60,3WUVMVA7OC6T5CTH0IE6AQ8SIPCAZZ,A3GITKS8VABUNB,3AAPLD8UCDKFF7QQQY4IT7P304STHP,ULAA1,ULAA1,3AAPLD8UCDKFF7QQQY4IT7P304STHP,3AAPLD8UCDKFF7QQQY4IT7P304STHP,271351,271351,,,,,,,,,,
,,,,5,7.782445,0,22,22,311,1,"a bathroom that has a long mirror, a large sink with two faucets and a mirror attached to the left","a bathroom that has a long mirror, a large sink with two faucets and a bare wall on the left",wolfe2,100_L_mirror,4,28,A3GITKS8VABUNB,2021-01-25_22h19.10.564,MetaAwareness,2020.1.2,Win32,60,3WUVMVA7OC6T5CTH0IE6AQ8SIPCAZZ,A3GITKS8VABUNB,3AAPLD8UCDKFF7QQQY4IT7P304STHP,ULAA1,ULAA1,3AAPLD8UCDKFF7QQQY4IT7P304STHP,3AAPLD8UCDKFF7QQQY4IT7P304STHP,271351,271351,,,,,,,,,,
,,,,5,6.354655,0,23,23,124,1,a dining room with wooden furnature and two photos haning on the wall,a dining room with wooden furnature and three photos hanging on the wall,wolfe2,040_R_painting,5,28,A3GITKS8VABUNB,2021-01-25_22h19.10.564,MetaAwareness,2020.1.2,Win32,60,3WUVMVA7OC6T5CTH0IE6AQ8SIPCAZZ,A3GITKS8VABUNB,3AAPLD8UCDKFF7QQQY4IT7P304STHP,ULAA1,ULAA1,3AAPLD8UCDKFF7QQQY4IT7P304STHP,3AAPLD8UCDKFF7QQQY4IT7P304STHP,271351,271351,,,,,,,,,,
,,,,3,9.410135,0,24,24,400,1,a modern living room with a three-pillared sculpture under the television.,a modern living room with nothing inder the television.,wolfe2,126_L_candles,1,28,A3GITKS8VABUNB,2021-01-25_22h19.10.564,MetaAwareness,2020.1.2,Win32,60,3WUVMVA7OC6T5CTH0IE6AQ8SIPCAZZ,A3GITKS8VABUNB,3AAPLD8UCDKFF7QQQY4IT7P304STHP,ULAA1,ULAA1,3AAPLD8UCDKFF7QQQY4IT7P304STHP,3AAPLD8UCDKFF7QQQY4IT7P304STHP,271351,271351,,,,,,,,,,
,,,,5,5.52078,0,25,25,26,1,a blue bathroom that has a bottle resting on the window sill,a blue bathroom that has two bottles resting on the window sill,wolfe2,008_L_bottle,3,28,A3GITKS8VABUNB,2021-01-25_22h19.10.564,MetaAwareness,2020.1.2,Win32,60,3WUVMVA7OC6T5CTH0IE6AQ8SIPCAZZ,A3GITKS8VABUNB,3AAPLD8UCDKFF7QQQY4IT7P304STHP,ULAA1,ULAA1,3AAPLD8UCDKFF7QQQY4IT7P304STHP,3AAPLD8UCDKFF7QQQY4IT7P304STHP,271351,271351,,,,,,,,,,
,,,,5,7.0274,0,26,26,223,1,a white modern looking living room with 1 hanging lamp on the wall,a white modern looking living room with 2 hanging lamps on the wall,wolfe2,070_R_lamp,1,28,A3GITKS8VABUNB,2021-01-25_22h19.10.564,MetaAwareness,2020.1.2,Win32,60,3WUVMVA7OC6T5CTH0IE6AQ8SIPCAZZ,A3GITKS8VABUNB,3AAPLD8UCDKFF7QQQY4IT7P304STHP,ULAA1,ULAA1,3AAPLD8UCDKFF7QQQY4IT7P304STHP,3AAPLD8UCDKFF7QQQY4IT7P304STHP,271351,271351,,,,,,,,,,
,,,,5,11.952325,0,27,27,385,1,a roomy and spacious room that encourages relaxtion.  appears to have small chairs for visitors to relax in.,a roomy and spacious place that encourages people to think and act quietly while they relax.  they appear to be missing a chair in this view.,wolfe2,122_R_chair,2,28,A3GITKS8VABUNB,2021-01-25_22h19.10.564,MetaAwareness,2020.1.2,Win32,60,3WUVMVA7OC6T5CTH0IE6AQ8SIPCAZZ,A3GITKS8VABUNB,3AAPLD8UCDKFF7QQQY4IT7P304STHP,ULAA1,ULAA1,3AAPLD8UCDKFF7QQQY4IT7P304STHP,3AAPLD8UCDKFF7QQQY4IT7P304STHP,271351,271351,,,,,,,,,,
,,,,1,5.13317,0,28,28,250,1,water pipe not available in this,water pipe has installed,wolfe2,078_R_faucet,2,28,A3GITKS8VABUNB,2021-01-25_22h19.10.564,MetaAwareness,2020.1.2,Win32,60,3WUVMVA7OC6T5CTH0IE6AQ8SIPCAZZ,A3GITKS8VABUNB,3AAPLD8UCDKFF7QQQY4IT7P304STHP,ULAA1,ULAA1,3AAPLD8UCDKFF7QQQY4IT7P304STHP,3AAPLD8UCDKFF7QQQY4IT7P304STHP,271351,271351,,,,,,,,,,
,,,,5,4.949545,0,29,29,104,1,a bedroom with a white nighstand and two drawers,a bedroom with a white nightstand and three drawers,wolfe2,034_R_handle,2,28,A3GITKS8VABUNB,2021-01-25_22h19.10.564,MetaAwareness,2020.1.2,Win32,60,3WUVMVA7OC6T5CTH0IE6AQ8SIPCAZZ,A3GITKS8VABUNB,3AAPLD8UCDKFF7QQQY4IT7P304STHP,ULAA1,ULAA1,3AAPLD8UCDKFF7QQQY4IT7P304STHP,3AAPLD8UCDKFF7QQQY4IT7P304STHP,271351,271351,,,,,,,,,,
,,,,,,,,,,,,,,,,28,A3GITKS8VABUNB,2021-01-25_22h19.10.564,MetaAwareness,2020.1.2,Win32,60,3WUVMVA7OC6T5CTH0IE6AQ8SIPCAZZ,A3GITKS8VABUNB,3AAPLD8UCDKFF7QQQY4IT7P304STHP,ULAA1,ULAA1,3AAPLD8UCDKFF7QQQY4IT7P304STHP,3AAPLD8UCDKFF7QQQY4IT7P304STHP,271351,271351,6,8.508765,someone laying underneath a blue beach umbrella on a crowded beach,someone laying underneath a blue beach umbrella on a crowded beach,same,1,8.050655,members of a marching band crossing a track that all have feather plumes at the front of their hats,a cluttered and rustic looking cafe with 10 hanging lights,different
