consent_response.keys,consent_response.rt,key_resp_2.keys,key_resp_2.rt,user_resp.keys,user_resp.rt,trials.thisRepN,trials.thisTrialN,trials.thisN,trials.thisIndex,trials.ran,image_1_text,image_2_text,database,image,number,age,worker_ID,date,expName,psychopyVersion,OS,frameRate,hitId,workerId,assignmentId,a,tp_a,b,tp_b,c,tp_c,catch_same_resp.keys,catch_same_resp.rt,image_1_text_catch_same,image_2_text_catch_same,image_catch_same,catch_different_resp.keys,catch_different_resp.rt,image_1_text_catch_different,image_2_text_catch_different,image_catch_different
space,5.232,space,1.271,5,2.796,0,0,0,34,1,bedroom with pictures across the bed and one candle in a holder beside the bed on the right.,there are now two candles beside the bed on the right side.,wolfe2,010_R_candle,1,30,A3JNXJ5KJ9POKC,2021-01-25_19h48.02.928,MetaAwareness,2020.1.2,Win32,60,3VIVIU06FLF8CNDWXHGPJM02GTTMIS,A3JNXJ5KJ9POKC,3OCHAWUVGPNDYE0I1T8CV2Q15GWKXD,VACO1,VACO1,3OCHAWUVGPNDYE0I1T8CV2Q15GWKXD,3OCHAWUVGPNDYE0I1T8CV2Q15GWKXD,271351,271351,,,,,,,,,,
,,,,6,1.498,0,1,1,168,1,"an upscale, modern living room with a gray couch","an upscale, modern living room with a gray couch, a blanket a magazine lays on the couch",wolfe2,056_R_comforter,6,30,A3JNXJ5KJ9POKC,2021-01-25_19h48.02.928,MetaAwareness,2020.1.2,Win32,60,3VIVIU06FLF8CNDWXHGPJM02GTTMIS,A3JNXJ5KJ9POKC,3OCHAWUVGPNDYE0I1T8CV2Q15GWKXD,VACO1,VACO1,3OCHAWUVGPNDYE0I1T8CV2Q15GWKXD,3OCHAWUVGPNDYE0I1T8CV2Q15GWKXD,271351,271351,,,,,,,,,,
,,,,4,1.746,0,2,2,247,1,the beige wall is waiting for the right decor to liven the bathroom up abit.,"the decor that is in this image, seems to promote a healthy body image.  the space is nice and roomy.",wolfe2,076_R_hook,1,30,A3JNXJ5KJ9POKC,2021-01-25_19h48.02.928,MetaAwareness,2020.1.2,Win32,60,3VIVIU06FLF8CNDWXHGPJM02GTTMIS,A3JNXJ5KJ9POKC,3OCHAWUVGPNDYE0I1T8CV2Q15GWKXD,VACO1,VACO1,3OCHAWUVGPNDYE0I1T8CV2Q15GWKXD,3OCHAWUVGPNDYE0I1T8CV2Q15GWKXD,271351,271351,,,,,,,,,,
,,,,5,1.18,0,3,3,315,1,a sophisticated and modern bathroom containing a lighted shelf with a red cup and other stemware and vessels and containers on it,a sophisticated and modern bathroom containing a lighted shelf with stemware and other vessels and containers on it,wolfe2,101_L_cup,4,30,A3JNXJ5KJ9POKC,2021-01-25_19h48.02.928,MetaAwareness,2020.1.2,Win32,60,3VIVIU06FLF8CNDWXHGPJM02GTTMIS,A3JNXJ5KJ9POKC,3OCHAWUVGPNDYE0I1T8CV2Q15GWKXD,VACO1,VACO1,3OCHAWUVGPNDYE0I1T8CV2Q15GWKXD,3OCHAWUVGPNDYE0I1T8CV2Q15GWKXD,271351,271351,,,,,,,,,,
,,,,4,1.743,0,4,4,164,1,a beautiful white sofa,a beautiful white sofa with a towel at the end of sofa.,wolfe2,056_L_comforter,4,30,A3JNXJ5KJ9POKC,2021-01-25_19h48.02.928,MetaAwareness,2020.1.2,Win32,60,3VIVIU06FLF8CNDWXHGPJM02GTTMIS,A3JNXJ5KJ9POKC,3OCHAWUVGPNDYE0I1T8CV2Q15GWKXD,VACO1,VACO1,3OCHAWUVGPNDYE0I1T8CV2Q15GWKXD,3OCHAWUVGPNDYE0I1T8CV2Q15GWKXD,271351,271351,,,,,,,,,,
,,,,6,1.28,0,5,5,345,1,a patio with two plants that overlooks a pool outside,a patio with one plant that overlooks a pool outside,wolfe2,110_R_plant,1,30,A3JNXJ5KJ9POKC,2021-01-25_19h48.02.928,MetaAwareness,2020.1.2,Win32,60,3VIVIU06FLF8CNDWXHGPJM02GTTMIS,A3JNXJ5KJ9POKC,3OCHAWUVGPNDYE0I1T8CV2Q15GWKXD,VACO1,VACO1,3OCHAWUVGPNDYE0I1T8CV2Q15GWKXD,3OCHAWUVGPNDYE0I1T8CV2Q15GWKXD,271351,271351,,,,,,,,,,
,,,,5,0.926,0,6,6,373,1,in a living room there is are three objects on a shelf above the fireplace,in a living room there are two objects on a shelf above the fireplace,wolfe2,120_L_art,1,30,A3JNXJ5KJ9POKC,2021-01-25_19h48.02.928,MetaAwareness,2020.1.2,Win32,60,3VIVIU06FLF8CNDWXHGPJM02GTTMIS,A3JNXJ5KJ9POKC,3OCHAWUVGPNDYE0I1T8CV2Q15GWKXD,VACO1,VACO1,3OCHAWUVGPNDYE0I1T8CV2Q15GWKXD,3OCHAWUVGPNDYE0I1T8CV2Q15GWKXD,271351,271351,,,,,,,,,,
,,,,4,1.208,0,7,7,356,1,it is a picture of a kitchen with a plant next to the oven and under a light.,it is a picture of a kitchen with nothing on the counter next to the oven.,wolfe2,115_R_pot,3,30,A3JNXJ5KJ9POKC,2021-01-25_19h48.02.928,MetaAwareness,2020.1.2,Win32,60,3VIVIU06FLF8CNDWXHGPJM02GTTMIS,A3JNXJ5KJ9POKC,3OCHAWUVGPNDYE0I1T8CV2Q15GWKXD,VACO1,VACO1,3OCHAWUVGPNDYE0I1T8CV2Q15GWKXD,3OCHAWUVGPNDYE0I1T8CV2Q15GWKXD,271351,271351,,,,,,,,,,
,,,,6,1.093,0,8,8,96,1,this modern styled bathroom has two round shelves with a bottle on the left of the mirror,this modern styled bathroom has two round shelves with two bottles on the left of the mirror,wolfe2,032_R_bottle,2,30,A3JNXJ5KJ9POKC,2021-01-25_19h48.02.928,MetaAwareness,2020.1.2,Win32,60,3VIVIU06FLF8CNDWXHGPJM02GTTMIS,A3JNXJ5KJ9POKC,3OCHAWUVGPNDYE0I1T8CV2Q15GWKXD,VACO1,VACO1,3OCHAWUVGPNDYE0I1T8CV2Q15GWKXD,3OCHAWUVGPNDYE0I1T8CV2Q15GWKXD,271351,271351,,,,,,,,,,
,,,,5,1.265,0,9,9,137,1,a blue and white bathroom with a glass shower and a large jacuzzi tub that does not have any lights on the front right side,a blue and white bathroom with a glass shower and a large jacuzzitub that has a light on the front right side,wolfe2,044_R_light,4,30,A3JNXJ5KJ9POKC,2021-01-25_19h48.02.928,MetaAwareness,2020.1.2,Win32,60,3VIVIU06FLF8CNDWXHGPJM02GTTMIS,A3JNXJ5KJ9POKC,3OCHAWUVGPNDYE0I1T8CV2Q15GWKXD,VACO1,VACO1,3OCHAWUVGPNDYE0I1T8CV2Q15GWKXD,3OCHAWUVGPNDYE0I1T8CV2Q15GWKXD,271351,271351,,,,,,,,,,
,,,,4,1.177,0,10,10,339,1,a closet full of womens clothes with a dresser with a blue decoration on it,a closet full of womens clothes with a dresser with hairbrushes on it and no decor,wolfe2,108_L_boa,2,30,A3JNXJ5KJ9POKC,2021-01-25_19h48.02.928,MetaAwareness,2020.1.2,Win32,60,3VIVIU06FLF8CNDWXHGPJM02GTTMIS,A3JNXJ5KJ9POKC,3OCHAWUVGPNDYE0I1T8CV2Q15GWKXD,VACO1,VACO1,3OCHAWUVGPNDYE0I1T8CV2Q15GWKXD,3OCHAWUVGPNDYE0I1T8CV2Q15GWKXD,271351,271351,,,,,,,,,,
,,,,6,1.168,0,11,11,233,1,a dresser in a bedroom with a handle missing from the lowest right corner drawer,a dresser in a bedroom with all of it's handles on it,wolfe2,072_R_handle,2,30,A3JNXJ5KJ9POKC,2021-01-25_19h48.02.928,MetaAwareness,2020.1.2,Win32,60,3VIVIU06FLF8CNDWXHGPJM02GTTMIS,A3JNXJ5KJ9POKC,3OCHAWUVGPNDYE0I1T8CV2Q15GWKXD,VACO1,VACO1,3OCHAWUVGPNDYE0I1T8CV2Q15GWKXD,3OCHAWUVGPNDYE0I1T8CV2Q15GWKXD,271351,271351,,,,,,,,,,
,,,,3,1.064,0,12,12,289,1,a burgundy colored bathroom with three sinks and a white box on the back wall.,a burgundy colored bathroom with three sinks and no white box on the back wall,wolfe2,091_L_airfreshener,2,30,A3JNXJ5KJ9POKC,2021-01-25_19h48.02.928,MetaAwareness,2020.1.2,Win32,60,3VIVIU06FLF8CNDWXHGPJM02GTTMIS,A3JNXJ5KJ9POKC,3OCHAWUVGPNDYE0I1T8CV2Q15GWKXD,VACO1,VACO1,3OCHAWUVGPNDYE0I1T8CV2Q15GWKXD,3OCHAWUVGPNDYE0I1T8CV2Q15GWKXD,271351,271351,,,,,,,,,,
,,,,5,0.915,0,13,13,23,1,iin a bathroom there is a sink with no soap dish next to a yellow bucker,in a bathroom there is a  sink with a soapdish with soap next to a yellow bucket,wolfe2,007_L_soap,1,30,A3JNXJ5KJ9POKC,2021-01-25_19h48.02.928,MetaAwareness,2020.1.2,Win32,60,3VIVIU06FLF8CNDWXHGPJM02GTTMIS,A3JNXJ5KJ9POKC,3OCHAWUVGPNDYE0I1T8CV2Q15GWKXD,VACO1,VACO1,3OCHAWUVGPNDYE0I1T8CV2Q15GWKXD,3OCHAWUVGPNDYE0I1T8CV2Q15GWKXD,271351,271351,,,,,,,,,,
,,,,4,0.554,0,14,14,260,1,there is nothing appear in the under the stool set chamber,a small piece appear under the chamber,wolfe2,081_R_football,1,30,A3JNXJ5KJ9POKC,2021-01-25_19h48.02.928,MetaAwareness,2020.1.2,Win32,60,3VIVIU06FLF8CNDWXHGPJM02GTTMIS,A3JNXJ5KJ9POKC,3OCHAWUVGPNDYE0I1T8CV2Q15GWKXD,VACO1,VACO1,3OCHAWUVGPNDYE0I1T8CV2Q15GWKXD,3OCHAWUVGPNDYE0I1T8CV2Q15GWKXD,271351,271351,,,,,,,,,,
,,,,4,1.171,0,15,15,170,1,an empty library with a clear walk way,an empty library with a trash can in the walk way,wolfe2,057_L_bin,2,30,A3JNXJ5KJ9POKC,2021-01-25_19h48.02.928,MetaAwareness,2020.1.2,Win32,60,3VIVIU06FLF8CNDWXHGPJM02GTTMIS,A3JNXJ5KJ9POKC,3OCHAWUVGPNDYE0I1T8CV2Q15GWKXD,VACO1,VACO1,3OCHAWUVGPNDYE0I1T8CV2Q15GWKXD,3OCHAWUVGPNDYE0I1T8CV2Q15GWKXD,271351,271351,,,,,,,,,,
,,,,6,0.129,0,16,16,173,1,"the library features large chandeliers, wide hallways, and five trash cans","the library features large chandeliers, wide hallways, and six trash cans",wolfe2,057_R_bin,4,30,A3JNXJ5KJ9POKC,2021-01-25_19h48.02.928,MetaAwareness,2020.1.2,Win32,60,3VIVIU06FLF8CNDWXHGPJM02GTTMIS,A3JNXJ5KJ9POKC,3OCHAWUVGPNDYE0I1T8CV2Q15GWKXD,VACO1,VACO1,3OCHAWUVGPNDYE0I1T8CV2Q15GWKXD,3OCHAWUVGPNDYE0I1T8CV2Q15GWKXD,271351,271351,,,,,,,,,,
,,,,5,0.067,0,17,17,3,1,a restaurant with a table missing a napkin,a restaurant with a table that has napkins and place settings all around,wolfe2,002_L_napkin,3,30,A3JNXJ5KJ9POKC,2021-01-25_19h48.02.928,MetaAwareness,2020.1.2,Win32,60,3VIVIU06FLF8CNDWXHGPJM02GTTMIS,A3JNXJ5KJ9POKC,3OCHAWUVGPNDYE0I1T8CV2Q15GWKXD,VACO1,VACO1,3OCHAWUVGPNDYE0I1T8CV2Q15GWKXD,3OCHAWUVGPNDYE0I1T8CV2Q15GWKXD,271351,271351,,,,,,,,,,
,,,,4,0.086,0,18,18,82,1,a clean living room with 5 colorful statues,a clean living room with 6 colorful statues,wolfe2,025_L_vase,1,30,A3JNXJ5KJ9POKC,2021-01-25_19h48.02.928,MetaAwareness,2020.1.2,Win32,60,3VIVIU06FLF8CNDWXHGPJM02GTTMIS,A3JNXJ5KJ9POKC,3OCHAWUVGPNDYE0I1T8CV2Q15GWKXD,VACO1,VACO1,3OCHAWUVGPNDYE0I1T8CV2Q15GWKXD,3OCHAWUVGPNDYE0I1T8CV2Q15GWKXD,271351,271351,,,,,,,,,,
,,,,6,0.4,0,19,19,48,1,an indoor-outdoor bar seating area with three wall-mounted lights,an indoor-outdoor bar seating area with four wall-mounted lights,wolfe2,014_R_lamp,1,30,A3JNXJ5KJ9POKC,2021-01-25_19h48.02.928,MetaAwareness,2020.1.2,Win32,60,3VIVIU06FLF8CNDWXHGPJM02GTTMIS,A3JNXJ5KJ9POKC,3OCHAWUVGPNDYE0I1T8CV2Q15GWKXD,VACO1,VACO1,3OCHAWUVGPNDYE0I1T8CV2Q15GWKXD,3OCHAWUVGPNDYE0I1T8CV2Q15GWKXD,271351,271351,,,,,,,,,,
,,,,4,0.153,0,20,20,275,1,this is a bathroom vanity. to the right of the mirror is a light switch,this is a bathroom vanity. there is no light switch on the wall,wolfe2,085_R_switchboard,8,30,A3JNXJ5KJ9POKC,2021-01-25_19h48.02.928,MetaAwareness,2020.1.2,Win32,60,3VIVIU06FLF8CNDWXHGPJM02GTTMIS,A3JNXJ5KJ9POKC,3OCHAWUVGPNDYE0I1T8CV2Q15GWKXD,VACO1,VACO1,3OCHAWUVGPNDYE0I1T8CV2Q15GWKXD,3OCHAWUVGPNDYE0I1T8CV2Q15GWKXD,271351,271351,,,,,,,,,,
,,,,2,0.113,0,21,21,255,1,a white kitchen with white bowls and plates on every shelf,a white kitchen with white bowls and plates on all but one shelf,wolfe2,079_R_bowl,3,30,A3JNXJ5KJ9POKC,2021-01-25_19h48.02.928,MetaAwareness,2020.1.2,Win32,60,3VIVIU06FLF8CNDWXHGPJM02GTTMIS,A3JNXJ5KJ9POKC,3OCHAWUVGPNDYE0I1T8CV2Q15GWKXD,VACO1,VACO1,3OCHAWUVGPNDYE0I1T8CV2Q15GWKXD,3OCHAWUVGPNDYE0I1T8CV2Q15GWKXD,271351,271351,,,,,,,,,,
,,,,1,1.822,0,22,22,267,1,yopen door to the balcony looking at the water with a scope,open door to the balcony looking at the water with a scope and mirror on the wall,wolfe2,084_L_light,3,30,A3JNXJ5KJ9POKC,2021-01-25_19h48.02.928,MetaAwareness,2020.1.2,Win32,60,3VIVIU06FLF8CNDWXHGPJM02GTTMIS,A3JNXJ5KJ9POKC,3OCHAWUVGPNDYE0I1T8CV2Q15GWKXD,VACO1,VACO1,3OCHAWUVGPNDYE0I1T8CV2Q15GWKXD,3OCHAWUVGPNDYE0I1T8CV2Q15GWKXD,271351,271351,,,,,,,,,,
,,,,3,0.216,0,23,23,234,1,a chic black and white bedroom with a large dresser that has five drawer handles and is missing one in the bottom right,a chic black and white bedroom with a large dresser tha has six drawers,wolfe2,072_R_handle,3,30,A3JNXJ5KJ9POKC,2021-01-25_19h48.02.928,MetaAwareness,2020.1.2,Win32,60,3VIVIU06FLF8CNDWXHGPJM02GTTMIS,A3JNXJ5KJ9POKC,3OCHAWUVGPNDYE0I1T8CV2Q15GWKXD,VACO1,VACO1,3OCHAWUVGPNDYE0I1T8CV2Q15GWKXD,3OCHAWUVGPNDYE0I1T8CV2Q15GWKXD,271351,271351,,,,,,,,,,
,,,,5,0.155,0,24,24,91,1,an upscale bathroom with a space between cabinets.,an upscale bathroom with a counter top between cabinets.,wolfe2,030_L_drawer,5,30,A3JNXJ5KJ9POKC,2021-01-25_19h48.02.928,MetaAwareness,2020.1.2,Win32,60,3VIVIU06FLF8CNDWXHGPJM02GTTMIS,A3JNXJ5KJ9POKC,3OCHAWUVGPNDYE0I1T8CV2Q15GWKXD,VACO1,VACO1,3OCHAWUVGPNDYE0I1T8CV2Q15GWKXD,3OCHAWUVGPNDYE0I1T8CV2Q15GWKXD,271351,271351,,,,,,,,,,
,,,,4,0.009,0,25,25,153,1,4 speakers  are available in the room,there is 5 speakers available in the room,wolfe2,052_R_speaker,1,30,A3JNXJ5KJ9POKC,2021-01-25_19h48.02.928,MetaAwareness,2020.1.2,Win32,60,3VIVIU06FLF8CNDWXHGPJM02GTTMIS,A3JNXJ5KJ9POKC,3OCHAWUVGPNDYE0I1T8CV2Q15GWKXD,VACO1,VACO1,3OCHAWUVGPNDYE0I1T8CV2Q15GWKXD,3OCHAWUVGPNDYE0I1T8CV2Q15GWKXD,271351,271351,,,,,,,,,,
,,,,3,0.133,0,26,26,360,1,there is a object behind a potted plant in this rustic room,there is just a wooden floor behind this potted plant in the rustic room,wolfe2,116_R_basket,4,30,A3JNXJ5KJ9POKC,2021-01-25_19h48.02.928,MetaAwareness,2020.1.2,Win32,60,3VIVIU06FLF8CNDWXHGPJM02GTTMIS,A3JNXJ5KJ9POKC,3OCHAWUVGPNDYE0I1T8CV2Q15GWKXD,VACO1,VACO1,3OCHAWUVGPNDYE0I1T8CV2Q15GWKXD,3OCHAWUVGPNDYE0I1T8CV2Q15GWKXD,271351,271351,,,,,,,,,,
,,,,3,0.105,0,27,27,98,1,modern bathtub future pad,cicle drawers in cool bathroom,wolfe2,032_R_bottle,5,30,A3JNXJ5KJ9POKC,2021-01-25_19h48.02.928,MetaAwareness,2020.1.2,Win32,60,3VIVIU06FLF8CNDWXHGPJM02GTTMIS,A3JNXJ5KJ9POKC,3OCHAWUVGPNDYE0I1T8CV2Q15GWKXD,VACO1,VACO1,3OCHAWUVGPNDYE0I1T8CV2Q15GWKXD,3OCHAWUVGPNDYE0I1T8CV2Q15GWKXD,271351,271351,,,,,,,,,,
,,,,4,0.043,0,28,28,119,1,a dining area with brown chairs and table,"a dining area with brown chairs, a table, and artwork hanging near the table",wolfe2,038_R_art,4,30,A3JNXJ5KJ9POKC,2021-01-25_19h48.02.928,MetaAwareness,2020.1.2,Win32,60,3VIVIU06FLF8CNDWXHGPJM02GTTMIS,A3JNXJ5KJ9POKC,3OCHAWUVGPNDYE0I1T8CV2Q15GWKXD,VACO1,VACO1,3OCHAWUVGPNDYE0I1T8CV2Q15GWKXD,3OCHAWUVGPNDYE0I1T8CV2Q15GWKXD,271351,271351,,,,,,,,,,
,,,,5,0.017,0,29,29,139,1,hotel room with yellow accent furniture,hotel room with yellow accent furniture. there is an ipod charger and speaker on the nightstand,wolfe2,045_L_musicdock,4,30,A3JNXJ5KJ9POKC,2021-01-25_19h48.02.928,MetaAwareness,2020.1.2,Win32,60,3VIVIU06FLF8CNDWXHGPJM02GTTMIS,A3JNXJ5KJ9POKC,3OCHAWUVGPNDYE0I1T8CV2Q15GWKXD,VACO1,VACO1,3OCHAWUVGPNDYE0I1T8CV2Q15GWKXD,3OCHAWUVGPNDYE0I1T8CV2Q15GWKXD,271351,271351,,,,,,,,,,
,,,,,,,,,,,,,,,,30,A3JNXJ5KJ9POKC,2021-01-25_19h48.02.928,MetaAwareness,2020.1.2,Win32,60,3VIVIU06FLF8CNDWXHGPJM02GTTMIS,A3JNXJ5KJ9POKC,3OCHAWUVGPNDYE0I1T8CV2Q15GWKXD,VACO1,VACO1,3OCHAWUVGPNDYE0I1T8CV2Q15GWKXD,3OCHAWUVGPNDYE0I1T8CV2Q15GWKXD,271351,271351,2,0.198,someone laying underneath a blue beach umbrella on a crowded beach,someone laying underneath a blue beach umbrella on a crowded beach,same,4,0.048,members of a marching band crossing a track that all have feather plumes at the front of their hats,a cluttered and rustic looking cafe with 10 hanging lights,different
