consent_response.keys,consent_response.rt,key_resp_2.keys,key_resp_2.rt,user_resp.keys,user_resp.rt,trials.thisRepN,trials.thisTrialN,trials.thisN,trials.thisIndex,trials.ran,image_1_text,image_2_text,database,image,number,age,worker_ID,date,expName,psychopyVersion,OS,frameRate,hitId,workerId,assignmentId,a,tp_a,b,tp_b,c,tp_c,catch_same_resp.keys,catch_same_resp.rt,image_1_text_catch_same,image_2_text_catch_same,image_catch_same,catch_different_resp.keys,catch_different_resp.rt,image_1_text_catch_different,image_2_text_catch_different,image_catch_different
space,3.43101,space,9.352875,6,26.989755,0,0,0,220,1,a room with two sofas. everything looks very white. there is a single light fixture on the wall beside the mirror over the fireplace.,a room with two sofas. everything is very white. there are two light fixtures beside the mirror over the fireplace.,wolfe2,070_L_lamp,1,35,A3QRZPJT2CT2IK,2021-01-25_20h44.57.826,MetaAwareness,2020.1.2,MacIntel,60,3P520RYKCI9FD7NQZZOHLNDROTRU5J,A3QRZPJT2CT2IK,3S0TNUHWKULF57T014AXBQEIUZWD8T,WN0S1,WN0S1,3S0TNUHWKULF57T014AXBQEIUZWD8T,3S0TNUHWKULF57T014AXBQEIUZWD8T,271351,271351,,,,,,,,,,
,,,,3,9.34193,0,1,1,94,1,"a modern living room with many windows, with just one wooden beam on the ceiling","a modern living room with many windows, with two wooden beams on the ceiling",wolfe2,031_R_log,4,35,A3QRZPJT2CT2IK,2021-01-25_20h44.57.826,MetaAwareness,2020.1.2,MacIntel,60,3P520RYKCI9FD7NQZZOHLNDROTRU5J,A3QRZPJT2CT2IK,3S0TNUHWKULF57T014AXBQEIUZWD8T,WN0S1,WN0S1,3S0TNUHWKULF57T014AXBQEIUZWD8T,3S0TNUHWKULF57T014AXBQEIUZWD8T,271351,271351,,,,,,,,,,
,,,,2,5.99928,0,2,2,306,1,a bedroom with an object in front of the chair,a bedroom with nothing in front of the chair,wolfe2,098_L_slippers,3,35,A3QRZPJT2CT2IK,2021-01-25_20h44.57.826,MetaAwareness,2020.1.2,MacIntel,60,3P520RYKCI9FD7NQZZOHLNDROTRU5J,A3QRZPJT2CT2IK,3S0TNUHWKULF57T014AXBQEIUZWD8T,WN0S1,WN0S1,3S0TNUHWKULF57T014AXBQEIUZWD8T,3S0TNUHWKULF57T014AXBQEIUZWD8T,271351,271351,,,,,,,,,,
,,,,3,6.84719,0,3,3,69,1,in a nice workroom with a fireplace there is a computer desk without a keybord for  the computer,in a nice workroom with a fireplace there is a computer desk with a keyboard in front of a computer,wolfe2,021_L_keyboard,1,35,A3QRZPJT2CT2IK,2021-01-25_20h44.57.826,MetaAwareness,2020.1.2,MacIntel,60,3P520RYKCI9FD7NQZZOHLNDROTRU5J,A3QRZPJT2CT2IK,3S0TNUHWKULF57T014AXBQEIUZWD8T,WN0S1,WN0S1,3S0TNUHWKULF57T014AXBQEIUZWD8T,3S0TNUHWKULF57T014AXBQEIUZWD8T,271351,271351,,,,,,,,,,
,,,,4,16.566075,0,4,4,161,1,bunk bedroom with a red concept in th room with a shinny grey floor,red concept room with bunkbed and table with a blue rug close to the bed,wolfe2,055_R_carpet,5,35,A3QRZPJT2CT2IK,2021-01-25_20h44.57.826,MetaAwareness,2020.1.2,MacIntel,60,3P520RYKCI9FD7NQZZOHLNDROTRU5J,A3QRZPJT2CT2IK,3S0TNUHWKULF57T014AXBQEIUZWD8T,WN0S1,WN0S1,3S0TNUHWKULF57T014AXBQEIUZWD8T,3S0TNUHWKULF57T014AXBQEIUZWD8T,271351,271351,,,,,,,,,,
,,,,3,13.2344,0,5,5,385,1,a roomy and spacious room that encourages relaxtion.  appears to have small chairs for visitors to relax in.,a roomy and spacious place that encourages people to think and act quietly while they relax.  they appear to be missing a chair in this view.,wolfe2,122_R_chair,2,35,A3QRZPJT2CT2IK,2021-01-25_20h44.57.826,MetaAwareness,2020.1.2,MacIntel,60,3P520RYKCI9FD7NQZZOHLNDROTRU5J,A3QRZPJT2CT2IK,3S0TNUHWKULF57T014AXBQEIUZWD8T,WN0S1,WN0S1,3S0TNUHWKULF57T014AXBQEIUZWD8T,3S0TNUHWKULF57T014AXBQEIUZWD8T,271351,271351,,,,,,,,,,
,,,,3,8.179555,0,6,6,138,1,"a bedroom with yellow carpeting and walls, and an empty black table next to the bed","a bedroom with yellow carpeting and walls, and several electronic devices on a black table next to the bed",wolfe2,045_L_musicdock,2,35,A3QRZPJT2CT2IK,2021-01-25_20h44.57.826,MetaAwareness,2020.1.2,MacIntel,60,3P520RYKCI9FD7NQZZOHLNDROTRU5J,A3QRZPJT2CT2IK,3S0TNUHWKULF57T014AXBQEIUZWD8T,WN0S1,WN0S1,3S0TNUHWKULF57T014AXBQEIUZWD8T,3S0TNUHWKULF57T014AXBQEIUZWD8T,271351,271351,,,,,,,,,,
,,,,6,10.20423,0,7,7,110,1,"white dishes sit on a shelf underneath a cabinet in a beautiful, modern kitchen.","white dishes sit on a shelf underneath a cabinet in a beautiful, modern kitchen.",wolfe2,036_L_bowl,3,35,A3QRZPJT2CT2IK,2021-01-25_20h44.57.826,MetaAwareness,2020.1.2,MacIntel,60,3P520RYKCI9FD7NQZZOHLNDROTRU5J,A3QRZPJT2CT2IK,3S0TNUHWKULF57T014AXBQEIUZWD8T,WN0S1,WN0S1,3S0TNUHWKULF57T014AXBQEIUZWD8T,3S0TNUHWKULF57T014AXBQEIUZWD8T,271351,271351,,,,,,,,,,
,,,,5,6.67166,0,8,8,8,1,a beautiful mountain cabin with windows looking out over a lake,a beautiful mountain cabit with windows looking out over a lake that has three white birds swimming in it,wolfe2,003_L_ducks,2,35,A3QRZPJT2CT2IK,2021-01-25_20h44.57.826,MetaAwareness,2020.1.2,MacIntel,60,3P520RYKCI9FD7NQZZOHLNDROTRU5J,A3QRZPJT2CT2IK,3S0TNUHWKULF57T014AXBQEIUZWD8T,WN0S1,WN0S1,3S0TNUHWKULF57T014AXBQEIUZWD8T,3S0TNUHWKULF57T014AXBQEIUZWD8T,271351,271351,,,,,,,,,,
,,,,5,12.840385,0,9,9,183,1,"a bright living room with white walls, a beige sofa and chairs, and tan decorative pillows on the sofa","a bright living room with white walls, a biege sofa and chairs, with tan and dark decorative pillows on the sofa.",wolfe2,060_R_pillow,1,35,A3QRZPJT2CT2IK,2021-01-25_20h44.57.826,MetaAwareness,2020.1.2,MacIntel,60,3P520RYKCI9FD7NQZZOHLNDROTRU5J,A3QRZPJT2CT2IK,3S0TNUHWKULF57T014AXBQEIUZWD8T,WN0S1,WN0S1,3S0TNUHWKULF57T014AXBQEIUZWD8T,3S0TNUHWKULF57T014AXBQEIUZWD8T,271351,271351,,,,,,,,,,
,,,,5,8.55184,0,10,10,401,1,a media room with a large angled sofa coverd with black fabric. the sofa faces a media wall with screen and shelving. there's a candle set on the lowest shelf.,a media room with a large angled sofa covered with black fabric. the sofa faces a media wall with screen and shelving.,wolfe2,126_L_candles,2,35,A3QRZPJT2CT2IK,2021-01-25_20h44.57.826,MetaAwareness,2020.1.2,MacIntel,60,3P520RYKCI9FD7NQZZOHLNDROTRU5J,A3QRZPJT2CT2IK,3S0TNUHWKULF57T014AXBQEIUZWD8T,WN0S1,WN0S1,3S0TNUHWKULF57T014AXBQEIUZWD8T,3S0TNUHWKULF57T014AXBQEIUZWD8T,271351,271351,,,,,,,,,,
,,,,5,7.153965,0,11,11,262,1,a tidy master bedroom with a hanging light and a white nightstand with an open shelf,a tidy master bedroom with a hanging light and a white nightstand with a bowl on the open shelf,wolfe2,082_L_bowl,3,35,A3QRZPJT2CT2IK,2021-01-25_20h44.57.826,MetaAwareness,2020.1.2,MacIntel,60,3P520RYKCI9FD7NQZZOHLNDROTRU5J,A3QRZPJT2CT2IK,3S0TNUHWKULF57T014AXBQEIUZWD8T,WN0S1,WN0S1,3S0TNUHWKULF57T014AXBQEIUZWD8T,3S0TNUHWKULF57T014AXBQEIUZWD8T,271351,271351,,,,,,,,,,
,,,,4,5.230675,0,12,12,100,1,a bedroom with a vase on the shelf,a bedroom without a vase on the shelf,wolfe2,033_R_vase,1,35,A3QRZPJT2CT2IK,2021-01-25_20h44.57.826,MetaAwareness,2020.1.2,MacIntel,60,3P520RYKCI9FD7NQZZOHLNDROTRU5J,A3QRZPJT2CT2IK,3S0TNUHWKULF57T014AXBQEIUZWD8T,WN0S1,WN0S1,3S0TNUHWKULF57T014AXBQEIUZWD8T,3S0TNUHWKULF57T014AXBQEIUZWD8T,271351,271351,,,,,,,,,,
,,,,5,8.570105,0,13,13,31,1,"a bedroom with a stool, blanket and book.","a bedroom with a stool, blanket, book and rug underneath.",wolfe2,009_R_carpet,1,35,A3QRZPJT2CT2IK,2021-01-25_20h44.57.826,MetaAwareness,2020.1.2,MacIntel,60,3P520RYKCI9FD7NQZZOHLNDROTRU5J,A3QRZPJT2CT2IK,3S0TNUHWKULF57T014AXBQEIUZWD8T,WN0S1,WN0S1,3S0TNUHWKULF57T014AXBQEIUZWD8T,3S0TNUHWKULF57T014AXBQEIUZWD8T,271351,271351,,,,,,,,,,
,,,,5,8.158865,0,14,14,215,1,high end bathroom with a tub that had flowers in it. there are two holders on thewall next to the tub,high end bathroom with a tub that has flowers in it. there are three holders on the wall next to the tub,wolfe2,068_R_faucet,4,35,A3QRZPJT2CT2IK,2021-01-25_20h44.57.826,MetaAwareness,2020.1.2,MacIntel,60,3P520RYKCI9FD7NQZZOHLNDROTRU5J,A3QRZPJT2CT2IK,3S0TNUHWKULF57T014AXBQEIUZWD8T,WN0S1,WN0S1,3S0TNUHWKULF57T014AXBQEIUZWD8T,3S0TNUHWKULF57T014AXBQEIUZWD8T,271351,271351,,,,,,,,,,
,,,,4,6.582425,0,15,15,355,1,a kitchen and cabinets with a plant on the counter,a kitchen and cabinets with a large spacious counter,wolfe2,115_R_pot,2,35,A3QRZPJT2CT2IK,2021-01-25_20h44.57.826,MetaAwareness,2020.1.2,MacIntel,60,3P520RYKCI9FD7NQZZOHLNDROTRU5J,A3QRZPJT2CT2IK,3S0TNUHWKULF57T014AXBQEIUZWD8T,WN0S1,WN0S1,3S0TNUHWKULF57T014AXBQEIUZWD8T,3S0TNUHWKULF57T014AXBQEIUZWD8T,271351,271351,,,,,,,,,,
,,,,4,0.52477,0,16,16,297,1,a living room that has a fireplace looking thing that has candles on the shelf that are red,a living room that has a fireplace looking mantle that has white candles on the shelf,wolfe2,095_L_candle,3,35,A3QRZPJT2CT2IK,2021-01-25_20h44.57.826,MetaAwareness,2020.1.2,MacIntel,60,3P520RYKCI9FD7NQZZOHLNDROTRU5J,A3QRZPJT2CT2IK,3S0TNUHWKULF57T014AXBQEIUZWD8T,WN0S1,WN0S1,3S0TNUHWKULF57T014AXBQEIUZWD8T,3S0TNUHWKULF57T014AXBQEIUZWD8T,271351,271351,,,,,,,,,,
,,,,3,8.219525,0,17,17,235,1,a dresser without a handle pull,a dresser with a handle pull,wolfe2,072_R_handle,5,35,A3QRZPJT2CT2IK,2021-01-25_20h44.57.826,MetaAwareness,2020.1.2,MacIntel,60,3P520RYKCI9FD7NQZZOHLNDROTRU5J,A3QRZPJT2CT2IK,3S0TNUHWKULF57T014AXBQEIUZWD8T,WN0S1,WN0S1,3S0TNUHWKULF57T014AXBQEIUZWD8T,3S0TNUHWKULF57T014AXBQEIUZWD8T,271351,271351,,,,,,,,,,
,,,,5,11.039725,0,18,18,139,1,hotel room with yellow accent furniture,hotel room with yellow accent furniture. there is an ipod charger and speaker on the nightstand,wolfe2,045_L_musicdock,4,35,A3QRZPJT2CT2IK,2021-01-25_20h44.57.826,MetaAwareness,2020.1.2,MacIntel,60,3P520RYKCI9FD7NQZZOHLNDROTRU5J,A3QRZPJT2CT2IK,3S0TNUHWKULF57T014AXBQEIUZWD8T,WN0S1,WN0S1,3S0TNUHWKULF57T014AXBQEIUZWD8T,3S0TNUHWKULF57T014AXBQEIUZWD8T,271351,271351,,,,,,,,,,
,,,,3,5.781355,0,19,19,151,1,a family photo with a mini clock next to it.,a family photo with a mini clock and perfume bottle next to it.,wolfe2,051_L_owl,6,35,A3QRZPJT2CT2IK,2021-01-25_20h44.57.826,MetaAwareness,2020.1.2,MacIntel,60,3P520RYKCI9FD7NQZZOHLNDROTRU5J,A3QRZPJT2CT2IK,3S0TNUHWKULF57T014AXBQEIUZWD8T,WN0S1,WN0S1,3S0TNUHWKULF57T014AXBQEIUZWD8T,3S0TNUHWKULF57T014AXBQEIUZWD8T,271351,271351,,,,,,,,,,
,,,,4,6.492825,0,20,20,389,1,an enclosed patio with a hottub that has potted plants at three corners of the tub.,an enclosed patio with a hottub that has potted plants at two corners of the tub.,wolfe2,123_L_pot,3,35,A3QRZPJT2CT2IK,2021-01-25_20h44.57.826,MetaAwareness,2020.1.2,MacIntel,60,3P520RYKCI9FD7NQZZOHLNDROTRU5J,A3QRZPJT2CT2IK,3S0TNUHWKULF57T014AXBQEIUZWD8T,WN0S1,WN0S1,3S0TNUHWKULF57T014AXBQEIUZWD8T,3S0TNUHWKULF57T014AXBQEIUZWD8T,271351,271351,,,,,,,,,,
,,,,5,8.67085,0,21,21,256,1,"a yellow kitchen with countertops and an island, there is one plant on the counter",a yellow kitchen with countertops and an island and two plants sitting on the counter,wolfe2,080_L_plant,3,35,A3QRZPJT2CT2IK,2021-01-25_20h44.57.826,MetaAwareness,2020.1.2,MacIntel,60,3P520RYKCI9FD7NQZZOHLNDROTRU5J,A3QRZPJT2CT2IK,3S0TNUHWKULF57T014AXBQEIUZWD8T,WN0S1,WN0S1,3S0TNUHWKULF57T014AXBQEIUZWD8T,3S0TNUHWKULF57T014AXBQEIUZWD8T,271351,271351,,,,,,,,,,
,,,,4,4.46416,0,22,22,384,1,in a cafe there is a table with three chairs,in a cafe there is a table with two chairs,wolfe2,122_L_chair,1,35,A3QRZPJT2CT2IK,2021-01-25_20h44.57.826,MetaAwareness,2020.1.2,MacIntel,60,3P520RYKCI9FD7NQZZOHLNDROTRU5J,A3QRZPJT2CT2IK,3S0TNUHWKULF57T014AXBQEIUZWD8T,WN0S1,WN0S1,3S0TNUHWKULF57T014AXBQEIUZWD8T,3S0TNUHWKULF57T014AXBQEIUZWD8T,271351,271351,,,,,,,,,,
,,,,4,5.457025,0,23,23,261,1,there is a black bookcase in a bedroom with a pink toy scooter.,there is an unidentified object next to the black bookcase in the bedroom,wolfe2,081_R_football,4,35,A3QRZPJT2CT2IK,2021-01-25_20h44.57.826,MetaAwareness,2020.1.2,MacIntel,60,3P520RYKCI9FD7NQZZOHLNDROTRU5J,A3QRZPJT2CT2IK,3S0TNUHWKULF57T014AXBQEIUZWD8T,WN0S1,WN0S1,3S0TNUHWKULF57T014AXBQEIUZWD8T,3S0TNUHWKULF57T014AXBQEIUZWD8T,271351,271351,,,,,,,,,,
,,,,4,18.88799,0,24,24,21,1,this room has a study desk and seating. there is a window in the back of the room with gray walls.the city can be seen in the window.,there is a mirror on the gray wall next to the window overlooking the city.,wolfe2,005_R_mirror,5,35,A3QRZPJT2CT2IK,2021-01-25_20h44.57.826,MetaAwareness,2020.1.2,MacIntel,60,3P520RYKCI9FD7NQZZOHLNDROTRU5J,A3QRZPJT2CT2IK,3S0TNUHWKULF57T014AXBQEIUZWD8T,WN0S1,WN0S1,3S0TNUHWKULF57T014AXBQEIUZWD8T,3S0TNUHWKULF57T014AXBQEIUZWD8T,271351,271351,,,,,,,,,,
,,,,4,4.477035,0,25,25,392,1,a sun room with a jaccuzi and plants at 3 of its corners,a sun room with a jaccuzi and plants at 2 of its corners,wolfe2,123_R_pot,4,35,A3QRZPJT2CT2IK,2021-01-25_20h44.57.826,MetaAwareness,2020.1.2,MacIntel,60,3P520RYKCI9FD7NQZZOHLNDROTRU5J,A3QRZPJT2CT2IK,3S0TNUHWKULF57T014AXBQEIUZWD8T,WN0S1,WN0S1,3S0TNUHWKULF57T014AXBQEIUZWD8T,3S0TNUHWKULF57T014AXBQEIUZWD8T,271351,271351,,,,,,,,,,
,,,,4,6.626535,0,26,26,366,1,a finshed basment that is well orginzed,a finished basement that is well orginzed; with the shoes missing,wolfe2,118_R_shoes,2,35,A3QRZPJT2CT2IK,2021-01-25_20h44.57.826,MetaAwareness,2020.1.2,MacIntel,60,3P520RYKCI9FD7NQZZOHLNDROTRU5J,A3QRZPJT2CT2IK,3S0TNUHWKULF57T014AXBQEIUZWD8T,WN0S1,WN0S1,3S0TNUHWKULF57T014AXBQEIUZWD8T,3S0TNUHWKULF57T014AXBQEIUZWD8T,271351,271351,,,,,,,,,,
,,,,3,15.758895,0,27,27,403,1,"a lovely house with tile floors, two nice sofas, and a view of a nice pool.","a nice sitting room in a lovely looking house, with two sofas and a two lights in the main sitting room.",wolfe2,127_L_light,3,35,A3QRZPJT2CT2IK,2021-01-25_20h44.57.826,MetaAwareness,2020.1.2,MacIntel,60,3P520RYKCI9FD7NQZZOHLNDROTRU5J,A3QRZPJT2CT2IK,3S0TNUHWKULF57T014AXBQEIUZWD8T,WN0S1,WN0S1,3S0TNUHWKULF57T014AXBQEIUZWD8T,3S0TNUHWKULF57T014AXBQEIUZWD8T,271351,271351,,,,,,,,,,
,,,,4,3.315975,0,28,28,185,1,a dining room with two wine glasses on the table,a dining room with three wine glasses on the table,wolfe2,061_L_glass,5,35,A3QRZPJT2CT2IK,2021-01-25_20h44.57.826,MetaAwareness,2020.1.2,MacIntel,60,3P520RYKCI9FD7NQZZOHLNDROTRU5J,A3QRZPJT2CT2IK,3S0TNUHWKULF57T014AXBQEIUZWD8T,WN0S1,WN0S1,3S0TNUHWKULF57T014AXBQEIUZWD8T,3S0TNUHWKULF57T014AXBQEIUZWD8T,271351,271351,,,,,,,,,,
,,,,4,9.836155,0,29,29,189,1,a high-class looking family room with a seat in front of the fireplace. the fireplace has nothing in it.,a high-class looking family room with a seat in front of the fireplace. the fireplace has a white object in it,wolfe2,062_R_flowers,1,35,A3QRZPJT2CT2IK,2021-01-25_20h44.57.826,MetaAwareness,2020.1.2,MacIntel,60,3P520RYKCI9FD7NQZZOHLNDROTRU5J,A3QRZPJT2CT2IK,3S0TNUHWKULF57T014AXBQEIUZWD8T,WN0S1,WN0S1,3S0TNUHWKULF57T014AXBQEIUZWD8T,3S0TNUHWKULF57T014AXBQEIUZWD8T,271351,271351,,,,,,,,,,
,,,,,,,,,,,,,,,,35,A3QRZPJT2CT2IK,2021-01-25_20h44.57.826,MetaAwareness,2020.1.2,MacIntel,60,3P520RYKCI9FD7NQZZOHLNDROTRU5J,A3QRZPJT2CT2IK,3S0TNUHWKULF57T014AXBQEIUZWD8T,WN0S1,WN0S1,3S0TNUHWKULF57T014AXBQEIUZWD8T,3S0TNUHWKULF57T014AXBQEIUZWD8T,271351,271351,6,15.948615,someone laying underneath a blue beach umbrella on a crowded beach,someone laying underneath a blue beach umbrella on a crowded beach,same,1,21.461115,members of a marching band crossing a track that all have feather plumes at the front of their hats,a cluttered and rustic looking cafe with 10 hanging lights,different
