consent_response.keys,consent_response.rt,key_resp_2.keys,key_resp_2.rt,user_resp.keys,user_resp.rt,trials.thisRepN,trials.thisTrialN,trials.thisN,trials.thisIndex,trials.ran,image_1_text,image_2_text,database,image,number,age,worker_ID,date,expName,psychopyVersion,OS,frameRate,hitId,workerId,assignmentId,a,tp_a,b,tp_b,c,tp_c,catch_same_resp.keys,catch_same_resp.rt,image_1_text_catch_same,image_2_text_catch_same,image_catch_same,catch_different_resp.keys,catch_different_resp.rt,image_1_text_catch_different,image_2_text_catch_different,image_catch_different
space,11.49406,space,8.385745,3,10.545905,0,0,0,36,1,in a well designed bedroom a set of candlesticks appears.one candle is missing.,a set of candlesticks appears on the side table of a bedroom.,wolfe2,010_R_candle,4,25,A3VA5BS033GXU0,2021-01-25_19h37.54.575,MetaAwareness,2020.1.2,Win32,60,3VIVIU06FLF8CNDWXHGPJM02GTTMIS,A3VA5BS033GXU0,3OS46CRSLG2EVAAYZADTXYOYOA4V6G,S6SO1,S6SO1,3OS46CRSLG2EVAAYZADTXYOYOA4V6G,3OS46CRSLG2EVAAYZADTXYOYOA4V6G,271351,271351,,,,,,,,,,
,,,,1,5.07083,0,1,1,250,1,water pipe not available in this,water pipe has installed,wolfe2,078_R_faucet,2,25,A3VA5BS033GXU0,2021-01-25_19h37.54.575,MetaAwareness,2020.1.2,Win32,60,3VIVIU06FLF8CNDWXHGPJM02GTTMIS,A3VA5BS033GXU0,3OS46CRSLG2EVAAYZADTXYOYOA4V6G,S6SO1,S6SO1,3OS46CRSLG2EVAAYZADTXYOYOA4V6G,3OS46CRSLG2EVAAYZADTXYOYOA4V6G,271351,271351,,,,,,,,,,
,,,,2,5.56684,0,2,2,352,1,a sun room area with a plant displayed in the corner,a sun room area with a plant not displayed in the corner,wolfe2,113_L_plant,4,25,A3VA5BS033GXU0,2021-01-25_19h37.54.575,MetaAwareness,2020.1.2,Win32,60,3VIVIU06FLF8CNDWXHGPJM02GTTMIS,A3VA5BS033GXU0,3OS46CRSLG2EVAAYZADTXYOYOA4V6G,S6SO1,S6SO1,3OS46CRSLG2EVAAYZADTXYOYOA4V6G,3OS46CRSLG2EVAAYZADTXYOYOA4V6G,271351,271351,,,,,,,,,,
,,,,5,6.48772,0,3,3,239,1,"a large kitchen with wood floors, warm lighting, and an item on the far counter below the microwave","a large kitchen with wood floors, warm lighting, and a colorful item on the far counter below the  microwave",wolfe2,073_R_coffeemug,4,25,A3VA5BS033GXU0,2021-01-25_19h37.54.575,MetaAwareness,2020.1.2,Win32,60,3VIVIU06FLF8CNDWXHGPJM02GTTMIS,A3VA5BS033GXU0,3OS46CRSLG2EVAAYZADTXYOYOA4V6G,S6SO1,S6SO1,3OS46CRSLG2EVAAYZADTXYOYOA4V6G,3OS46CRSLG2EVAAYZADTXYOYOA4V6G,271351,271351,,,,,,,,,,
,,,,5,4.38251,0,4,4,94,1,"a modern living room with many windows, with just one wooden beam on the ceiling","a modern living room with many windows, with two wooden beams on the ceiling",wolfe2,031_R_log,4,25,A3VA5BS033GXU0,2021-01-25_19h37.54.575,MetaAwareness,2020.1.2,Win32,60,3VIVIU06FLF8CNDWXHGPJM02GTTMIS,A3VA5BS033GXU0,3OS46CRSLG2EVAAYZADTXYOYOA4V6G,S6SO1,S6SO1,3OS46CRSLG2EVAAYZADTXYOYOA4V6G,3OS46CRSLG2EVAAYZADTXYOYOA4V6G,271351,271351,,,,,,,,,,
,,,,5,4.175395,0,5,5,224,1,a very elegant and modern living room of a big house,a very elegant and modern living room with 3 floating lights on the wall,wolfe2,070_R_lamp,3,25,A3VA5BS033GXU0,2021-01-25_19h37.54.575,MetaAwareness,2020.1.2,Win32,60,3VIVIU06FLF8CNDWXHGPJM02GTTMIS,A3VA5BS033GXU0,3OS46CRSLG2EVAAYZADTXYOYOA4V6G,S6SO1,S6SO1,3OS46CRSLG2EVAAYZADTXYOYOA4V6G,3OS46CRSLG2EVAAYZADTXYOYOA4V6G,271351,271351,,,,,,,,,,
,,,,3,4.96227,0,6,6,105,1,a nightstand without a handle on the drawer,a nightstand with a handle on the drawer,wolfe2,034_R_handle,4,25,A3VA5BS033GXU0,2021-01-25_19h37.54.575,MetaAwareness,2020.1.2,Win32,60,3VIVIU06FLF8CNDWXHGPJM02GTTMIS,A3VA5BS033GXU0,3OS46CRSLG2EVAAYZADTXYOYOA4V6G,S6SO1,S6SO1,3OS46CRSLG2EVAAYZADTXYOYOA4V6G,3OS46CRSLG2EVAAYZADTXYOYOA4V6G,271351,271351,,,,,,,,,,
,,,,5,3.78178,0,7,7,184,1,a dinning room table with 4 wine glasses,a dining room table with 5 wine glasses,wolfe2,061_L_glass,2,25,A3VA5BS033GXU0,2021-01-25_19h37.54.575,MetaAwareness,2020.1.2,Win32,60,3VIVIU06FLF8CNDWXHGPJM02GTTMIS,A3VA5BS033GXU0,3OS46CRSLG2EVAAYZADTXYOYOA4V6G,S6SO1,S6SO1,3OS46CRSLG2EVAAYZADTXYOYOA4V6G,3OS46CRSLG2EVAAYZADTXYOYOA4V6G,271351,271351,,,,,,,,,,
,,,,4,2.796625,0,8,8,0,1,antique-style room decorated in green and beige,antiques-style room with a small mirror to the left of a curtain,wolfe2,001_L_mirror,3,25,A3VA5BS033GXU0,2021-01-25_19h37.54.575,MetaAwareness,2020.1.2,Win32,60,3VIVIU06FLF8CNDWXHGPJM02GTTMIS,A3VA5BS033GXU0,3OS46CRSLG2EVAAYZADTXYOYOA4V6G,S6SO1,S6SO1,3OS46CRSLG2EVAAYZADTXYOYOA4V6G,3OS46CRSLG2EVAAYZADTXYOYOA4V6G,271351,271351,,,,,,,,,,
,,,,5,3.815315,0,9,9,210,1,an office meeting room with a large tv,an office meeting room with a large tv and a small picture,wolfe2,067_R_painting,3,25,A3VA5BS033GXU0,2021-01-25_19h37.54.575,MetaAwareness,2020.1.2,Win32,60,3VIVIU06FLF8CNDWXHGPJM02GTTMIS,A3VA5BS033GXU0,3OS46CRSLG2EVAAYZADTXYOYOA4V6G,S6SO1,S6SO1,3OS46CRSLG2EVAAYZADTXYOYOA4V6G,3OS46CRSLG2EVAAYZADTXYOYOA4V6G,271351,271351,,,,,,,,,,
,,,,3,4.91317,0,10,10,394,1,an office room with wide opening of window faces natural and one lamp sit on the ground,an office room with wide opening of window faces natural and no lamp sit on the ground,wolfe2,124_L_vase,4,25,A3VA5BS033GXU0,2021-01-25_19h37.54.575,MetaAwareness,2020.1.2,Win32,60,3VIVIU06FLF8CNDWXHGPJM02GTTMIS,A3VA5BS033GXU0,3OS46CRSLG2EVAAYZADTXYOYOA4V6G,S6SO1,S6SO1,3OS46CRSLG2EVAAYZADTXYOYOA4V6G,3OS46CRSLG2EVAAYZADTXYOYOA4V6G,271351,271351,,,,,,,,,,
,,,,3,3.272055,0,11,11,371,1,a living room space with wall frame portrait,a living room space with no wall frame,wolfe2,119_R_painting,3,25,A3VA5BS033GXU0,2021-01-25_19h37.54.575,MetaAwareness,2020.1.2,Win32,60,3VIVIU06FLF8CNDWXHGPJM02GTTMIS,A3VA5BS033GXU0,3OS46CRSLG2EVAAYZADTXYOYOA4V6G,S6SO1,S6SO1,3OS46CRSLG2EVAAYZADTXYOYOA4V6G,3OS46CRSLG2EVAAYZADTXYOYOA4V6G,271351,271351,,,,,,,,,,
,,,,2,6.23635,0,12,12,200,1,"it's a dining room with fancy furniture, it looks very nice and expensive.","dining room with fancy furniture, it looks nice and expensive, there appears to be two more wine bottles on the shelving now.",wolfe2,064_R_bottles,5,25,A3VA5BS033GXU0,2021-01-25_19h37.54.575,MetaAwareness,2020.1.2,Win32,60,3VIVIU06FLF8CNDWXHGPJM02GTTMIS,A3VA5BS033GXU0,3OS46CRSLG2EVAAYZADTXYOYOA4V6G,S6SO1,S6SO1,3OS46CRSLG2EVAAYZADTXYOYOA4V6G,3OS46CRSLG2EVAAYZADTXYOYOA4V6G,271351,271351,,,,,,,,,,
,,,,1,4.90417,0,13,13,193,1,a wooden living room with an empty desk,a wooden living room with a desk that has a notbook on it,wolfe2,063_L_laptop,1,25,A3VA5BS033GXU0,2021-01-25_19h37.54.575,MetaAwareness,2020.1.2,Win32,60,3VIVIU06FLF8CNDWXHGPJM02GTTMIS,A3VA5BS033GXU0,3OS46CRSLG2EVAAYZADTXYOYOA4V6G,S6SO1,S6SO1,3OS46CRSLG2EVAAYZADTXYOYOA4V6G,3OS46CRSLG2EVAAYZADTXYOYOA4V6G,271351,271351,,,,,,,,,,
,,,,5,8.65405,0,14,14,211,1,a modern marble bathroom with two levers between the tub and the mirror.,a modern marble bathroom with three levers between the tub and the mirror.,wolfe2,068_L_faucet,1,25,A3VA5BS033GXU0,2021-01-25_19h37.54.575,MetaAwareness,2020.1.2,Win32,60,3VIVIU06FLF8CNDWXHGPJM02GTTMIS,A3VA5BS033GXU0,3OS46CRSLG2EVAAYZADTXYOYOA4V6G,S6SO1,S6SO1,3OS46CRSLG2EVAAYZADTXYOYOA4V6G,3OS46CRSLG2EVAAYZADTXYOYOA4V6G,271351,271351,,,,,,,,,,
,,,,1,5.12975,0,15,15,257,1,a modern looking kitchen with a black shelf in its background,a modern looking kitchen with a plant on the counter,wolfe2,080_R_plant,3,25,A3VA5BS033GXU0,2021-01-25_19h37.54.575,MetaAwareness,2020.1.2,Win32,60,3VIVIU06FLF8CNDWXHGPJM02GTTMIS,A3VA5BS033GXU0,3OS46CRSLG2EVAAYZADTXYOYOA4V6G,S6SO1,S6SO1,3OS46CRSLG2EVAAYZADTXYOYOA4V6G,3OS46CRSLG2EVAAYZADTXYOYOA4V6G,271351,271351,,,,,,,,,,
,,,,2,7.087395,0,16,16,107,1,a bedroom  with a bed and a table without fruits on top of the table,a bedroom with a bed and a table with fruits placed on top of the table,wolfe2,035_L_fruit,2,25,A3VA5BS033GXU0,2021-01-25_19h37.54.575,MetaAwareness,2020.1.2,Win32,60,3VIVIU06FLF8CNDWXHGPJM02GTTMIS,A3VA5BS033GXU0,3OS46CRSLG2EVAAYZADTXYOYOA4V6G,S6SO1,S6SO1,3OS46CRSLG2EVAAYZADTXYOYOA4V6G,3OS46CRSLG2EVAAYZADTXYOYOA4V6G,271351,271351,,,,,,,,,,
,,,,4,10.63629,0,17,17,75,1,"an outdoor living sace with a tv on a fire place, several chairs and snacks on a table.","an outdoor living space with a large tv on a fire place, chairs and snacks, and a remote on the table.",wolfe2,023_L_remote,2,25,A3VA5BS033GXU0,2021-01-25_19h37.54.575,MetaAwareness,2020.1.2,Win32,60,3VIVIU06FLF8CNDWXHGPJM02GTTMIS,A3VA5BS033GXU0,3OS46CRSLG2EVAAYZADTXYOYOA4V6G,S6SO1,S6SO1,3OS46CRSLG2EVAAYZADTXYOYOA4V6G,3OS46CRSLG2EVAAYZADTXYOYOA4V6G,271351,271351,,,,,,,,,,
,,,,5,6.78762,0,18,18,273,1,low light beige neutral bathroom setting,a smooth beige bathroom,wolfe2,085_R_switchboard,6,25,A3VA5BS033GXU0,2021-01-25_19h37.54.575,MetaAwareness,2020.1.2,Win32,60,3VIVIU06FLF8CNDWXHGPJM02GTTMIS,A3VA5BS033GXU0,3OS46CRSLG2EVAAYZADTXYOYOA4V6G,S6SO1,S6SO1,3OS46CRSLG2EVAAYZADTXYOYOA4V6G,3OS46CRSLG2EVAAYZADTXYOYOA4V6G,271351,271351,,,,,,,,,,
,,,,5,4.612435,0,19,19,368,1,large living room with high ceilings and two picture frames along the back wall.,large living room with high ceilings and one picture frame along the back wall.,wolfe2,119_L_painting,1,25,A3VA5BS033GXU0,2021-01-25_19h37.54.575,MetaAwareness,2020.1.2,Win32,60,3VIVIU06FLF8CNDWXHGPJM02GTTMIS,A3VA5BS033GXU0,3OS46CRSLG2EVAAYZADTXYOYOA4V6G,S6SO1,S6SO1,3OS46CRSLG2EVAAYZADTXYOYOA4V6G,3OS46CRSLG2EVAAYZADTXYOYOA4V6G,271351,271351,,,,,,,,,,
,,,,2,7.81333,0,20,20,23,1,iin a bathroom there is a sink with no soap dish next to a yellow bucker,in a bathroom there is a  sink with a soapdish with soap next to a yellow bucket,wolfe2,007_L_soap,1,25,A3VA5BS033GXU0,2021-01-25_19h37.54.575,MetaAwareness,2020.1.2,Win32,60,3VIVIU06FLF8CNDWXHGPJM02GTTMIS,A3VA5BS033GXU0,3OS46CRSLG2EVAAYZADTXYOYOA4V6G,S6SO1,S6SO1,3OS46CRSLG2EVAAYZADTXYOYOA4V6G,3OS46CRSLG2EVAAYZADTXYOYOA4V6G,271351,271351,,,,,,,,,,
,,,,3,10.13825,0,21,21,362,1,a clean living room with full light and wide openning that show backyard with a table with a lant vessel with a plant on the top,a clean living room with full light and wide openning that show backyard with a table without a plant vessel with a plant on the top,wolfe2,117_L_plant_sized,5,25,A3VA5BS033GXU0,2021-01-25_19h37.54.575,MetaAwareness,2020.1.2,Win32,60,3VIVIU06FLF8CNDWXHGPJM02GTTMIS,A3VA5BS033GXU0,3OS46CRSLG2EVAAYZADTXYOYOA4V6G,S6SO1,S6SO1,3OS46CRSLG2EVAAYZADTXYOYOA4V6G,3OS46CRSLG2EVAAYZADTXYOYOA4V6G,271351,271351,,,,,,,,,,
,,,,1,3.378155,0,22,22,214,1,a bathroom with three different,a bathroom with an extra faucet to start the bath,wolfe2,068_R_faucet,1,25,A3VA5BS033GXU0,2021-01-25_19h37.54.575,MetaAwareness,2020.1.2,Win32,60,3VIVIU06FLF8CNDWXHGPJM02GTTMIS,A3VA5BS033GXU0,3OS46CRSLG2EVAAYZADTXYOYOA4V6G,S6SO1,S6SO1,3OS46CRSLG2EVAAYZADTXYOYOA4V6G,3OS46CRSLG2EVAAYZADTXYOYOA4V6G,271351,271351,,,,,,,,,,
,,,,3,4.97715,0,23,23,31,1,"a bedroom with a stool, blanket and book.","a bedroom with a stool, blanket, book and rug underneath.",wolfe2,009_R_carpet,1,25,A3VA5BS033GXU0,2021-01-25_19h37.54.575,MetaAwareness,2020.1.2,Win32,60,3VIVIU06FLF8CNDWXHGPJM02GTTMIS,A3VA5BS033GXU0,3OS46CRSLG2EVAAYZADTXYOYOA4V6G,S6SO1,S6SO1,3OS46CRSLG2EVAAYZADTXYOYOA4V6G,3OS46CRSLG2EVAAYZADTXYOYOA4V6G,271351,271351,,,,,,,,,,
,,,,2,5.644065,0,24,24,402,1,"a spacious living room with a large couch in an l-shape and a round coffee tale, with a set of candles sitting on a plate under the television","a spacious living room with a large couch in an l-shape and a round coffee table, with no set of candles sitting underneath the television",wolfe2,126_R_candles,1,25,A3VA5BS033GXU0,2021-01-25_19h37.54.575,MetaAwareness,2020.1.2,Win32,60,3VIVIU06FLF8CNDWXHGPJM02GTTMIS,A3VA5BS033GXU0,3OS46CRSLG2EVAAYZADTXYOYOA4V6G,S6SO1,S6SO1,3OS46CRSLG2EVAAYZADTXYOYOA4V6G,3OS46CRSLG2EVAAYZADTXYOYOA4V6G,271351,271351,,,,,,,,,,
,,,,4,6.65112,0,25,25,213,1,"a newly updated bathroom, that includes a soaking tub full with flower petals and three storage attachments on the tile","a newly updated bathroom, that includes a soaking tub full with flower petals and two storage attachments on the tile",wolfe2,068_L_faucet,5,25,A3VA5BS033GXU0,2021-01-25_19h37.54.575,MetaAwareness,2020.1.2,Win32,60,3VIVIU06FLF8CNDWXHGPJM02GTTMIS,A3VA5BS033GXU0,3OS46CRSLG2EVAAYZADTXYOYOA4V6G,S6SO1,S6SO1,3OS46CRSLG2EVAAYZADTXYOYOA4V6G,3OS46CRSLG2EVAAYZADTXYOYOA4V6G,271351,271351,,,,,,,,,,
,,,,2,3.66657,0,26,26,329,1,a bedroom with a bed that has a hat on it.,a bedroom with a bed that doesn't have a hat on it,wolfe2,105_R_hat,4,25,A3VA5BS033GXU0,2021-01-25_19h37.54.575,MetaAwareness,2020.1.2,Win32,60,3VIVIU06FLF8CNDWXHGPJM02GTTMIS,A3VA5BS033GXU0,3OS46CRSLG2EVAAYZADTXYOYOA4V6G,S6SO1,S6SO1,3OS46CRSLG2EVAAYZADTXYOYOA4V6G,3OS46CRSLG2EVAAYZADTXYOYOA4V6G,271351,271351,,,,,,,,,,
,,,,2,3.519655,0,27,27,301,1,girl's bedroom with white object on pink table.,girl's bedroom with nothing on pink table.,wolfe2,096_L_painting,4,25,A3VA5BS033GXU0,2021-01-25_19h37.54.575,MetaAwareness,2020.1.2,Win32,60,3VIVIU06FLF8CNDWXHGPJM02GTTMIS,A3VA5BS033GXU0,3OS46CRSLG2EVAAYZADTXYOYOA4V6G,S6SO1,S6SO1,3OS46CRSLG2EVAAYZADTXYOYOA4V6G,3OS46CRSLG2EVAAYZADTXYOYOA4V6G,271351,271351,,,,,,,,,,
,,,,4,4.813265,0,28,28,267,1,yopen door to the balcony looking at the water with a scope,open door to the balcony looking at the water with a scope and mirror on the wall,wolfe2,084_L_light,3,25,A3VA5BS033GXU0,2021-01-25_19h37.54.575,MetaAwareness,2020.1.2,Win32,60,3VIVIU06FLF8CNDWXHGPJM02GTTMIS,A3VA5BS033GXU0,3OS46CRSLG2EVAAYZADTXYOYOA4V6G,S6SO1,S6SO1,3OS46CRSLG2EVAAYZADTXYOYOA4V6G,3OS46CRSLG2EVAAYZADTXYOYOA4V6G,271351,271351,,,,,,,,,,
,,,,2,2.25849,0,29,29,125,1,there is nothing item in the bowl,fruits are filled in the bowl,wolfe2,041_R_fruit,1,25,A3VA5BS033GXU0,2021-01-25_19h37.54.575,MetaAwareness,2020.1.2,Win32,60,3VIVIU06FLF8CNDWXHGPJM02GTTMIS,A3VA5BS033GXU0,3OS46CRSLG2EVAAYZADTXYOYOA4V6G,S6SO1,S6SO1,3OS46CRSLG2EVAAYZADTXYOYOA4V6G,3OS46CRSLG2EVAAYZADTXYOYOA4V6G,271351,271351,,,,,,,,,,
,,,,,,,,,,,,,,,,25,A3VA5BS033GXU0,2021-01-25_19h37.54.575,MetaAwareness,2020.1.2,Win32,60,3VIVIU06FLF8CNDWXHGPJM02GTTMIS,A3VA5BS033GXU0,3OS46CRSLG2EVAAYZADTXYOYOA4V6G,S6SO1,S6SO1,3OS46CRSLG2EVAAYZADTXYOYOA4V6G,3OS46CRSLG2EVAAYZADTXYOYOA4V6G,271351,271351,6,10.72353,someone laying underneath a blue beach umbrella on a crowded beach,someone laying underneath a blue beach umbrella on a crowded beach,same,1,3.376795,members of a marching band crossing a track that all have feather plumes at the front of their hats,a cluttered and rustic looking cafe with 10 hanging lights,different
