consent_response.keys,consent_response.rt,key_resp_2.keys,key_resp_2.rt,user_resp.keys,user_resp.rt,trials.thisRepN,trials.thisTrialN,trials.thisN,trials.thisIndex,trials.ran,image_1_text,image_2_text,database,image,number,age,worker_ID,date,expName,psychopyVersion,OS,frameRate,hitId,workerId,assignmentId,a,tp_a,b,tp_b,c,tp_c,catch_same_resp.keys,catch_same_resp.rt,image_1_text_catch_same,image_2_text_catch_same,image_catch_same,catch_different_resp.keys,catch_different_resp.rt,image_1_text_catch_different,image_2_text_catch_different,image_catch_different
space,9.169,space,20.05992,4,33.012845,0,0,0,11,1,"this hotel room has a nice view of the skyline, you can see a nice hill or small mountain in the back, as well as a pretty treeline.","this hotel room is facing a nice view of the skyline. behind the buildings you can see some nice trees, and behind the trees there appears to be a large tower looming over it all.",wolfe2,004_L_electricalgrid,2,31,AAE6DGZOC9EWQ,2021-01-25_19h37.19.534,MetaAwareness,2020.1.2,Win32,60,3VIVIU06FLF8CNDWXHGPJM02GTTMIS,AAE6DGZOC9EWQ,3W92K5RLWVKIC6AKUR3O5SAYSFTV50,LK9W1,LK9W1,3W92K5RLWVKIC6AKUR3O5SAYSFTV50,3W92K5RLWVKIC6AKUR3O5SAYSFTV50,271351,271351,,,,,,,,,,
,,,,3,11.262255,0,1,1,52,1,a sleek and pale living room with nothing on the pillar,a sleek and pale living room with a black statue on top of the pillar,wolfe2,016_L_art,1,31,AAE6DGZOC9EWQ,2021-01-25_19h37.19.534,MetaAwareness,2020.1.2,Win32,60,3VIVIU06FLF8CNDWXHGPJM02GTTMIS,AAE6DGZOC9EWQ,3W92K5RLWVKIC6AKUR3O5SAYSFTV50,LK9W1,LK9W1,3W92K5RLWVKIC6AKUR3O5SAYSFTV50,3W92K5RLWVKIC6AKUR3O5SAYSFTV50,271351,271351,,,,,,,,,,
,,,,5,11.78365,0,2,2,195,1,"a common living space type room that blends natural and man-made elements, one of which is a wooden desk","a common living space type room that blends natural and man-made elements, one of which is a wooden desk with a book on top of it.",wolfe2,063_L_laptop,3,31,AAE6DGZOC9EWQ,2021-01-25_19h37.19.534,MetaAwareness,2020.1.2,Win32,60,3VIVIU06FLF8CNDWXHGPJM02GTTMIS,AAE6DGZOC9EWQ,3W92K5RLWVKIC6AKUR3O5SAYSFTV50,LK9W1,LK9W1,3W92K5RLWVKIC6AKUR3O5SAYSFTV50,3W92K5RLWVKIC6AKUR3O5SAYSFTV50,271351,271351,,,,,,,,,,
,,,,3,10.279105,0,3,3,20,1,a modern living room with a futon and large window overlooking a city,"a modern living room with a futon, a large window overlooking a city, and a mirror on the wall",wolfe2,005_R_mirror,4,31,AAE6DGZOC9EWQ,2021-01-25_19h37.19.534,MetaAwareness,2020.1.2,Win32,60,3VIVIU06FLF8CNDWXHGPJM02GTTMIS,AAE6DGZOC9EWQ,3W92K5RLWVKIC6AKUR3O5SAYSFTV50,LK9W1,LK9W1,3W92K5RLWVKIC6AKUR3O5SAYSFTV50,3W92K5RLWVKIC6AKUR3O5SAYSFTV50,271351,271351,,,,,,,,,,
,,,,5,24.79553,0,4,4,80,1,a calm looking room overlooking the mountains with one set of towels on the left side of a basket on the bottom shelf of a cabinet,"a calm looking room overlooking the mountains with two sets of towels, one on the right and one on the left side of a basket on the bottom shelf of a cabinet",wolfe2,024_L_towels,5,31,AAE6DGZOC9EWQ,2021-01-25_19h37.19.534,MetaAwareness,2020.1.2,Win32,60,3VIVIU06FLF8CNDWXHGPJM02GTTMIS,AAE6DGZOC9EWQ,3W92K5RLWVKIC6AKUR3O5SAYSFTV50,LK9W1,LK9W1,3W92K5RLWVKIC6AKUR3O5SAYSFTV50,3W92K5RLWVKIC6AKUR3O5SAYSFTV50,271351,271351,,,,,,,,,,
,,,,4,7.28144,0,5,5,79,1,an outdoor bathroom area that has seating and a private patio,"an outdoor bathroom area that has seating and a private patio, complete with extra towels",wolfe2,024_L_towels,1,31,AAE6DGZOC9EWQ,2021-01-25_19h37.19.534,MetaAwareness,2020.1.2,Win32,60,3VIVIU06FLF8CNDWXHGPJM02GTTMIS,AAE6DGZOC9EWQ,3W92K5RLWVKIC6AKUR3O5SAYSFTV50,LK9W1,LK9W1,3W92K5RLWVKIC6AKUR3O5SAYSFTV50,3W92K5RLWVKIC6AKUR3O5SAYSFTV50,271351,271351,,,,,,,,,,
,,,,3,27.79369,0,6,6,176,1,"a girl's bedroom with lots of white, pink, and purple furnishings, and a fluffy white rug over a table","a girl's bedroom with lots of white, pink, and purple furnishing, and some kind of dark purple item of clothing on top of a fluffy white tabletop",wolfe2,058_L_clutch,3,31,AAE6DGZOC9EWQ,2021-01-25_19h37.19.534,MetaAwareness,2020.1.2,Win32,60,3VIVIU06FLF8CNDWXHGPJM02GTTMIS,AAE6DGZOC9EWQ,3W92K5RLWVKIC6AKUR3O5SAYSFTV50,LK9W1,LK9W1,3W92K5RLWVKIC6AKUR3O5SAYSFTV50,3W92K5RLWVKIC6AKUR3O5SAYSFTV50,271351,271351,,,,,,,,,,
,,,,5,5.435085,0,7,7,148,1,a bedroom space with a bookshelf that has 5 full shelves,a bedroom space with a bookshelf that has 6 full shelves,wolfe2,050_R_book,3,31,AAE6DGZOC9EWQ,2021-01-25_19h37.19.534,MetaAwareness,2020.1.2,Win32,60,3VIVIU06FLF8CNDWXHGPJM02GTTMIS,AAE6DGZOC9EWQ,3W92K5RLWVKIC6AKUR3O5SAYSFTV50,LK9W1,LK9W1,3W92K5RLWVKIC6AKUR3O5SAYSFTV50,3W92K5RLWVKIC6AKUR3O5SAYSFTV50,271351,271351,,,,,,,,,,
,,,,5,8.61506,0,8,8,289,1,a burgundy colored bathroom with three sinks and a white box on the back wall.,a burgundy colored bathroom with three sinks and no white box on the back wall,wolfe2,091_L_airfreshener,2,31,AAE6DGZOC9EWQ,2021-01-25_19h37.19.534,MetaAwareness,2020.1.2,Win32,60,3VIVIU06FLF8CNDWXHGPJM02GTTMIS,AAE6DGZOC9EWQ,3W92K5RLWVKIC6AKUR3O5SAYSFTV50,LK9W1,LK9W1,3W92K5RLWVKIC6AKUR3O5SAYSFTV50,3W92K5RLWVKIC6AKUR3O5SAYSFTV50,271351,271351,,,,,,,,,,
,,,,5,7.095275,0,9,9,2,1,a bedroom with nothing on the wall near the corner of the room,a bedroom with a small mirror hanging near the corner of the room,wolfe2,001_R_mirror,2,31,AAE6DGZOC9EWQ,2021-01-25_19h37.19.534,MetaAwareness,2020.1.2,Win32,60,3VIVIU06FLF8CNDWXHGPJM02GTTMIS,AAE6DGZOC9EWQ,3W92K5RLWVKIC6AKUR3O5SAYSFTV50,LK9W1,LK9W1,3W92K5RLWVKIC6AKUR3O5SAYSFTV50,3W92K5RLWVKIC6AKUR3O5SAYSFTV50,271351,271351,,,,,,,,,,
,,,,3,10.804595,0,10,10,385,1,a roomy and spacious room that encourages relaxtion.  appears to have small chairs for visitors to relax in.,a roomy and spacious place that encourages people to think and act quietly while they relax.  they appear to be missing a chair in this view.,wolfe2,122_R_chair,2,31,AAE6DGZOC9EWQ,2021-01-25_19h37.19.534,MetaAwareness,2020.1.2,Win32,60,3VIVIU06FLF8CNDWXHGPJM02GTTMIS,AAE6DGZOC9EWQ,3W92K5RLWVKIC6AKUR3O5SAYSFTV50,LK9W1,LK9W1,3W92K5RLWVKIC6AKUR3O5SAYSFTV50,3W92K5RLWVKIC6AKUR3O5SAYSFTV50,271351,271351,,,,,,,,,,
,,,,1,24.22323,0,11,11,260,1,there is nothing appear in the under the stool set chamber,a small piece appear under the chamber,wolfe2,081_R_football,1,31,AAE6DGZOC9EWQ,2021-01-25_19h37.19.534,MetaAwareness,2020.1.2,Win32,60,3VIVIU06FLF8CNDWXHGPJM02GTTMIS,AAE6DGZOC9EWQ,3W92K5RLWVKIC6AKUR3O5SAYSFTV50,LK9W1,LK9W1,3W92K5RLWVKIC6AKUR3O5SAYSFTV50,3W92K5RLWVKIC6AKUR3O5SAYSFTV50,271351,271351,,,,,,,,,,
,,,,2,6.29727,0,12,12,3,1,a restaurant with a table missing a napkin,a restaurant with a table that has napkins and place settings all around,wolfe2,002_L_napkin,3,31,AAE6DGZOC9EWQ,2021-01-25_19h37.19.534,MetaAwareness,2020.1.2,Win32,60,3VIVIU06FLF8CNDWXHGPJM02GTTMIS,AAE6DGZOC9EWQ,3W92K5RLWVKIC6AKUR3O5SAYSFTV50,LK9W1,LK9W1,3W92K5RLWVKIC6AKUR3O5SAYSFTV50,3W92K5RLWVKIC6AKUR3O5SAYSFTV50,271351,271351,,,,,,,,,,
,,,,2,15.368685,0,13,13,370,1,an open concept room with a piano and seating with a picture on the wall.,an open concept room with a seating area and piano with a blank wall on the far side.,wolfe2,119_R_painting,2,31,AAE6DGZOC9EWQ,2021-01-25_19h37.19.534,MetaAwareness,2020.1.2,Win32,60,3VIVIU06FLF8CNDWXHGPJM02GTTMIS,AAE6DGZOC9EWQ,3W92K5RLWVKIC6AKUR3O5SAYSFTV50,LK9W1,LK9W1,3W92K5RLWVKIC6AKUR3O5SAYSFTV50,3W92K5RLWVKIC6AKUR3O5SAYSFTV50,271351,271351,,,,,,,,,,
,,,,3,10.8966,0,14,14,248,1,a kitchen with four tall chairs and one of the chairs has not leg pedal,a kitchen with four tall charis and all of the chairs have leg pedal,wolfe2,077_L_footrest,5,31,AAE6DGZOC9EWQ,2021-01-25_19h37.19.534,MetaAwareness,2020.1.2,Win32,60,3VIVIU06FLF8CNDWXHGPJM02GTTMIS,AAE6DGZOC9EWQ,3W92K5RLWVKIC6AKUR3O5SAYSFTV50,LK9W1,LK9W1,3W92K5RLWVKIC6AKUR3O5SAYSFTV50,3W92K5RLWVKIC6AKUR3O5SAYSFTV50,271351,271351,,,,,,,,,,
,,,,3,7.026345,0,15,15,105,1,a nightstand without a handle on the drawer,a nightstand with a handle on the drawer,wolfe2,034_R_handle,4,31,AAE6DGZOC9EWQ,2021-01-25_19h37.19.534,MetaAwareness,2020.1.2,Win32,60,3VIVIU06FLF8CNDWXHGPJM02GTTMIS,AAE6DGZOC9EWQ,3W92K5RLWVKIC6AKUR3O5SAYSFTV50,LK9W1,LK9W1,3W92K5RLWVKIC6AKUR3O5SAYSFTV50,3W92K5RLWVKIC6AKUR3O5SAYSFTV50,271351,271351,,,,,,,,,,
,,,,4,6.73227,0,16,16,129,1,a luxurious bathroom with two sinks; only one has a faucet,"a luxurious bathroom with two sinks and two faucets,",wolfe2,042_R_tap,4,31,AAE6DGZOC9EWQ,2021-01-25_19h37.19.534,MetaAwareness,2020.1.2,Win32,60,3VIVIU06FLF8CNDWXHGPJM02GTTMIS,AAE6DGZOC9EWQ,3W92K5RLWVKIC6AKUR3O5SAYSFTV50,LK9W1,LK9W1,3W92K5RLWVKIC6AKUR3O5SAYSFTV50,3W92K5RLWVKIC6AKUR3O5SAYSFTV50,271351,271351,,,,,,,,,,
,,,,2,8.904505,0,17,17,175,1,a colorful bedroom with pink and purple fluffy objects around,a colorful bedroom with a purple diary on the fluffy tablet,wolfe2,058_L_clutch,2,31,AAE6DGZOC9EWQ,2021-01-25_19h37.19.534,MetaAwareness,2020.1.2,Win32,60,3VIVIU06FLF8CNDWXHGPJM02GTTMIS,AAE6DGZOC9EWQ,3W92K5RLWVKIC6AKUR3O5SAYSFTV50,LK9W1,LK9W1,3W92K5RLWVKIC6AKUR3O5SAYSFTV50,3W92K5RLWVKIC6AKUR3O5SAYSFTV50,271351,271351,,,,,,,,,,
,,,,5,6.663375,0,18,18,199,1,a bottle sits on top of a wooden buffet table,2 bottles sits on top of a wooden buffet table,wolfe2,064_R_bottles,3,31,AAE6DGZOC9EWQ,2021-01-25_19h37.19.534,MetaAwareness,2020.1.2,Win32,60,3VIVIU06FLF8CNDWXHGPJM02GTTMIS,AAE6DGZOC9EWQ,3W92K5RLWVKIC6AKUR3O5SAYSFTV50,LK9W1,LK9W1,3W92K5RLWVKIC6AKUR3O5SAYSFTV50,3W92K5RLWVKIC6AKUR3O5SAYSFTV50,271351,271351,,,,,,,,,,
,,,,5,13.959035,0,19,19,27,1,a clean and orderly blue bathroom with a large mirror and one bottle on the window sill,a clean and orderly blue bathroom with a large mirror and two bottles on the window sill,wolfe2,008_R_bottle,2,31,AAE6DGZOC9EWQ,2021-01-25_19h37.19.534,MetaAwareness,2020.1.2,Win32,60,3VIVIU06FLF8CNDWXHGPJM02GTTMIS,AAE6DGZOC9EWQ,3W92K5RLWVKIC6AKUR3O5SAYSFTV50,LK9W1,LK9W1,3W92K5RLWVKIC6AKUR3O5SAYSFTV50,3W92K5RLWVKIC6AKUR3O5SAYSFTV50,271351,271351,,,,,,,,,,
,,,,3,5.35881,0,20,20,90,1,a luxurious and open spaced bathroom with cabinets,a luxurious and open spaced bathroom with cabinets and counter tops,wolfe2,030_L_drawer,3,31,AAE6DGZOC9EWQ,2021-01-25_19h37.19.534,MetaAwareness,2020.1.2,Win32,60,3VIVIU06FLF8CNDWXHGPJM02GTTMIS,AAE6DGZOC9EWQ,3W92K5RLWVKIC6AKUR3O5SAYSFTV50,LK9W1,LK9W1,3W92K5RLWVKIC6AKUR3O5SAYSFTV50,3W92K5RLWVKIC6AKUR3O5SAYSFTV50,271351,271351,,,,,,,,,,
,,,,5,7.547425,0,21,21,235,1,a dresser without a handle pull,a dresser with a handle pull,wolfe2,072_R_handle,5,31,AAE6DGZOC9EWQ,2021-01-25_19h37.19.534,MetaAwareness,2020.1.2,Win32,60,3VIVIU06FLF8CNDWXHGPJM02GTTMIS,AAE6DGZOC9EWQ,3W92K5RLWVKIC6AKUR3O5SAYSFTV50,LK9W1,LK9W1,3W92K5RLWVKIC6AKUR3O5SAYSFTV50,3W92K5RLWVKIC6AKUR3O5SAYSFTV50,271351,271351,,,,,,,,,,
,,,,5,11.729755,0,22,22,121,1,a dark wood furniture dining room with 2 pictures hanging about the china cabinet.,a dark wood furniture dining room with three pictures hanging above the china cabinet.,wolfe2,040_L_painting,1,31,AAE6DGZOC9EWQ,2021-01-25_19h37.19.534,MetaAwareness,2020.1.2,Win32,60,3VIVIU06FLF8CNDWXHGPJM02GTTMIS,AAE6DGZOC9EWQ,3W92K5RLWVKIC6AKUR3O5SAYSFTV50,LK9W1,LK9W1,3W92K5RLWVKIC6AKUR3O5SAYSFTV50,3W92K5RLWVKIC6AKUR3O5SAYSFTV50,271351,271351,,,,,,,,,,
,,,,1,6.84917,0,23,23,194,1,there is no book to read,there is book to read,wolfe2,063_L_laptop,2,31,AAE6DGZOC9EWQ,2021-01-25_19h37.19.534,MetaAwareness,2020.1.2,Win32,60,3VIVIU06FLF8CNDWXHGPJM02GTTMIS,AAE6DGZOC9EWQ,3W92K5RLWVKIC6AKUR3O5SAYSFTV50,LK9W1,LK9W1,3W92K5RLWVKIC6AKUR3O5SAYSFTV50,3W92K5RLWVKIC6AKUR3O5SAYSFTV50,271351,271351,,,,,,,,,,
,,,,5,20.4372,0,24,24,389,1,an enclosed patio with a hottub that has potted plants at three corners of the tub.,an enclosed patio with a hottub that has potted plants at two corners of the tub.,wolfe2,123_L_pot,3,31,AAE6DGZOC9EWQ,2021-01-25_19h37.19.534,MetaAwareness,2020.1.2,Win32,60,3VIVIU06FLF8CNDWXHGPJM02GTTMIS,AAE6DGZOC9EWQ,3W92K5RLWVKIC6AKUR3O5SAYSFTV50,LK9W1,LK9W1,3W92K5RLWVKIC6AKUR3O5SAYSFTV50,3W92K5RLWVKIC6AKUR3O5SAYSFTV50,271351,271351,,,,,,,,,,
,,,,2,4.47936,0,25,25,301,1,girl's bedroom with white object on pink table.,girl's bedroom with nothing on pink table.,wolfe2,096_L_painting,4,31,AAE6DGZOC9EWQ,2021-01-25_19h37.19.534,MetaAwareness,2020.1.2,Win32,60,3VIVIU06FLF8CNDWXHGPJM02GTTMIS,AAE6DGZOC9EWQ,3W92K5RLWVKIC6AKUR3O5SAYSFTV50,LK9W1,LK9W1,3W92K5RLWVKIC6AKUR3O5SAYSFTV50,3W92K5RLWVKIC6AKUR3O5SAYSFTV50,271351,271351,,,,,,,,,,
,,,,3,10.22992,0,26,26,313,1,"a sleek, modern bathroom with two sinks and a large mirror","a sleek, modern bathroom with two sinks, a large mirror and a smaller mirror",wolfe2,100_R_mirror,3,31,AAE6DGZOC9EWQ,2021-01-25_19h37.19.534,MetaAwareness,2020.1.2,Win32,60,3VIVIU06FLF8CNDWXHGPJM02GTTMIS,AAE6DGZOC9EWQ,3W92K5RLWVKIC6AKUR3O5SAYSFTV50,LK9W1,LK9W1,3W92K5RLWVKIC6AKUR3O5SAYSFTV50,3W92K5RLWVKIC6AKUR3O5SAYSFTV50,271351,271351,,,,,,,,,,
,,,,2,11.056615,0,27,27,166,1,a living room with a white couch with shite cushions on it.,"a living room with a large white couch, with white cushions and a brown blanket",wolfe2,056_R_comforter,4,31,AAE6DGZOC9EWQ,2021-01-25_19h37.19.534,MetaAwareness,2020.1.2,Win32,60,3VIVIU06FLF8CNDWXHGPJM02GTTMIS,AAE6DGZOC9EWQ,3W92K5RLWVKIC6AKUR3O5SAYSFTV50,LK9W1,LK9W1,3W92K5RLWVKIC6AKUR3O5SAYSFTV50,3W92K5RLWVKIC6AKUR3O5SAYSFTV50,271351,271351,,,,,,,,,,
,,,,5,5.41019,0,28,28,162,1,a room with two footmat,a room with three footmat,wolfe2,055_R_carpet,7,31,AAE6DGZOC9EWQ,2021-01-25_19h37.19.534,MetaAwareness,2020.1.2,Win32,60,3VIVIU06FLF8CNDWXHGPJM02GTTMIS,AAE6DGZOC9EWQ,3W92K5RLWVKIC6AKUR3O5SAYSFTV50,LK9W1,LK9W1,3W92K5RLWVKIC6AKUR3O5SAYSFTV50,3W92K5RLWVKIC6AKUR3O5SAYSFTV50,271351,271351,,,,,,,,,,
,,,,5,6.88215,0,29,29,395,1,a modern room with glass windows and vases on the floor,a modern room with glass windows and no decorations on the floor,wolfe2,124_L_vase,6,31,AAE6DGZOC9EWQ,2021-01-25_19h37.19.534,MetaAwareness,2020.1.2,Win32,60,3VIVIU06FLF8CNDWXHGPJM02GTTMIS,AAE6DGZOC9EWQ,3W92K5RLWVKIC6AKUR3O5SAYSFTV50,LK9W1,LK9W1,3W92K5RLWVKIC6AKUR3O5SAYSFTV50,3W92K5RLWVKIC6AKUR3O5SAYSFTV50,271351,271351,,,,,,,,,,
,,,,,,,,,,,,,,,,31,AAE6DGZOC9EWQ,2021-01-25_19h37.19.534,MetaAwareness,2020.1.2,Win32,60,3VIVIU06FLF8CNDWXHGPJM02GTTMIS,AAE6DGZOC9EWQ,3W92K5RLWVKIC6AKUR3O5SAYSFTV50,LK9W1,LK9W1,3W92K5RLWVKIC6AKUR3O5SAYSFTV50,3W92K5RLWVKIC6AKUR3O5SAYSFTV50,271351,271351,6,8.81675,someone laying underneath a blue beach umbrella on a crowded beach,someone laying underneath a blue beach umbrella on a crowded beach,same,1,5.233655,members of a marching band crossing a track that all have feather plumes at the front of their hats,a cluttered and rustic looking cafe with 10 hanging lights,different
