consent_response.keys,consent_response.rt,key_resp_2.keys,key_resp_2.rt,user_resp.keys,user_resp.rt,trials.thisRepN,trials.thisTrialN,trials.thisN,trials.thisIndex,trials.ran,image_1_text,image_2_text,database,image,number,age,worker_ID,date,expName,psychopyVersion,OS,frameRate,hitId,workerId,assignmentId,a,tp_a,b,tp_b,c,tp_c,catch_same_resp.keys,catch_same_resp.rt,image_1_text_catch_same,image_2_text_catch_same,image_catch_same,catch_different_resp.keys,catch_different_resp.rt,image_1_text_catch_different,image_2_text_catch_different,image_catch_different
space,21.62653,space,45.597615,6,17.628875,0,0,0,377,1,a living room with white couches and a fireplace with an orchid and two decorative items,a living room with white couches and a fireplace with an orchid and one decorative item,wolfe2,120_R_art,4,30,AS4FVWL91C6HR,2021-01-25_23h44.23.496,MetaAwareness,2020.1.2,Win32,60,3WUVMVA7OC6T5CTH0IE6AQ8SIPCAZZ,AS4FVWL91C6HR,3Z4GS9HPNWDVOKN70MF5XY8RX4677Q,PS4Z1,PS4Z1,3Z4GS9HPNWDVOKN70MF5XY8RX4677Q,3Z4GS9HPNWDVOKN70MF5XY8RX4677Q,271351,271351,,,,,,,,,,
,,,,1,5.680265,0,1,1,326,1,in the dark restaurant there are cozy tables with candles on them.,in the dark restaurant most of the cozy tables have candles on them.,wolfe2,104_R_bottle,3,30,AS4FVWL91C6HR,2021-01-25_23h44.23.496,MetaAwareness,2020.1.2,Win32,60,3WUVMVA7OC6T5CTH0IE6AQ8SIPCAZZ,AS4FVWL91C6HR,3Z4GS9HPNWDVOKN70MF5XY8RX4677Q,PS4Z1,PS4Z1,3Z4GS9HPNWDVOKN70MF5XY8RX4677Q,3Z4GS9HPNWDVOKN70MF5XY8RX4677Q,271351,271351,,,,,,,,,,
,,,,5,13.78934,0,2,2,383,1,a modern bedroom with a nightstand that has a red lamp and a black toy car,a modern bedroom with a nightstand that has a red lamp,wolfe2,121_R_car,4,30,AS4FVWL91C6HR,2021-01-25_23h44.23.496,MetaAwareness,2020.1.2,Win32,60,3WUVMVA7OC6T5CTH0IE6AQ8SIPCAZZ,AS4FVWL91C6HR,3Z4GS9HPNWDVOKN70MF5XY8RX4677Q,PS4Z1,PS4Z1,3Z4GS9HPNWDVOKN70MF5XY8RX4677Q,3Z4GS9HPNWDVOKN70MF5XY8RX4677Q,271351,271351,,,,,,,,,,
,,,,6,6.188135,0,3,3,160,1,a master bedroom and office space with two pieces of circle rugs on the floor,a master bedroom and office space with three pieces of circle rugs on the floor,wolfe2,055_R_carpet,2,30,AS4FVWL91C6HR,2021-01-25_23h44.23.496,MetaAwareness,2020.1.2,Win32,60,3WUVMVA7OC6T5CTH0IE6AQ8SIPCAZZ,AS4FVWL91C6HR,3Z4GS9HPNWDVOKN70MF5XY8RX4677Q,PS4Z1,PS4Z1,3Z4GS9HPNWDVOKN70MF5XY8RX4677Q,3Z4GS9HPNWDVOKN70MF5XY8RX4677Q,271351,271351,,,,,,,,,,
,,,,3,13.288625,0,4,4,10,1,a lakeside house with a door open looking out at a lake with no ducks,a lakeside house with a door open looking out a lake with ducks in it,wolfe2,003_R_ducks,2,30,AS4FVWL91C6HR,2021-01-25_23h44.23.496,MetaAwareness,2020.1.2,Win32,60,3WUVMVA7OC6T5CTH0IE6AQ8SIPCAZZ,AS4FVWL91C6HR,3Z4GS9HPNWDVOKN70MF5XY8RX4677Q,PS4Z1,PS4Z1,3Z4GS9HPNWDVOKN70MF5XY8RX4677Q,3Z4GS9HPNWDVOKN70MF5XY8RX4677Q,271351,271351,,,,,,,,,,
,,,,1,9.14603,0,5,5,38,1,the white tile color scheme does not mix well with the blue tiles,the hidious bottle of perfume sits on top of the marble sink near a large bottle of pink perfume,wolfe2,011_R_parfum,4,30,AS4FVWL91C6HR,2021-01-25_23h44.23.496,MetaAwareness,2020.1.2,Win32,60,3WUVMVA7OC6T5CTH0IE6AQ8SIPCAZZ,AS4FVWL91C6HR,3Z4GS9HPNWDVOKN70MF5XY8RX4677Q,PS4Z1,PS4Z1,3Z4GS9HPNWDVOKN70MF5XY8RX4677Q,3Z4GS9HPNWDVOKN70MF5XY8RX4677Q,271351,271351,,,,,,,,,,
,,,,1,7.66553,0,6,6,324,1,a restaurant that has food on one of the tables,a restaurant that does not have food on any of the tables,wolfe2,104_L_bottle,5,30,AS4FVWL91C6HR,2021-01-25_23h44.23.496,MetaAwareness,2020.1.2,Win32,60,3WUVMVA7OC6T5CTH0IE6AQ8SIPCAZZ,AS4FVWL91C6HR,3Z4GS9HPNWDVOKN70MF5XY8RX4677Q,PS4Z1,PS4Z1,3Z4GS9HPNWDVOKN70MF5XY8RX4677Q,3Z4GS9HPNWDVOKN70MF5XY8RX4677Q,271351,271351,,,,,,,,,,
,,,,3,11.45404,0,7,7,298,1,"a bright, cheery living room with four candles in front of a large mirror","a bright, cheery living room with three candles in front of a large mirror",wolfe2,095_R_candle,4,30,AS4FVWL91C6HR,2021-01-25_23h44.23.496,MetaAwareness,2020.1.2,Win32,60,3WUVMVA7OC6T5CTH0IE6AQ8SIPCAZZ,AS4FVWL91C6HR,3Z4GS9HPNWDVOKN70MF5XY8RX4677Q,PS4Z1,PS4Z1,3Z4GS9HPNWDVOKN70MF5XY8RX4677Q,3Z4GS9HPNWDVOKN70MF5XY8RX4677Q,271351,271351,,,,,,,,,,
,,,,4,16.008985,0,8,8,21,1,this room has a study desk and seating. there is a window in the back of the room with gray walls.the city can be seen in the window.,there is a mirror on the gray wall next to the window overlooking the city.,wolfe2,005_R_mirror,5,30,AS4FVWL91C6HR,2021-01-25_23h44.23.496,MetaAwareness,2020.1.2,Win32,60,3WUVMVA7OC6T5CTH0IE6AQ8SIPCAZZ,AS4FVWL91C6HR,3Z4GS9HPNWDVOKN70MF5XY8RX4677Q,PS4Z1,PS4Z1,3Z4GS9HPNWDVOKN70MF5XY8RX4677Q,3Z4GS9HPNWDVOKN70MF5XY8RX4677Q,271351,271351,,,,,,,,,,
,,,,4,12.58805,0,9,9,237,1,aa nice kitchen with marble counter tops an island and a what looks like pasta next to a double oven,a nice well lit kitchen with hardwood floors and what looks like dry pasta next to a double oven.,wolfe2,073_L_coffeemug,4,30,AS4FVWL91C6HR,2021-01-25_23h44.23.496,MetaAwareness,2020.1.2,Win32,60,3WUVMVA7OC6T5CTH0IE6AQ8SIPCAZZ,AS4FVWL91C6HR,3Z4GS9HPNWDVOKN70MF5XY8RX4677Q,PS4Z1,PS4Z1,3Z4GS9HPNWDVOKN70MF5XY8RX4677Q,3Z4GS9HPNWDVOKN70MF5XY8RX4677Q,271351,271351,,,,,,,,,,
,,,,4,12.944385,0,10,10,311,1,"a bathroom that has a long mirror, a large sink with two faucets and a mirror attached to the left","a bathroom that has a long mirror, a large sink with two faucets and a bare wall on the left",wolfe2,100_L_mirror,4,30,AS4FVWL91C6HR,2021-01-25_23h44.23.496,MetaAwareness,2020.1.2,Win32,60,3WUVMVA7OC6T5CTH0IE6AQ8SIPCAZZ,AS4FVWL91C6HR,3Z4GS9HPNWDVOKN70MF5XY8RX4677Q,PS4Z1,PS4Z1,3Z4GS9HPNWDVOKN70MF5XY8RX4677Q,3Z4GS9HPNWDVOKN70MF5XY8RX4677Q,271351,271351,,,,,,,,,,
,,,,4,11.31024,0,11,11,26,1,a blue bathroom that has a bottle resting on the window sill,a blue bathroom that has two bottles resting on the window sill,wolfe2,008_L_bottle,3,30,AS4FVWL91C6HR,2021-01-25_23h44.23.496,MetaAwareness,2020.1.2,Win32,60,3WUVMVA7OC6T5CTH0IE6AQ8SIPCAZZ,AS4FVWL91C6HR,3Z4GS9HPNWDVOKN70MF5XY8RX4677Q,PS4Z1,PS4Z1,3Z4GS9HPNWDVOKN70MF5XY8RX4677Q,3Z4GS9HPNWDVOKN70MF5XY8RX4677Q,271351,271351,,,,,,,,,,
,,,,3,21.95031,0,12,12,393,1,it is a guest house there are chair and table present and natural scenary present there is an water can present inside the box,it is a guest house there are chair and table present and natural scenary present. there is no object present in the box,wolfe2,124_L_vase,1,30,AS4FVWL91C6HR,2021-01-25_23h44.23.496,MetaAwareness,2020.1.2,Win32,60,3WUVMVA7OC6T5CTH0IE6AQ8SIPCAZZ,AS4FVWL91C6HR,3Z4GS9HPNWDVOKN70MF5XY8RX4677Q,PS4Z1,PS4Z1,3Z4GS9HPNWDVOKN70MF5XY8RX4677Q,3Z4GS9HPNWDVOKN70MF5XY8RX4677Q,271351,271351,,,,,,,,,,
,,,,1,133.50338,0,13,13,325,1,a kitchen area with a person sitting in a chair.,a kitchen area with empty chairs.,wolfe2,104_R_bottle,1,30,AS4FVWL91C6HR,2021-01-25_23h44.23.496,MetaAwareness,2020.1.2,Win32,60,3WUVMVA7OC6T5CTH0IE6AQ8SIPCAZZ,AS4FVWL91C6HR,3Z4GS9HPNWDVOKN70MF5XY8RX4677Q,PS4Z1,PS4Z1,3Z4GS9HPNWDVOKN70MF5XY8RX4677Q,3Z4GS9HPNWDVOKN70MF5XY8RX4677Q,271351,271351,,,,,,,,,,
,,,,4,11.311545,0,14,14,181,1,this living room has lovely natural wood floors and a nice l shaped sofa with cream cushions on top.,"this lovely living room has natural wood floors and a nice l shaped soda adorned with cream cushions, and a black accent cushion as well.",wolfe2,060_L_pillow,3,30,AS4FVWL91C6HR,2021-01-25_23h44.23.496,MetaAwareness,2020.1.2,Win32,60,3WUVMVA7OC6T5CTH0IE6AQ8SIPCAZZ,AS4FVWL91C6HR,3Z4GS9HPNWDVOKN70MF5XY8RX4677Q,PS4Z1,PS4Z1,3Z4GS9HPNWDVOKN70MF5XY8RX4677Q,3Z4GS9HPNWDVOKN70MF5XY8RX4677Q,271351,271351,,,,,,,,,,
,,,,3,5.652445,0,15,15,97,1,a bathroom with a single dispenser,a bathroom with two dispenser,wolfe2,032_R_bottle,4,30,AS4FVWL91C6HR,2021-01-25_23h44.23.496,MetaAwareness,2020.1.2,Win32,60,3WUVMVA7OC6T5CTH0IE6AQ8SIPCAZZ,AS4FVWL91C6HR,3Z4GS9HPNWDVOKN70MF5XY8RX4677Q,PS4Z1,PS4Z1,3Z4GS9HPNWDVOKN70MF5XY8RX4677Q,3Z4GS9HPNWDVOKN70MF5XY8RX4677Q,271351,271351,,,,,,,,,,
,,,,4,11.58897,0,16,16,373,1,in a living room there is are three objects on a shelf above the fireplace,in a living room there are two objects on a shelf above the fireplace,wolfe2,120_L_art,1,30,AS4FVWL91C6HR,2021-01-25_23h44.23.496,MetaAwareness,2020.1.2,Win32,60,3WUVMVA7OC6T5CTH0IE6AQ8SIPCAZZ,AS4FVWL91C6HR,3Z4GS9HPNWDVOKN70MF5XY8RX4677Q,PS4Z1,PS4Z1,3Z4GS9HPNWDVOKN70MF5XY8RX4677Q,3Z4GS9HPNWDVOKN70MF5XY8RX4677Q,271351,271351,,,,,,,,,,
,,,,4,13.130445,0,17,17,362,1,a clean living room with full light and wide openning that show backyard with a table with a lant vessel with a plant on the top,a clean living room with full light and wide openning that show backyard with a table without a plant vessel with a plant on the top,wolfe2,117_L_plant_sized,5,30,AS4FVWL91C6HR,2021-01-25_23h44.23.496,MetaAwareness,2020.1.2,Win32,60,3WUVMVA7OC6T5CTH0IE6AQ8SIPCAZZ,AS4FVWL91C6HR,3Z4GS9HPNWDVOKN70MF5XY8RX4677Q,PS4Z1,PS4Z1,3Z4GS9HPNWDVOKN70MF5XY8RX4677Q,3Z4GS9HPNWDVOKN70MF5XY8RX4677Q,271351,271351,,,,,,,,,,
,,,,4,8.98435,0,18,18,64,1,an outside patio of a modern designed home with one outdoor light.,an outside patio of a modern designed home with two outdoor lights.,wolfe2,019_L_lamp_sized,3,30,AS4FVWL91C6HR,2021-01-25_23h44.23.496,MetaAwareness,2020.1.2,Win32,60,3WUVMVA7OC6T5CTH0IE6AQ8SIPCAZZ,AS4FVWL91C6HR,3Z4GS9HPNWDVOKN70MF5XY8RX4677Q,PS4Z1,PS4Z1,3Z4GS9HPNWDVOKN70MF5XY8RX4677Q,3Z4GS9HPNWDVOKN70MF5XY8RX4677Q,271351,271351,,,,,,,,,,
,,,,4,7.46262,0,19,19,327,1,"a bedroom with a cheetah print comforter, two blankets and a hat on the bed",a bedroom with a cheetah print comforter and two blankets on the bed,wolfe2,105_L_hat,2,30,AS4FVWL91C6HR,2021-01-25_23h44.23.496,MetaAwareness,2020.1.2,Win32,60,3WUVMVA7OC6T5CTH0IE6AQ8SIPCAZZ,AS4FVWL91C6HR,3Z4GS9HPNWDVOKN70MF5XY8RX4677Q,PS4Z1,PS4Z1,3Z4GS9HPNWDVOKN70MF5XY8RX4677Q,3Z4GS9HPNWDVOKN70MF5XY8RX4677Q,271351,271351,,,,,,,,,,
,,,,4,10.012565,0,20,20,339,1,a closet full of womens clothes with a dresser with a blue decoration on it,a closet full of womens clothes with a dresser with hairbrushes on it and no decor,wolfe2,108_L_boa,2,30,AS4FVWL91C6HR,2021-01-25_23h44.23.496,MetaAwareness,2020.1.2,Win32,60,3WUVMVA7OC6T5CTH0IE6AQ8SIPCAZZ,AS4FVWL91C6HR,3Z4GS9HPNWDVOKN70MF5XY8RX4677Q,PS4Z1,PS4Z1,3Z4GS9HPNWDVOKN70MF5XY8RX4677Q,3Z4GS9HPNWDVOKN70MF5XY8RX4677Q,271351,271351,,,,,,,,,,
,,,,3,8.637285,0,21,21,236,1,in a kitchen there is a pot with many utencils next to the stove,in a kitchen there is a pot with few utencils next to the stove,wolfe2,073_L_coffeemug,1,30,AS4FVWL91C6HR,2021-01-25_23h44.23.496,MetaAwareness,2020.1.2,Win32,60,3WUVMVA7OC6T5CTH0IE6AQ8SIPCAZZ,AS4FVWL91C6HR,3Z4GS9HPNWDVOKN70MF5XY8RX4677Q,PS4Z1,PS4Z1,3Z4GS9HPNWDVOKN70MF5XY8RX4677Q,3Z4GS9HPNWDVOKN70MF5XY8RX4677Q,271351,271351,,,,,,,,,,
,,,,4,8.91873,0,22,22,285,1,a red and white bedroom with a lamp on the floor in the corner,a red and white bedroom with nothing on the floor in the corner,wolfe2,090_L_lamp,5,30,AS4FVWL91C6HR,2021-01-25_23h44.23.496,MetaAwareness,2020.1.2,Win32,60,3WUVMVA7OC6T5CTH0IE6AQ8SIPCAZZ,AS4FVWL91C6HR,3Z4GS9HPNWDVOKN70MF5XY8RX4677Q,PS4Z1,PS4Z1,3Z4GS9HPNWDVOKN70MF5XY8RX4677Q,3Z4GS9HPNWDVOKN70MF5XY8RX4677Q,271351,271351,,,,,,,,,,
,,,,4,12.84326,0,23,23,401,1,a media room with a large angled sofa coverd with black fabric. the sofa faces a media wall with screen and shelving. there's a candle set on the lowest shelf.,a media room with a large angled sofa covered with black fabric. the sofa faces a media wall with screen and shelving.,wolfe2,126_L_candles,2,30,AS4FVWL91C6HR,2021-01-25_23h44.23.496,MetaAwareness,2020.1.2,Win32,60,3WUVMVA7OC6T5CTH0IE6AQ8SIPCAZZ,AS4FVWL91C6HR,3Z4GS9HPNWDVOKN70MF5XY8RX4677Q,PS4Z1,PS4Z1,3Z4GS9HPNWDVOKN70MF5XY8RX4677Q,3Z4GS9HPNWDVOKN70MF5XY8RX4677Q,271351,271351,,,,,,,,,,
,,,,4,8.049095,0,24,24,47,1,room with two tables and 3 lights on the wall,room with two tables and 4 lights on the wall,wolfe2,014_L_lamp,4,30,AS4FVWL91C6HR,2021-01-25_23h44.23.496,MetaAwareness,2020.1.2,Win32,60,3WUVMVA7OC6T5CTH0IE6AQ8SIPCAZZ,AS4FVWL91C6HR,3Z4GS9HPNWDVOKN70MF5XY8RX4677Q,PS4Z1,PS4Z1,3Z4GS9HPNWDVOKN70MF5XY8RX4677Q,3Z4GS9HPNWDVOKN70MF5XY8RX4677Q,271351,271351,,,,,,,,,,
,,,,3,8.677905,0,25,25,379,1,a picture of a bedroom that has a white night stand with a lamp and car on it,a bedroom that has a white night stand with a lamp on it,wolfe2,121_L_car,2,30,AS4FVWL91C6HR,2021-01-25_23h44.23.496,MetaAwareness,2020.1.2,Win32,60,3WUVMVA7OC6T5CTH0IE6AQ8SIPCAZZ,AS4FVWL91C6HR,3Z4GS9HPNWDVOKN70MF5XY8RX4677Q,PS4Z1,PS4Z1,3Z4GS9HPNWDVOKN70MF5XY8RX4677Q,3Z4GS9HPNWDVOKN70MF5XY8RX4677Q,271351,271351,,,,,,,,,,
,,,,4,11.881545,0,26,26,27,1,a clean and orderly blue bathroom with a large mirror and one bottle on the window sill,a clean and orderly blue bathroom with a large mirror and two bottles on the window sill,wolfe2,008_R_bottle,2,30,AS4FVWL91C6HR,2021-01-25_23h44.23.496,MetaAwareness,2020.1.2,Win32,60,3WUVMVA7OC6T5CTH0IE6AQ8SIPCAZZ,AS4FVWL91C6HR,3Z4GS9HPNWDVOKN70MF5XY8RX4677Q,PS4Z1,PS4Z1,3Z4GS9HPNWDVOKN70MF5XY8RX4677Q,3Z4GS9HPNWDVOKN70MF5XY8RX4677Q,271351,271351,,,,,,,,,,
,,,,3,7.52585,0,27,27,41,1,this bathtub is missing an overflow drain,this bathtub has all the necessary pieces,wolfe2,012_R_tubaccesory,2,30,AS4FVWL91C6HR,2021-01-25_23h44.23.496,MetaAwareness,2020.1.2,Win32,60,3WUVMVA7OC6T5CTH0IE6AQ8SIPCAZZ,AS4FVWL91C6HR,3Z4GS9HPNWDVOKN70MF5XY8RX4677Q,PS4Z1,PS4Z1,3Z4GS9HPNWDVOKN70MF5XY8RX4677Q,3Z4GS9HPNWDVOKN70MF5XY8RX4677Q,271351,271351,,,,,,,,,,
,,,,3,13.05675,0,28,28,359,1,a dinning room that has a bin between the potted plant and the wall.,a dinning room that does not a bin between the potted plant and the wall.,wolfe2,116_R_basket,1,30,AS4FVWL91C6HR,2021-01-25_23h44.23.496,MetaAwareness,2020.1.2,Win32,60,3WUVMVA7OC6T5CTH0IE6AQ8SIPCAZZ,AS4FVWL91C6HR,3Z4GS9HPNWDVOKN70MF5XY8RX4677Q,PS4Z1,PS4Z1,3Z4GS9HPNWDVOKN70MF5XY8RX4677Q,3Z4GS9HPNWDVOKN70MF5XY8RX4677Q,271351,271351,,,,,,,,,,
,,,,4,9.101985,0,29,29,136,1,a modern bathroom with a large shower and bath with lower lights in the shower,a modern bathroom with a large shower and bath with lower lights in the shower and bath,wolfe2,044_R_light,1,30,AS4FVWL91C6HR,2021-01-25_23h44.23.496,MetaAwareness,2020.1.2,Win32,60,3WUVMVA7OC6T5CTH0IE6AQ8SIPCAZZ,AS4FVWL91C6HR,3Z4GS9HPNWDVOKN70MF5XY8RX4677Q,PS4Z1,PS4Z1,3Z4GS9HPNWDVOKN70MF5XY8RX4677Q,3Z4GS9HPNWDVOKN70MF5XY8RX4677Q,271351,271351,,,,,,,,,,
,,,,,,,,,,,,,,,,30,AS4FVWL91C6HR,2021-01-25_23h44.23.496,MetaAwareness,2020.1.2,Win32,60,3WUVMVA7OC6T5CTH0IE6AQ8SIPCAZZ,AS4FVWL91C6HR,3Z4GS9HPNWDVOKN70MF5XY8RX4677Q,PS4Z1,PS4Z1,3Z4GS9HPNWDVOKN70MF5XY8RX4677Q,3Z4GS9HPNWDVOKN70MF5XY8RX4677Q,271351,271351,4,8.906835,someone laying underneath a blue beach umbrella on a crowded beach,someone laying underneath a blue beach umbrella on a crowded beach,same,4,4.80272,members of a marching band crossing a track that all have feather plumes at the front of their hats,a cluttered and rustic looking cafe with 10 hanging lights,different
