consent_response.keys,consent_response.rt,key_resp_2.keys,key_resp_2.rt,user_resp.keys,user_resp.rt,trials.thisRepN,trials.thisTrialN,trials.thisN,trials.thisIndex,trials.ran,image_1_text,image_2_text,database,image,number,age,worker_ID,date,expName,psychopyVersion,OS,frameRate,hitId,workerId,assignmentId,a,tp_a,b,tp_b,c,tp_c,catch_same_resp.keys,catch_same_resp.rt,image_1_text_catch_same,image_2_text_catch_same,image_catch_same,catch_different_resp.keys,catch_different_resp.rt,image_1_text_catch_different,image_2_text_catch_different,image_catch_different
space,23.548,space,0.151,5,9.742,0,0,0,206,1,there is a large tree to the right of a big church,there is a medium sized tree to the right of a big church,rensink,NotreDame,3,32,A1YX4D517MM5M3,2021-01-07_17h32.14.284,MetaAwareness,2020.1.2,Win32,60,3H1C3QRA02MJNWZJO9WKVBXYT2PCET,A1YX4D517MM5M3,33TIN5LC05DIHN712S3PO7JUV30Y9A,CNT38,CNT38,33TIN5LC05DIHN712S3PO7JUV30Y9A,33TIN5LC05DIHN712S3PO7JUV30Y9A,267888,267888,,,,,,,,,,
,,,,4,5.843,0,1,1,170,1,five children are sitting around and one of them is sitting in a yellow metal chair,five children are sitting around and one of them is sitting in a pink chair,rensink,Kids,1,32,A1YX4D517MM5M3,2021-01-07_17h32.14.284,MetaAwareness,2020.1.2,Win32,60,3H1C3QRA02MJNWZJO9WKVBXYT2PCET,A1YX4D517MM5M3,33TIN5LC05DIHN712S3PO7JUV30Y9A,CNT38,CNT38,33TIN5LC05DIHN712S3PO7JUV30Y9A,33TIN5LC05DIHN712S3PO7JUV30Y9A,267888,267888,,,,,,,,,,
,,,,5,5.033,0,2,2,276,1,"four pears, a loaf of bread, a glass of wine and a section of cheese","four pears, a loaf of bread, a glass of wine",rensink,Wine,5,32,A1YX4D517MM5M3,2021-01-07_17h32.14.284,MetaAwareness,2020.1.2,Win32,60,3H1C3QRA02MJNWZJO9WKVBXYT2PCET,A1YX4D517MM5M3,33TIN5LC05DIHN712S3PO7JUV30Y9A,CNT38,CNT38,33TIN5LC05DIHN712S3PO7JUV30Y9A,33TIN5LC05DIHN712S3PO7JUV30Y9A,267888,267888,,,,,,,,,,
,,,,3,4.639,0,3,3,8,1,there is a soldier patrolling a shady street.,there is a soldier patrolling a sunny street,rensink,Army,5,32,A1YX4D517MM5M3,2021-01-07_17h32.14.284,MetaAwareness,2020.1.2,Win32,60,3H1C3QRA02MJNWZJO9WKVBXYT2PCET,A1YX4D517MM5M3,33TIN5LC05DIHN712S3PO7JUV30Y9A,CNT38,CNT38,33TIN5LC05DIHN712S3PO7JUV30Y9A,33TIN5LC05DIHN712S3PO7JUV30Y9A,267888,267888,,,,,,,,,,
,,,,5,13.526,0,4,4,270,1,"painting of a scene that features a old light, leaves and a canteen with a view outside of a window","painting of a scene that features a old light, leaves, but no canteen with a view outside of a window",rensink,Window,6,32,A1YX4D517MM5M3,2021-01-07_17h32.14.284,MetaAwareness,2020.1.2,Win32,60,3H1C3QRA02MJNWZJO9WKVBXYT2PCET,A1YX4D517MM5M3,33TIN5LC05DIHN712S3PO7JUV30Y9A,CNT38,CNT38,33TIN5LC05DIHN712S3PO7JUV30Y9A,33TIN5LC05DIHN712S3PO7JUV30Y9A,267888,267888,,,,,,,,,,
,,,,5,6.233,0,5,5,102,1,a couple enjoying a meal with a railing behind their neckline,a couple enjoying a meal with a railing behind their hairline,rensink,Eating,2,32,A1YX4D517MM5M3,2021-01-07_17h32.14.284,MetaAwareness,2020.1.2,Win32,60,3H1C3QRA02MJNWZJO9WKVBXYT2PCET,A1YX4D517MM5M3,33TIN5LC05DIHN712S3PO7JUV30Y9A,CNT38,CNT38,33TIN5LC05DIHN712S3PO7JUV30Y9A,33TIN5LC05DIHN712S3PO7JUV30Y9A,267888,267888,,,,,,,,,,
,,,,2,4.414,0,6,6,139,1,the helcopter was in blue color,helcopter wasin red color,rensink,Harbor,1,32,A1YX4D517MM5M3,2021-01-07_17h32.14.284,MetaAwareness,2020.1.2,Win32,60,3H1C3QRA02MJNWZJO9WKVBXYT2PCET,A1YX4D517MM5M3,33TIN5LC05DIHN712S3PO7JUV30Y9A,CNT38,CNT38,33TIN5LC05DIHN712S3PO7JUV30Y9A,33TIN5LC05DIHN712S3PO7JUV30Y9A,267888,267888,,,,,,,,,,
,,,,5,11.551,0,7,7,103,1,there is a man and woman sitting at an outside table smiling at one another and a bush blocking the view slightly.,there is a man and woman sitting at an outside table smiling at one another and a bush blocking the view on the left.,rensink,Eating,3,32,A1YX4D517MM5M3,2021-01-07_17h32.14.284,MetaAwareness,2020.1.2,Win32,60,3H1C3QRA02MJNWZJO9WKVBXYT2PCET,A1YX4D517MM5M3,33TIN5LC05DIHN712S3PO7JUV30Y9A,CNT38,CNT38,33TIN5LC05DIHN712S3PO7JUV30Y9A,33TIN5LC05DIHN712S3PO7JUV30Y9A,267888,267888,,,,,,,,,,
,,,,3,4.976,0,8,8,257,1,a turtle on a beach with a man and the sky is blue,a turtle on a beach with a man and the sky is pink,rensink,Turtle,2,32,A1YX4D517MM5M3,2021-01-07_17h32.14.284,MetaAwareness,2020.1.2,Win32,60,3H1C3QRA02MJNWZJO9WKVBXYT2PCET,A1YX4D517MM5M3,33TIN5LC05DIHN712S3PO7JUV30Y9A,CNT38,CNT38,33TIN5LC05DIHN712S3PO7JUV30Y9A,33TIN5LC05DIHN712S3PO7JUV30Y9A,267888,267888,,,,,,,,,,
,,,,5,16.345,0,9,9,259,1,three people launch a boat away from an island that has houses with thatched roofs and palm trees,"three people launch a boat away from an island with thatched-roof homes and palm trees, slightly futher away than in the other yellow box",rensink,Water,1,32,A1YX4D517MM5M3,2021-01-07_17h32.14.284,MetaAwareness,2020.1.2,Win32,60,3H1C3QRA02MJNWZJO9WKVBXYT2PCET,A1YX4D517MM5M3,33TIN5LC05DIHN712S3PO7JUV30Y9A,CNT38,CNT38,33TIN5LC05DIHN712S3PO7JUV30Y9A,33TIN5LC05DIHN712S3PO7JUV30Y9A,267888,267888,,,,,,,,,,
,,,,4,5.531,0,10,10,194,1,3 men on a boat holding a fish with a yellow chair in front of them,3 men on a boat holding a fish with no yellow chair in front of them,rensink,Marling,4,32,A1YX4D517MM5M3,2021-01-07_17h32.14.284,MetaAwareness,2020.1.2,Win32,60,3H1C3QRA02MJNWZJO9WKVBXYT2PCET,A1YX4D517MM5M3,33TIN5LC05DIHN712S3PO7JUV30Y9A,CNT38,CNT38,33TIN5LC05DIHN712S3PO7JUV30Y9A,33TIN5LC05DIHN712S3PO7JUV30Y9A,267888,267888,,,,,,,,,,
,,,,4,5.598,0,11,11,205,1,a french street with a cathedral in the background that is surrounded by large trees,a french street with a cathedral in the background surrounded by small trees,rensink,NotreDame,2,32,A1YX4D517MM5M3,2021-01-07_17h32.14.284,MetaAwareness,2020.1.2,Win32,60,3H1C3QRA02MJNWZJO9WKVBXYT2PCET,A1YX4D517MM5M3,33TIN5LC05DIHN712S3PO7JUV30Y9A,CNT38,CNT38,33TIN5LC05DIHN712S3PO7JUV30Y9A,33TIN5LC05DIHN712S3PO7JUV30Y9A,267888,267888,,,,,,,,,,
,,,,2,8.431,0,12,12,54,1,a man and a camel stand in front of a wall that breaks to expose the skyline,a man and a camel stand in front of a wall that breaks to expose more desert,rensink,Camel,1,32,A1YX4D517MM5M3,2021-01-07_17h32.14.284,MetaAwareness,2020.1.2,Win32,60,3H1C3QRA02MJNWZJO9WKVBXYT2PCET,A1YX4D517MM5M3,33TIN5LC05DIHN712S3PO7JUV30Y9A,CNT38,CNT38,33TIN5LC05DIHN712S3PO7JUV30Y9A,33TIN5LC05DIHN712S3PO7JUV30Y9A,267888,267888,,,,,,,,,,
,,,,3,4.494,0,13,13,6,1,a brown looking jeep with a lot of tree shadow behind it,a brown looking jeep with no tree shadow behind it,rensink,Army,3,32,A1YX4D517MM5M3,2021-01-07_17h32.14.284,MetaAwareness,2020.1.2,Win32,60,3H1C3QRA02MJNWZJO9WKVBXYT2PCET,A1YX4D517MM5M3,33TIN5LC05DIHN712S3PO7JUV30Y9A,CNT38,CNT38,33TIN5LC05DIHN712S3PO7JUV30Y9A,33TIN5LC05DIHN712S3PO7JUV30Y9A,267888,267888,,,,,,,,,,
,,,,4,5.626,0,14,14,39,1,six people on a boat approaching land.,"five people, one outside of the boat, approaching a woman near land.",rensink,Boat,1,32,A1YX4D517MM5M3,2021-01-07_17h32.14.284,MetaAwareness,2020.1.2,Win32,60,3H1C3QRA02MJNWZJO9WKVBXYT2PCET,A1YX4D517MM5M3,33TIN5LC05DIHN712S3PO7JUV30Y9A,CNT38,CNT38,33TIN5LC05DIHN712S3PO7JUV30Y9A,33TIN5LC05DIHN712S3PO7JUV30Y9A,267888,267888,,,,,,,,,,
,,,,4,7.624,0,15,15,40,1,"people are very close to a boat that is in the water, people are standing near it and others are in the boat",people are standing by a boat but it is further away in the water,rensink,Boat,2,32,A1YX4D517MM5M3,2021-01-07_17h32.14.284,MetaAwareness,2020.1.2,Win32,60,3H1C3QRA02MJNWZJO9WKVBXYT2PCET,A1YX4D517MM5M3,33TIN5LC05DIHN712S3PO7JUV30Y9A,CNT38,CNT38,33TIN5LC05DIHN712S3PO7JUV30Y9A,33TIN5LC05DIHN712S3PO7JUV30Y9A,267888,267888,,,,,,,,,,
,,,,4,5.192,0,16,16,214,1,women posing in front of white building,women posing in front of peach building,rensink,Nurses,6,32,A1YX4D517MM5M3,2021-01-07_17h32.14.284,MetaAwareness,2020.1.2,Win32,60,3H1C3QRA02MJNWZJO9WKVBXYT2PCET,A1YX4D517MM5M3,33TIN5LC05DIHN712S3PO7JUV30Y9A,CNT38,CNT38,33TIN5LC05DIHN712S3PO7JUV30Y9A,33TIN5LC05DIHN712S3PO7JUV30Y9A,267888,267888,,,,,,,,,,
,,,,5,4.952,0,17,17,232,1,three people and a seal on a rock outcropping,three people and a seal on a shorter rock outcropping,rensink,Seal,2,32,A1YX4D517MM5M3,2021-01-07_17h32.14.284,MetaAwareness,2020.1.2,Win32,60,3H1C3QRA02MJNWZJO9WKVBXYT2PCET,A1YX4D517MM5M3,33TIN5LC05DIHN712S3PO7JUV30Y9A,CNT38,CNT38,33TIN5LC05DIHN712S3PO7JUV30Y9A,33TIN5LC05DIHN712S3PO7JUV30Y9A,267888,267888,,,,,,,,,,
,,,,1,3.968,0,18,18,251,1,there is have a boat,there is not have  a boat,rensink,SummerLake,3,32,A1YX4D517MM5M3,2021-01-07_17h32.14.284,MetaAwareness,2020.1.2,Win32,60,3H1C3QRA02MJNWZJO9WKVBXYT2PCET,A1YX4D517MM5M3,33TIN5LC05DIHN712S3PO7JUV30Y9A,CNT38,CNT38,33TIN5LC05DIHN712S3PO7JUV30Y9A,33TIN5LC05DIHN712S3PO7JUV30Y9A,267888,267888,,,,,,,,,,
,,,,3,6.494,0,19,19,20,1,white flowers set beside barrels and grass,white flowers set beside barrels and concrete,rensink,Barrels,1,32,A1YX4D517MM5M3,2021-01-07_17h32.14.284,MetaAwareness,2020.1.2,Win32,60,3H1C3QRA02MJNWZJO9WKVBXYT2PCET,A1YX4D517MM5M3,33TIN5LC05DIHN712S3PO7JUV30Y9A,CNT38,CNT38,33TIN5LC05DIHN712S3PO7JUV30Y9A,33TIN5LC05DIHN712S3PO7JUV30Y9A,267888,267888,,,,,,,,,,
,,,,2,5.806,0,20,20,244,1,a bridge or highway just outside of a railroad station.,a bright blue sky just outside of a railroad station.,rensink,Station,2,32,A1YX4D517MM5M3,2021-01-07_17h32.14.284,MetaAwareness,2020.1.2,Win32,60,3H1C3QRA02MJNWZJO9WKVBXYT2PCET,A1YX4D517MM5M3,33TIN5LC05DIHN712S3PO7JUV30Y9A,CNT38,CNT38,33TIN5LC05DIHN712S3PO7JUV30Y9A,33TIN5LC05DIHN712S3PO7JUV30Y9A,267888,267888,,,,,,,,,,
,,,,5,5.222,0,21,21,164,1,a person on a boat looking at cliffs,a person in a boat looking at smaller cliffs,rensink,Kayaker,1,32,A1YX4D517MM5M3,2021-01-07_17h32.14.284,MetaAwareness,2020.1.2,Win32,60,3H1C3QRA02MJNWZJO9WKVBXYT2PCET,A1YX4D517MM5M3,33TIN5LC05DIHN712S3PO7JUV30Y9A,CNT38,CNT38,33TIN5LC05DIHN712S3PO7JUV30Y9A,33TIN5LC05DIHN712S3PO7JUV30Y9A,267888,267888,,,,,,,,,,
,,,,5,4.277,0,22,22,176,1,four children sit outside. the boy's chair is yellow.,four children sit outside. the boy's chair is pink.,rensink,Kids,7,32,A1YX4D517MM5M3,2021-01-07_17h32.14.284,MetaAwareness,2020.1.2,Win32,60,3H1C3QRA02MJNWZJO9WKVBXYT2PCET,A1YX4D517MM5M3,33TIN5LC05DIHN712S3PO7JUV30Y9A,CNT38,CNT38,33TIN5LC05DIHN712S3PO7JUV30Y9A,33TIN5LC05DIHN712S3PO7JUV30Y9A,267888,267888,,,,,,,,,,
,,,,4,7.705,0,23,23,101,1,a scuba diver under water with green coral and a yellow fish,a scuba diver under water with red coral and a yellow fish,rensink,Diver,7,32,A1YX4D517MM5M3,2021-01-07_17h32.14.284,MetaAwareness,2020.1.2,Win32,60,3H1C3QRA02MJNWZJO9WKVBXYT2PCET,A1YX4D517MM5M3,33TIN5LC05DIHN712S3PO7JUV30Y9A,CNT38,CNT38,33TIN5LC05DIHN712S3PO7JUV30Y9A,33TIN5LC05DIHN712S3PO7JUV30Y9A,267888,267888,,,,,,,,,,
,,,,1,3.43,0,24,24,19,1,green grass with a wooden bundary,brown sand with a wooden boundary,rensink,BarnTrack,5,32,A1YX4D517MM5M3,2021-01-07_17h32.14.284,MetaAwareness,2020.1.2,Win32,60,3H1C3QRA02MJNWZJO9WKVBXYT2PCET,A1YX4D517MM5M3,33TIN5LC05DIHN712S3PO7JUV30Y9A,CNT38,CNT38,33TIN5LC05DIHN712S3PO7JUV30Y9A,33TIN5LC05DIHN712S3PO7JUV30Y9A,267888,267888,,,,,,,,,,
,,,,5,7.358,0,25,25,64,1,"large homes are pictured in front of the marina, the homes are reflected in the water","large homes are pictured in front of the marina, the water is clear and blue",rensink,CanalBridge,6,32,A1YX4D517MM5M3,2021-01-07_17h32.14.284,MetaAwareness,2020.1.2,Win32,60,3H1C3QRA02MJNWZJO9WKVBXYT2PCET,A1YX4D517MM5M3,33TIN5LC05DIHN712S3PO7JUV30Y9A,CNT38,CNT38,33TIN5LC05DIHN712S3PO7JUV30Y9A,33TIN5LC05DIHN712S3PO7JUV30Y9A,267888,267888,,,,,,,,,,
,,,,4,10.229,0,26,26,140,1,grey helicopter flies over ocean near city,red helicopter flies over ocean near city,rensink,Harbor,2,32,A1YX4D517MM5M3,2021-01-07_17h32.14.284,MetaAwareness,2020.1.2,Win32,60,3H1C3QRA02MJNWZJO9WKVBXYT2PCET,A1YX4D517MM5M3,33TIN5LC05DIHN712S3PO7JUV30Y9A,CNT38,CNT38,33TIN5LC05DIHN712S3PO7JUV30Y9A,33TIN5LC05DIHN712S3PO7JUV30Y9A,267888,267888,,,,,,,,,,
,,,,4,8.636,0,27,27,60,1,a european city by the water with a reflection of a building in the water,a european city by the water without a reflection of a building in the water,rensink,CanalBridge,2,32,A1YX4D517MM5M3,2021-01-07_17h32.14.284,MetaAwareness,2020.1.2,Win32,60,3H1C3QRA02MJNWZJO9WKVBXYT2PCET,A1YX4D517MM5M3,33TIN5LC05DIHN712S3PO7JUV30Y9A,CNT38,CNT38,33TIN5LC05DIHN712S3PO7JUV30Y9A,33TIN5LC05DIHN712S3PO7JUV30Y9A,267888,267888,,,,,,,,,,
,,,,3,8.867,0,28,28,268,1,a scenic view in front of a window with a log on the bottom left corner,a schenic view in front of a window without a log in the bottom left corner,rensink,Window,4,32,A1YX4D517MM5M3,2021-01-07_17h32.14.284,MetaAwareness,2020.1.2,Win32,60,3H1C3QRA02MJNWZJO9WKVBXYT2PCET,A1YX4D517MM5M3,33TIN5LC05DIHN712S3PO7JUV30Y9A,CNT38,CNT38,33TIN5LC05DIHN712S3PO7JUV30Y9A,33TIN5LC05DIHN712S3PO7JUV30Y9A,267888,267888,,,,,,,,,,
,,,,4,5.28,0,29,29,195,1,three men holding a large fish on a boat with and orange object on the floor,three men holding a large fish on a boat,rensink,Marling,5,32,A1YX4D517MM5M3,2021-01-07_17h32.14.284,MetaAwareness,2020.1.2,Win32,60,3H1C3QRA02MJNWZJO9WKVBXYT2PCET,A1YX4D517MM5M3,33TIN5LC05DIHN712S3PO7JUV30Y9A,CNT38,CNT38,33TIN5LC05DIHN712S3PO7JUV30Y9A,33TIN5LC05DIHN712S3PO7JUV30Y9A,267888,267888,,,,,,,,,,
,,,,,,,,,,,,,,,,32,A1YX4D517MM5M3,2021-01-07_17h32.14.284,MetaAwareness,2020.1.2,Win32,60,3H1C3QRA02MJNWZJO9WKVBXYT2PCET,A1YX4D517MM5M3,33TIN5LC05DIHN712S3PO7JUV30Y9A,CNT38,CNT38,33TIN5LC05DIHN712S3PO7JUV30Y9A,33TIN5LC05DIHN712S3PO7JUV30Y9A,267888,267888,6,10.157,someone laying underneath a blue beach umbrella on a crowded beach,someone laying underneath a blue beach umbrella on a crowded beach,same,1,5.188,members of a marching band crossing a track that all have feather plumes at the front of their hats,a cluttered and rustic looking cafe with 10 hanging lights,different
