consent_response.keys,consent_response.rt,key_resp_2.keys,key_resp_2.rt,user_resp.keys,user_resp.rt,trials.thisRepN,trials.thisTrialN,trials.thisN,trials.thisIndex,trials.ran,image_1_text,image_2_text,database,image,number,age,worker_ID,date,expName,psychopyVersion,OS,frameRate,hitId,workerId,assignmentId,a,tp_a,b,tp_b,c,tp_c,catch_same_resp.keys,catch_same_resp.rt,image_1_text_catch_same,image_2_text_catch_same,image_catch_same,catch_different_resp.keys,catch_different_resp.rt,image_1_text_catch_different,image_2_text_catch_different,image_catch_different
space,75.759705,space,14.99051,2,19.186445,0,0,0,71,1,there is a castle with a short stone wall around it,there is a castle with a human height wall around it,rensink,Castle,6,59,ADYMIMV1PE14V,2021-01-07_18h06.37.982,MetaAwareness,2020.1.2,Win32,60,3XH7ZM9YX3X6Y2XLYV6TSSV926B9RL,ADYMIMV1PE14V,3IQ1VMJRYUNHL59YMMP9LL1NSCTA98,RVQI8,RVQI8,3IQ1VMJRYUNHL59YMMP9LL1NSCTA98,3IQ1VMJRYUNHL59YMMP9LL1NSCTA98,267888,267888,,,,,,,,,,
,,,,4,17.51076,0,1,1,103,1,there is a man and woman sitting at an outside table smiling at one another and a bush blocking the view slightly.,there is a man and woman sitting at an outside table smiling at one another and a bush blocking the view on the left.,rensink,Eating,3,59,ADYMIMV1PE14V,2021-01-07_18h06.37.982,MetaAwareness,2020.1.2,Win32,60,3XH7ZM9YX3X6Y2XLYV6TSSV926B9RL,ADYMIMV1PE14V,3IQ1VMJRYUNHL59YMMP9LL1NSCTA98,RVQI8,RVQI8,3IQ1VMJRYUNHL59YMMP9LL1NSCTA98,3IQ1VMJRYUNHL59YMMP9LL1NSCTA98,267888,267888,,,,,,,,,,
,,,,2,12.774675,0,2,2,244,1,a bridge or highway just outside of a railroad station.,a bright blue sky just outside of a railroad station.,rensink,Station,2,59,ADYMIMV1PE14V,2021-01-07_18h06.37.982,MetaAwareness,2020.1.2,Win32,60,3XH7ZM9YX3X6Y2XLYV6TSSV926B9RL,ADYMIMV1PE14V,3IQ1VMJRYUNHL59YMMP9LL1NSCTA98,RVQI8,RVQI8,3IQ1VMJRYUNHL59YMMP9LL1NSCTA98,3IQ1VMJRYUNHL59YMMP9LL1NSCTA98,267888,267888,,,,,,,,,,
,,,,3,8.68954,0,3,3,78,1,a helicopter and truck's shadows are visible on the grass beneath them.,a helicopter and truck are present with only the truck's shadow visible on the grass beneath them.,rensink,Chopper,7,59,ADYMIMV1PE14V,2021-01-07_18h06.37.982,MetaAwareness,2020.1.2,Win32,60,3XH7ZM9YX3X6Y2XLYV6TSSV926B9RL,ADYMIMV1PE14V,3IQ1VMJRYUNHL59YMMP9LL1NSCTA98,RVQI8,RVQI8,3IQ1VMJRYUNHL59YMMP9LL1NSCTA98,3IQ1VMJRYUNHL59YMMP9LL1NSCTA98,267888,267888,,,,,,,,,,
,,,,5,27.559715,0,4,4,236,1,a rocky beack with 3 people and sea lions,a rocky beach with 3 people and sea lions,rensink,Seal,6,59,ADYMIMV1PE14V,2021-01-07_18h06.37.982,MetaAwareness,2020.1.2,Win32,60,3XH7ZM9YX3X6Y2XLYV6TSSV926B9RL,ADYMIMV1PE14V,3IQ1VMJRYUNHL59YMMP9LL1NSCTA98,RVQI8,RVQI8,3IQ1VMJRYUNHL59YMMP9LL1NSCTA98,3IQ1VMJRYUNHL59YMMP9LL1NSCTA98,267888,267888,,,,,,,,,,
,,,,3,9.70518,0,5,5,83,1,at top of the coner  bule was in whit olor,the bulb was in yellow  color,rensink,Description,1,59,ADYMIMV1PE14V,2021-01-07_18h06.37.982,MetaAwareness,2020.1.2,Win32,60,3XH7ZM9YX3X6Y2XLYV6TSSV926B9RL,ADYMIMV1PE14V,3IQ1VMJRYUNHL59YMMP9LL1NSCTA98,RVQI8,RVQI8,3IQ1VMJRYUNHL59YMMP9LL1NSCTA98,3IQ1VMJRYUNHL59YMMP9LL1NSCTA98,267888,267888,,,,,,,,,,
,,,,2,9.772955,0,6,6,185,1,a man with a boat on the shore next to a body of water,a boat on the shore next to a body of water,rensink,Lake,8,59,ADYMIMV1PE14V,2021-01-07_18h06.37.982,MetaAwareness,2020.1.2,Win32,60,3XH7ZM9YX3X6Y2XLYV6TSSV926B9RL,ADYMIMV1PE14V,3IQ1VMJRYUNHL59YMMP9LL1NSCTA98,RVQI8,RVQI8,3IQ1VMJRYUNHL59YMMP9LL1NSCTA98,3IQ1VMJRYUNHL59YMMP9LL1NSCTA98,267888,267888,,,,,,,,,,
,,,,3,11.240405,0,7,7,88,1,two women and a man in native dress smiling in front of a light,two women and a man in native dress smiling in front of a green light,rensink,Description,6,59,ADYMIMV1PE14V,2021-01-07_18h06.37.982,MetaAwareness,2020.1.2,Win32,60,3XH7ZM9YX3X6Y2XLYV6TSSV926B9RL,ADYMIMV1PE14V,3IQ1VMJRYUNHL59YMMP9LL1NSCTA98,RVQI8,RVQI8,3IQ1VMJRYUNHL59YMMP9LL1NSCTA98,3IQ1VMJRYUNHL59YMMP9LL1NSCTA98,267888,267888,,,,,,,,,,
,,,,3,7.21012,0,8,8,228,1,three men stand with a helicopter in front of a gray hangar,three men stand with a helicopter in front a yellow hangar,rensink,Pilots,4,59,ADYMIMV1PE14V,2021-01-07_18h06.37.982,MetaAwareness,2020.1.2,Win32,60,3XH7ZM9YX3X6Y2XLYV6TSSV926B9RL,ADYMIMV1PE14V,3IQ1VMJRYUNHL59YMMP9LL1NSCTA98,RVQI8,RVQI8,3IQ1VMJRYUNHL59YMMP9LL1NSCTA98,3IQ1VMJRYUNHL59YMMP9LL1NSCTA98,267888,267888,,,,,,,,,,
,,,,3,11.014775,0,9,9,276,1,"four pears, a loaf of bread, a glass of wine and a section of cheese","four pears, a loaf of bread, a glass of wine",rensink,Wine,5,59,ADYMIMV1PE14V,2021-01-07_18h06.37.982,MetaAwareness,2020.1.2,Win32,60,3XH7ZM9YX3X6Y2XLYV6TSSV926B9RL,ADYMIMV1PE14V,3IQ1VMJRYUNHL59YMMP9LL1NSCTA98,RVQI8,RVQI8,3IQ1VMJRYUNHL59YMMP9LL1NSCTA98,3IQ1VMJRYUNHL59YMMP9LL1NSCTA98,267888,267888,,,,,,,,,,
,,,,2,6.672755,0,10,10,68,1,the window shown on the wall,the  window hide on the wall,rensink,Castle,3,59,ADYMIMV1PE14V,2021-01-07_18h06.37.982,MetaAwareness,2020.1.2,Win32,60,3XH7ZM9YX3X6Y2XLYV6TSSV926B9RL,ADYMIMV1PE14V,3IQ1VMJRYUNHL59YMMP9LL1NSCTA98,RVQI8,RVQI8,3IQ1VMJRYUNHL59YMMP9LL1NSCTA98,3IQ1VMJRYUNHL59YMMP9LL1NSCTA98,267888,267888,,,,,,,,,,
,,,,3,7.366705,0,11,11,239,1,four soldiers sit in the back of an army vehicle at a military checkpoint,three soldiers sit in the back of an army vehicle at a military checkpoint,rensink,Soldiers,4,59,ADYMIMV1PE14V,2021-01-07_18h06.37.982,MetaAwareness,2020.1.2,Win32,60,3XH7ZM9YX3X6Y2XLYV6TSSV926B9RL,ADYMIMV1PE14V,3IQ1VMJRYUNHL59YMMP9LL1NSCTA98,RVQI8,RVQI8,3IQ1VMJRYUNHL59YMMP9LL1NSCTA98,3IQ1VMJRYUNHL59YMMP9LL1NSCTA98,267888,267888,,,,,,,,,,
,,,,3,8.60187,0,12,12,192,1,3 people holding a fish on a boat over a yellow bag,3 people holding a fish on a boat,rensink,Marling,2,59,ADYMIMV1PE14V,2021-01-07_18h06.37.982,MetaAwareness,2020.1.2,Win32,60,3XH7ZM9YX3X6Y2XLYV6TSSV926B9RL,ADYMIMV1PE14V,3IQ1VMJRYUNHL59YMMP9LL1NSCTA98,RVQI8,RVQI8,3IQ1VMJRYUNHL59YMMP9LL1NSCTA98,3IQ1VMJRYUNHL59YMMP9LL1NSCTA98,267888,267888,,,,,,,,,,
,,,,2,7.48945,0,13,13,75,1,there have a shadow of the  helicopter,there haven't a  shadw of the helicopter,rensink,Chopper,4,59,ADYMIMV1PE14V,2021-01-07_18h06.37.982,MetaAwareness,2020.1.2,Win32,60,3XH7ZM9YX3X6Y2XLYV6TSSV926B9RL,ADYMIMV1PE14V,3IQ1VMJRYUNHL59YMMP9LL1NSCTA98,RVQI8,RVQI8,3IQ1VMJRYUNHL59YMMP9LL1NSCTA98,3IQ1VMJRYUNHL59YMMP9LL1NSCTA98,267888,267888,,,,,,,,,,
,,,,3,5.267395,0,14,14,142,1,a silver helicopter hovering avove a city coast,a red helicopter hovering above a city coast,rensink,Harbor,4,59,ADYMIMV1PE14V,2021-01-07_18h06.37.982,MetaAwareness,2020.1.2,Win32,60,3XH7ZM9YX3X6Y2XLYV6TSSV926B9RL,ADYMIMV1PE14V,3IQ1VMJRYUNHL59YMMP9LL1NSCTA98,RVQI8,RVQI8,3IQ1VMJRYUNHL59YMMP9LL1NSCTA98,3IQ1VMJRYUNHL59YMMP9LL1NSCTA98,267888,267888,,,,,,,,,,
,,,,4,11.23707,0,15,15,86,1,three people in costumes standing next to a while light,three people in costumes standing next to a yellow light,rensink,Description,4,59,ADYMIMV1PE14V,2021-01-07_18h06.37.982,MetaAwareness,2020.1.2,Win32,60,3XH7ZM9YX3X6Y2XLYV6TSSV926B9RL,ADYMIMV1PE14V,3IQ1VMJRYUNHL59YMMP9LL1NSCTA98,RVQI8,RVQI8,3IQ1VMJRYUNHL59YMMP9LL1NSCTA98,3IQ1VMJRYUNHL59YMMP9LL1NSCTA98,267888,267888,,,,,,,,,,
,,,,3,13.038415,0,16,16,217,1,there are egyptian ruins in the foreground and a large tree in the background,"egyptian ruins are in the foreground, there is sparse vegetation in the background",rensink,Obelisk,3,59,ADYMIMV1PE14V,2021-01-07_18h06.37.982,MetaAwareness,2020.1.2,Win32,60,3XH7ZM9YX3X6Y2XLYV6TSSV926B9RL,ADYMIMV1PE14V,3IQ1VMJRYUNHL59YMMP9LL1NSCTA98,RVQI8,RVQI8,3IQ1VMJRYUNHL59YMMP9LL1NSCTA98,3IQ1VMJRYUNHL59YMMP9LL1NSCTA98,267888,267888,,,,,,,,,,
,,,,2,8.940795,0,17,17,261,1,the boat so far to the landthe b,the boat near to the land,rensink,Water,3,59,ADYMIMV1PE14V,2021-01-07_18h06.37.982,MetaAwareness,2020.1.2,Win32,60,3XH7ZM9YX3X6Y2XLYV6TSSV926B9RL,ADYMIMV1PE14V,3IQ1VMJRYUNHL59YMMP9LL1NSCTA98,RVQI8,RVQI8,3IQ1VMJRYUNHL59YMMP9LL1NSCTA98,3IQ1VMJRYUNHL59YMMP9LL1NSCTA98,267888,267888,,,,,,,,,,
,,,,3,11.56961,0,18,18,95,1,a woman scuba diving next to green coral,a woman scuba diving next to red coral,rensink,Diver,1,59,ADYMIMV1PE14V,2021-01-07_18h06.37.982,MetaAwareness,2020.1.2,Win32,60,3XH7ZM9YX3X6Y2XLYV6TSSV926B9RL,ADYMIMV1PE14V,3IQ1VMJRYUNHL59YMMP9LL1NSCTA98,RVQI8,RVQI8,3IQ1VMJRYUNHL59YMMP9LL1NSCTA98,3IQ1VMJRYUNHL59YMMP9LL1NSCTA98,267888,267888,,,,,,,,,,
,,,,3,4.40432,0,19,19,45,1,four men stand on top of a bus fixing the baggage that is secured to the top,three men stand on top of a bus fixing the baggage that is secured to the top,rensink,Bus,4,59,ADYMIMV1PE14V,2021-01-07_18h06.37.982,MetaAwareness,2020.1.2,Win32,60,3XH7ZM9YX3X6Y2XLYV6TSSV926B9RL,ADYMIMV1PE14V,3IQ1VMJRYUNHL59YMMP9LL1NSCTA98,RVQI8,RVQI8,3IQ1VMJRYUNHL59YMMP9LL1NSCTA98,3IQ1VMJRYUNHL59YMMP9LL1NSCTA98,267888,267888,,,,,,,,,,
,,,,2,7.218205,0,20,20,73,1,vehicle  shadow show the big shadow,vehicle shadow show small,rensink,Chopper,2,59,ADYMIMV1PE14V,2021-01-07_18h06.37.982,MetaAwareness,2020.1.2,Win32,60,3XH7ZM9YX3X6Y2XLYV6TSSV926B9RL,ADYMIMV1PE14V,3IQ1VMJRYUNHL59YMMP9LL1NSCTA98,RVQI8,RVQI8,3IQ1VMJRYUNHL59YMMP9LL1NSCTA98,3IQ1VMJRYUNHL59YMMP9LL1NSCTA98,267888,267888,,,,,,,,,,
,,,,3,8.720175,0,21,21,215,1,an ancient egypt structure with a big tree at the background,an ancient egypt structure with no tree at the background,rensink,Obelisk,1,59,ADYMIMV1PE14V,2021-01-07_18h06.37.982,MetaAwareness,2020.1.2,Win32,60,3XH7ZM9YX3X6Y2XLYV6TSSV926B9RL,ADYMIMV1PE14V,3IQ1VMJRYUNHL59YMMP9LL1NSCTA98,RVQI8,RVQI8,3IQ1VMJRYUNHL59YMMP9LL1NSCTA98,3IQ1VMJRYUNHL59YMMP9LL1NSCTA98,267888,267888,,,,,,,,,,
,,,,3,11.47058,0,22,22,159,1,a man in a purple vest which i believe is a safety vest appears to be white water rafting he is holding an oar there are rocks visible and the water looks rough,a man in a blue life jacket wearing a helm holding an oar near the rocks in dangerous water,rensink,Kayak,4,59,ADYMIMV1PE14V,2021-01-07_18h06.37.982,MetaAwareness,2020.1.2,Win32,60,3XH7ZM9YX3X6Y2XLYV6TSSV926B9RL,ADYMIMV1PE14V,3IQ1VMJRYUNHL59YMMP9LL1NSCTA98,RVQI8,RVQI8,3IQ1VMJRYUNHL59YMMP9LL1NSCTA98,3IQ1VMJRYUNHL59YMMP9LL1NSCTA98,267888,267888,,,,,,,,,,
,,,,3,8.48592,0,23,23,154,1,man in kayak paddles by children playing on icebergs in river,children playing on icebergs in river,rensink,Ice,4,59,ADYMIMV1PE14V,2021-01-07_18h06.37.982,MetaAwareness,2020.1.2,Win32,60,3XH7ZM9YX3X6Y2XLYV6TSSV926B9RL,ADYMIMV1PE14V,3IQ1VMJRYUNHL59YMMP9LL1NSCTA98,RVQI8,RVQI8,3IQ1VMJRYUNHL59YMMP9LL1NSCTA98,3IQ1VMJRYUNHL59YMMP9LL1NSCTA98,267888,267888,,,,,,,,,,
,,,,3,2.949865,0,24,24,30,1,a blue boat overturned on a rocky shore,a green boat overturned on a rocky shore,rensink,Beach,5,59,ADYMIMV1PE14V,2021-01-07_18h06.37.982,MetaAwareness,2020.1.2,Win32,60,3XH7ZM9YX3X6Y2XLYV6TSSV926B9RL,ADYMIMV1PE14V,3IQ1VMJRYUNHL59YMMP9LL1NSCTA98,RVQI8,RVQI8,3IQ1VMJRYUNHL59YMMP9LL1NSCTA98,3IQ1VMJRYUNHL59YMMP9LL1NSCTA98,267888,267888,,,,,,,,,,
,,,,3,4.690055,0,25,25,212,1,it is a white colour wall,it is a orane colour wall,rensink,Nurses,4,59,ADYMIMV1PE14V,2021-01-07_18h06.37.982,MetaAwareness,2020.1.2,Win32,60,3XH7ZM9YX3X6Y2XLYV6TSSV926B9RL,ADYMIMV1PE14V,3IQ1VMJRYUNHL59YMMP9LL1NSCTA98,RVQI8,RVQI8,3IQ1VMJRYUNHL59YMMP9LL1NSCTA98,3IQ1VMJRYUNHL59YMMP9LL1NSCTA98,267888,267888,,,,,,,,,,
,,,,3,4.13471,0,26,26,11,1,a red barn set on a green field with beautiful trees behind it.,a green barn set on a green field with beautiful trees behind it.,rensink,Barns,2,59,ADYMIMV1PE14V,2021-01-07_18h06.37.982,MetaAwareness,2020.1.2,Win32,60,3XH7ZM9YX3X6Y2XLYV6TSSV926B9RL,ADYMIMV1PE14V,3IQ1VMJRYUNHL59YMMP9LL1NSCTA98,RVQI8,RVQI8,3IQ1VMJRYUNHL59YMMP9LL1NSCTA98,3IQ1VMJRYUNHL59YMMP9LL1NSCTA98,267888,267888,,,,,,,,,,
,,,,2,6.91696,0,27,27,249,1,train tracks in a station with more buildings beyond,train tracks in a station with people,rensink,Station,8,59,ADYMIMV1PE14V,2021-01-07_18h06.37.982,MetaAwareness,2020.1.2,Win32,60,3XH7ZM9YX3X6Y2XLYV6TSSV926B9RL,ADYMIMV1PE14V,3IQ1VMJRYUNHL59YMMP9LL1NSCTA98,RVQI8,RVQI8,3IQ1VMJRYUNHL59YMMP9LL1NSCTA98,3IQ1VMJRYUNHL59YMMP9LL1NSCTA98,267888,267888,,,,,,,,,,
,,,,4,13.80768,0,28,28,234,1,there is a woman posing next to a seal and there is a rock over the water.,there is a woman posing next to a seal and there is a rock over the water with several smaller rocks next to it.,rensink,Seal,4,59,ADYMIMV1PE14V,2021-01-07_18h06.37.982,MetaAwareness,2020.1.2,Win32,60,3XH7ZM9YX3X6Y2XLYV6TSSV926B9RL,ADYMIMV1PE14V,3IQ1VMJRYUNHL59YMMP9LL1NSCTA98,RVQI8,RVQI8,3IQ1VMJRYUNHL59YMMP9LL1NSCTA98,3IQ1VMJRYUNHL59YMMP9LL1NSCTA98,267888,267888,,,,,,,,,,
,,,,3,32.163775,0,29,29,98,1,a woman snorkling underwater next to a green reef.,a woman snorkling underwater next to a red reef.,rensink,Diver,4,59,ADYMIMV1PE14V,2021-01-07_18h06.37.982,MetaAwareness,2020.1.2,Win32,60,3XH7ZM9YX3X6Y2XLYV6TSSV926B9RL,ADYMIMV1PE14V,3IQ1VMJRYUNHL59YMMP9LL1NSCTA98,RVQI8,RVQI8,3IQ1VMJRYUNHL59YMMP9LL1NSCTA98,3IQ1VMJRYUNHL59YMMP9LL1NSCTA98,267888,267888,,,,,,,,,,
,,,,,,,,,,,,,,,,59,ADYMIMV1PE14V,2021-01-07_18h06.37.982,MetaAwareness,2020.1.2,Win32,60,3XH7ZM9YX3X6Y2XLYV6TSSV926B9RL,ADYMIMV1PE14V,3IQ1VMJRYUNHL59YMMP9LL1NSCTA98,RVQI8,RVQI8,3IQ1VMJRYUNHL59YMMP9LL1NSCTA98,3IQ1VMJRYUNHL59YMMP9LL1NSCTA98,267888,267888,6,23.430675,someone laying underneath a blue beach umbrella on a crowded beach,someone laying underneath a blue beach umbrella on a crowded beach,same,1,16.509,members of a marching band crossing a track that all have feather plumes at the front of their hats,a cluttered and rustic looking cafe with 10 hanging lights,different
