consent_response.keys,consent_response.rt,key_resp_2.keys,key_resp_2.rt,user_resp.keys,user_resp.rt,trials.thisRepN,trials.thisTrialN,trials.thisN,trials.thisIndex,trials.ran,image_1_text,image_2_text,database,image,number,age,worker_ID,date,expName,psychopyVersion,OS,frameRate,hitId,workerId,assignmentId,a,tp_a,b,tp_b,c,tp_c,catch_same_resp.keys,catch_same_resp.rt,image_1_text_catch_same,image_2_text_catch_same,image_catch_same,catch_different_resp.keys,catch_different_resp.rt,image_1_text_catch_different,image_2_text_catch_different,image_catch_different
space,4.94241,space,19.145225,1,75.86492,0,0,0,350,1,a red kitchen with tiled floor with one bowl on a shelf underneath a cabinet door,a red kitchen with tiled floor with two bowls on a shelf underneath a cabinet door,wolfe2,036_R_bowl,3,30,A11EBMORZXLJJJ,2021-01-24_12h59.44.984,MetaAwareness,2020.1.2,Win32,60,3TZDZ3Y0JT9I5XY401REM1DWZQN19O,A11EBMORZXLJJJ,32Q90QCQ1TO4SE916OIK7D5UP6XKE8,Q0Q26,Q0Q26,32Q90QCQ1TO4SE916OIK7D5UP6XKE8,32Q90QCQ1TO4SE916OIK7D5UP6XKE8,271016,271016,,,,,,,,,,
,,,,1,10.9103,0,1,1,1114,1,"a pretty looking dinning area. there is a sliding door with a potted plant in front of it off to the left near the wall, with some metallic object next to it.",a pretty looking dinning area. there is a sliding door with a potted plant in front of the sliding door. the potted plant is close to the wall and has nothing beside it.,wolfe2,116_L_basket,2,30,A11EBMORZXLJJJ,2021-01-24_12h59.44.984,MetaAwareness,2020.1.2,Win32,60,3TZDZ3Y0JT9I5XY401REM1DWZQN19O,A11EBMORZXLJJJ,32Q90QCQ1TO4SE916OIK7D5UP6XKE8,Q0Q26,Q0Q26,32Q90QCQ1TO4SE916OIK7D5UP6XKE8,32Q90QCQ1TO4SE916OIK7D5UP6XKE8,271016,271016,,,,,,,,,,
,,,,1,6.79132,0,2,2,864,1,"a hairdressers with no people in it, lots of empty black chairs, and a blue painting with something hanging above it on one of the walls","a hairdressers with no people in it, lots of empty black chairs, and a blue painting on one of the walls",wolfe2,088_R_clock,5,30,A11EBMORZXLJJJ,2021-01-24_12h59.44.984,MetaAwareness,2020.1.2,Win32,60,3TZDZ3Y0JT9I5XY401REM1DWZQN19O,A11EBMORZXLJJJ,32Q90QCQ1TO4SE916OIK7D5UP6XKE8,Q0Q26,Q0Q26,32Q90QCQ1TO4SE916OIK7D5UP6XKE8,32Q90QCQ1TO4SE916OIK7D5UP6XKE8,271016,271016,,,,,,,,,,
,,,,1,6.846615,0,3,3,177,1,a red chair placed on the corner with a plant next to it.,a red chair placed on the corner.,wolfe2,018_L_plant,6,30,A11EBMORZXLJJJ,2021-01-24_12h59.44.984,MetaAwareness,2020.1.2,Win32,60,3TZDZ3Y0JT9I5XY401REM1DWZQN19O,A11EBMORZXLJJJ,32Q90QCQ1TO4SE916OIK7D5UP6XKE8,Q0Q26,Q0Q26,32Q90QCQ1TO4SE916OIK7D5UP6XKE8,32Q90QCQ1TO4SE916OIK7D5UP6XKE8,271016,271016,,,,,,,,,,
,,,,1,7.22761,0,4,4,963,1,a farm style dining area with art work and a mirror above a shelfing unit,a farm style dining area with art work above a shelfing unit,wolfe2,099_R_sconce,3,30,A11EBMORZXLJJJ,2021-01-24_12h59.44.984,MetaAwareness,2020.1.2,Win32,60,3TZDZ3Y0JT9I5XY401REM1DWZQN19O,A11EBMORZXLJJJ,32Q90QCQ1TO4SE916OIK7D5UP6XKE8,Q0Q26,Q0Q26,32Q90QCQ1TO4SE916OIK7D5UP6XKE8,32Q90QCQ1TO4SE916OIK7D5UP6XKE8,271016,271016,,,,,,,,,,
,,,,1,0.28166,0,5,5,1103,1,"a room with a small couch and coffee table that has some things on it, including two nicknacks","a room with a small couch and coffee table that has some things on it, including one nicknack",wolfe2,114_R_bird,5,30,A11EBMORZXLJJJ,2021-01-24_12h59.44.984,MetaAwareness,2020.1.2,Win32,60,3TZDZ3Y0JT9I5XY401REM1DWZQN19O,A11EBMORZXLJJJ,32Q90QCQ1TO4SE916OIK7D5UP6XKE8,Q0Q26,Q0Q26,32Q90QCQ1TO4SE916OIK7D5UP6XKE8,32Q90QCQ1TO4SE916OIK7D5UP6XKE8,271016,271016,,,,,,,,,,
,,,,1,4.137945,0,6,6,357,1,a very luxurious bathroom designed for comfort and relationation.  ,a very relaxing room with plenty of storage space in the cabinets ,wolfe2,037_R_towel,1,30,A11EBMORZXLJJJ,2021-01-24_12h59.44.984,MetaAwareness,2020.1.2,Win32,60,3TZDZ3Y0JT9I5XY401REM1DWZQN19O,A11EBMORZXLJJJ,32Q90QCQ1TO4SE916OIK7D5UP6XKE8,Q0Q26,Q0Q26,32Q90QCQ1TO4SE916OIK7D5UP6XKE8,32Q90QCQ1TO4SE916OIK7D5UP6XKE8,271016,271016,,,,,,,,,,
,,,,1,4.513685,0,7,7,374,1,a living room that does not have any ventilation on it's ceiling.,a living room that has a fan vent on the ceiling.,wolfe2,039_R_ventilator,1,30,A11EBMORZXLJJJ,2021-01-24_12h59.44.984,MetaAwareness,2020.1.2,Win32,60,3TZDZ3Y0JT9I5XY401REM1DWZQN19O,A11EBMORZXLJJJ,32Q90QCQ1TO4SE916OIK7D5UP6XKE8,Q0Q26,Q0Q26,32Q90QCQ1TO4SE916OIK7D5UP6XKE8,32Q90QCQ1TO4SE916OIK7D5UP6XKE8,271016,271016,,,,,,,,,,
,,,,1,9.57319,0,8,8,974,1,a bathroom. there is a shelve with lots of glasses and bottes on it. on the one shelf is a red glass next two a green and red wine glasses.,"a bathroom. there is a shelf with bottls and glasses. the one shelf has a red wine glass, and green wine glass.",wolfe2,101_L_cup,1,30,A11EBMORZXLJJJ,2021-01-24_12h59.44.984,MetaAwareness,2020.1.2,Win32,60,3TZDZ3Y0JT9I5XY401REM1DWZQN19O,A11EBMORZXLJJJ,32Q90QCQ1TO4SE916OIK7D5UP6XKE8,Q0Q26,Q0Q26,32Q90QCQ1TO4SE916OIK7D5UP6XKE8,32Q90QCQ1TO4SE916OIK7D5UP6XKE8,271016,271016,,,,,,,,,,
,,,,3,8.81572,0,9,9,1091,1,a gathering room or lobby in an upscale cabin resort with a small decorative tree in the far corner,a gathering room or lobby in upscale cabin resort,wolfe2,113_R_plant,1,30,A11EBMORZXLJJJ,2021-01-24_12h59.44.984,MetaAwareness,2020.1.2,Win32,60,3TZDZ3Y0JT9I5XY401REM1DWZQN19O,A11EBMORZXLJJJ,32Q90QCQ1TO4SE916OIK7D5UP6XKE8,Q0Q26,Q0Q26,32Q90QCQ1TO4SE916OIK7D5UP6XKE8,32Q90QCQ1TO4SE916OIK7D5UP6XKE8,271016,271016,,,,,,,,,,
,,,,1,3.14739,0,10,10,401,1,tranquil and modern bathroom with one faucet and two sink bowls,tranquil and modern bathroom with two faucets and sinks,wolfe2,042_L_tap,6,30,A11EBMORZXLJJJ,2021-01-24_12h59.44.984,MetaAwareness,2020.1.2,Win32,60,3TZDZ3Y0JT9I5XY401REM1DWZQN19O,A11EBMORZXLJJJ,32Q90QCQ1TO4SE916OIK7D5UP6XKE8,Q0Q26,Q0Q26,32Q90QCQ1TO4SE916OIK7D5UP6XKE8,32Q90QCQ1TO4SE916OIK7D5UP6XKE8,271016,271016,,,,,,,,,,
,,,,1,3.50327,0,11,11,261,1,the bathroom is looks good and there is no soap box  in that room,the bathroom is looks good and there is a soap box in that room,wolfe2,027_L_soapdish,2,30,A11EBMORZXLJJJ,2021-01-24_12h59.44.984,MetaAwareness,2020.1.2,Win32,60,3TZDZ3Y0JT9I5XY401REM1DWZQN19O,A11EBMORZXLJJJ,32Q90QCQ1TO4SE916OIK7D5UP6XKE8,Q0Q26,Q0Q26,32Q90QCQ1TO4SE916OIK7D5UP6XKE8,32Q90QCQ1TO4SE916OIK7D5UP6XKE8,271016,271016,,,,,,,,,,
,,,,1,4.92795,0,12,12,271,1,a black bathroom countertop with a metal block sitting on top,a black bathroom countertop with two metal blocks sitting on top,wolfe2,028_L_vase,3,30,A11EBMORZXLJJJ,2021-01-24_12h59.44.984,MetaAwareness,2020.1.2,Win32,60,3TZDZ3Y0JT9I5XY401REM1DWZQN19O,A11EBMORZXLJJJ,32Q90QCQ1TO4SE916OIK7D5UP6XKE8,Q0Q26,Q0Q26,32Q90QCQ1TO4SE916OIK7D5UP6XKE8,32Q90QCQ1TO4SE916OIK7D5UP6XKE8,271016,271016,,,,,,,,,,
,,,,1,2.619075,0,13,13,912,1,a drab hotel room with two electrical outlets.,a drab hotel room with only one electrical outlet.,wolfe2,093_L_switch,9,30,A11EBMORZXLJJJ,2021-01-24_12h59.44.984,MetaAwareness,2020.1.2,Win32,60,3TZDZ3Y0JT9I5XY401REM1DWZQN19O,A11EBMORZXLJJJ,32Q90QCQ1TO4SE916OIK7D5UP6XKE8,Q0Q26,Q0Q26,32Q90QCQ1TO4SE916OIK7D5UP6XKE8,32Q90QCQ1TO4SE916OIK7D5UP6XKE8,271016,271016,,,,,,,,,,
,,,,1,5.61658,0,14,14,1042,1,a fitting area in a clothing store with mirrors along the wall and a clothes rack with two jackets hanging,a fitting area in a clothing store with mirrors along the wall and a clothes rack with one jacket hanging,wolfe2,107_R_shirts,3,30,A11EBMORZXLJJJ,2021-01-24_12h59.44.984,MetaAwareness,2020.1.2,Win32,60,3TZDZ3Y0JT9I5XY401REM1DWZQN19O,A11EBMORZXLJJJ,32Q90QCQ1TO4SE916OIK7D5UP6XKE8,Q0Q26,Q0Q26,32Q90QCQ1TO4SE916OIK7D5UP6XKE8,32Q90QCQ1TO4SE916OIK7D5UP6XKE8,271016,271016,,,,,,,,,,
,,,,1,2.55786,0,15,15,163,1,a bedroom with a scenic view of the trees outside. no object on the black cube in the bedroom.,a bedroom with a scenic view of the trees outside. theres a black cube display with another object on top in the bedroom.,wolfe2,016_R_art,4,30,A11EBMORZXLJJJ,2021-01-24_12h59.44.984,MetaAwareness,2020.1.2,Win32,60,3TZDZ3Y0JT9I5XY401REM1DWZQN19O,A11EBMORZXLJJJ,32Q90QCQ1TO4SE916OIK7D5UP6XKE8,Q0Q26,Q0Q26,32Q90QCQ1TO4SE916OIK7D5UP6XKE8,32Q90QCQ1TO4SE916OIK7D5UP6XKE8,271016,271016,,,,,,,,,,
,,,,1,3.31416,0,16,16,562,1,a child's bedroom decorated in primary colors and an empty space above the red and white wardrobe.,a child's bedroom decorated in primary colors and a car sitting on top of the red and white wardrobe.,wolfe2,059_L_car,1,30,A11EBMORZXLJJJ,2021-01-24_12h59.44.984,MetaAwareness,2020.1.2,Win32,60,3TZDZ3Y0JT9I5XY401REM1DWZQN19O,A11EBMORZXLJJJ,32Q90QCQ1TO4SE916OIK7D5UP6XKE8,Q0Q26,Q0Q26,32Q90QCQ1TO4SE916OIK7D5UP6XKE8,32Q90QCQ1TO4SE916OIK7D5UP6XKE8,271016,271016,,,,,,,,,,
,,,,1,3.646,0,17,17,877,1,"a very neat bedroom with a bed, mirrors and a small lamp in the corner","a very neat bedroom with a bed, mirrors and no lamp in the corner",wolfe2,090_L_lamp,2,30,A11EBMORZXLJJJ,2021-01-24_12h59.44.984,MetaAwareness,2020.1.2,Win32,60,3TZDZ3Y0JT9I5XY401REM1DWZQN19O,A11EBMORZXLJJJ,32Q90QCQ1TO4SE916OIK7D5UP6XKE8,Q0Q26,Q0Q26,32Q90QCQ1TO4SE916OIK7D5UP6XKE8,32Q90QCQ1TO4SE916OIK7D5UP6XKE8,271016,271016,,,,,,,,,,
,,,,1,2.522125,0,18,18,86,1,a modern bedroom with white walls and floors and brown furniture in it,"a modern bedroom with white walls and floors, brown furniture, and a round pale taupe rug in it",wolfe2,009_L_carpet,4,30,A11EBMORZXLJJJ,2021-01-24_12h59.44.984,MetaAwareness,2020.1.2,Win32,60,3TZDZ3Y0JT9I5XY401REM1DWZQN19O,A11EBMORZXLJJJ,32Q90QCQ1TO4SE916OIK7D5UP6XKE8,Q0Q26,Q0Q26,32Q90QCQ1TO4SE916OIK7D5UP6XKE8,32Q90QCQ1TO4SE916OIK7D5UP6XKE8,271016,271016,,,,,,,,,,
,,,,1,2.84804,0,19,19,616,1,a large dining room with a lot of natural light and a bottle of alcohol on the side table,a large dining room with a lot of natural light and a few bottles of alcohol on the side table,wolfe2,064_L_bottles,5,30,A11EBMORZXLJJJ,2021-01-24_12h59.44.984,MetaAwareness,2020.1.2,Win32,60,3TZDZ3Y0JT9I5XY401REM1DWZQN19O,A11EBMORZXLJJJ,32Q90QCQ1TO4SE916OIK7D5UP6XKE8,Q0Q26,Q0Q26,32Q90QCQ1TO4SE916OIK7D5UP6XKE8,32Q90QCQ1TO4SE916OIK7D5UP6XKE8,271016,271016,,,,,,,,,,
,,,,1,2.148385,0,20,20,855,1,a messy bathroom counter with a towel hook on the wall next to it,a messy bathroom counter with no towel hook on the wall,wolfe2,087_R_towelhandle,4,30,A11EBMORZXLJJJ,2021-01-24_12h59.44.984,MetaAwareness,2020.1.2,Win32,60,3TZDZ3Y0JT9I5XY401REM1DWZQN19O,A11EBMORZXLJJJ,32Q90QCQ1TO4SE916OIK7D5UP6XKE8,Q0Q26,Q0Q26,32Q90QCQ1TO4SE916OIK7D5UP6XKE8,32Q90QCQ1TO4SE916OIK7D5UP6XKE8,271016,271016,,,,,,,,,,
,,,,1,1.632735,0,21,21,317,1,a tidy living room in neutral tones with shelves full of decor along one wall,a tidy living room in neutral tones with shelves full of decor including a large vase along one wall,wolfe2,033_L_vase,2,30,A11EBMORZXLJJJ,2021-01-24_12h59.44.984,MetaAwareness,2020.1.2,Win32,60,3TZDZ3Y0JT9I5XY401REM1DWZQN19O,A11EBMORZXLJJJ,32Q90QCQ1TO4SE916OIK7D5UP6XKE8,Q0Q26,Q0Q26,32Q90QCQ1TO4SE916OIK7D5UP6XKE8,32Q90QCQ1TO4SE916OIK7D5UP6XKE8,271016,271016,,,,,,,,,,
,,,,2,7.917885,0,22,22,1206,1,a little stool appears in the right corner,no one has appear in the right corner yellow space,wolfe2,125_R_sofa,1,30,A11EBMORZXLJJJ,2021-01-24_12h59.44.984,MetaAwareness,2020.1.2,Win32,60,3TZDZ3Y0JT9I5XY401REM1DWZQN19O,A11EBMORZXLJJJ,32Q90QCQ1TO4SE916OIK7D5UP6XKE8,Q0Q26,Q0Q26,32Q90QCQ1TO4SE916OIK7D5UP6XKE8,32Q90QCQ1TO4SE916OIK7D5UP6XKE8,271016,271016,,,,,,,,,,
,,,,3,6.251745,0,23,23,992,1,a bathroom with dual sinks with mohagany drawers and cabinets  and also a coat hook at the left hand side,a bathroom with dual sinks with mohagany drawers and cabinets,wolfe2,103_L_hook,2,30,A11EBMORZXLJJJ,2021-01-24_12h59.44.984,MetaAwareness,2020.1.2,Win32,60,3TZDZ3Y0JT9I5XY401REM1DWZQN19O,A11EBMORZXLJJJ,32Q90QCQ1TO4SE916OIK7D5UP6XKE8,Q0Q26,Q0Q26,32Q90QCQ1TO4SE916OIK7D5UP6XKE8,32Q90QCQ1TO4SE916OIK7D5UP6XKE8,271016,271016,,,,,,,,,,
,,,,2,4.42863,0,24,24,1197,1,a lovely room with an enticing view of nature.  a small piece of art is sitting on the floor.,"the view is not distracted by anything.  there is a small corner of the carpet but otherwise, the view is very appealing.",wolfe2,124_R_vase,2,30,A11EBMORZXLJJJ,2021-01-24_12h59.44.984,MetaAwareness,2020.1.2,Win32,60,3TZDZ3Y0JT9I5XY401REM1DWZQN19O,A11EBMORZXLJJJ,32Q90QCQ1TO4SE916OIK7D5UP6XKE8,Q0Q26,Q0Q26,32Q90QCQ1TO4SE916OIK7D5UP6XKE8,32Q90QCQ1TO4SE916OIK7D5UP6XKE8,271016,271016,,,,,,,,,,
,,,,2,4.29701,0,25,25,794,1,a closed drawer,an open end of a drawer,wolfe2,082_L_bowl,4,30,A11EBMORZXLJJJ,2021-01-24_12h59.44.984,MetaAwareness,2020.1.2,Win32,60,3TZDZ3Y0JT9I5XY401REM1DWZQN19O,A11EBMORZXLJJJ,32Q90QCQ1TO4SE916OIK7D5UP6XKE8,Q0Q26,Q0Q26,32Q90QCQ1TO4SE916OIK7D5UP6XKE8,32Q90QCQ1TO4SE916OIK7D5UP6XKE8,271016,271016,,,,,,,,,,
,,,,1,4.489805,0,26,26,1191,1,"a lounge area with lumbar supported chairs, a glass table, and miniature oval shaped lamp","a lounge area with lumbar supported chairs, a glass table, and clear overview of nature from outside",wolfe2,124_L_vase,2,30,A11EBMORZXLJJJ,2021-01-24_12h59.44.984,MetaAwareness,2020.1.2,Win32,60,3TZDZ3Y0JT9I5XY401REM1DWZQN19O,A11EBMORZXLJJJ,32Q90QCQ1TO4SE916OIK7D5UP6XKE8,Q0Q26,Q0Q26,32Q90QCQ1TO4SE916OIK7D5UP6XKE8,32Q90QCQ1TO4SE916OIK7D5UP6XKE8,271016,271016,,,,,,,,,,
,,,,1,4.98274,0,27,27,7,1,it's a very elegant colored bedroom with fancy paintings and colors all around,"it's still very elegantly colored bedroom with fancy art and decorations, but theres a mirror on the wall now as well.",wolfe2,001_R_mirror,3,30,A11EBMORZXLJJJ,2021-01-24_12h59.44.984,MetaAwareness,2020.1.2,Win32,60,3TZDZ3Y0JT9I5XY401REM1DWZQN19O,A11EBMORZXLJJJ,32Q90QCQ1TO4SE916OIK7D5UP6XKE8,Q0Q26,Q0Q26,32Q90QCQ1TO4SE916OIK7D5UP6XKE8,32Q90QCQ1TO4SE916OIK7D5UP6XKE8,271016,271016,,,,,,,,,,
,,,,1,4.984635,0,28,28,611,1,a very modern living room with a desk with nothing on it,a very modern living room with a desk with a notebook on it,wolfe2,063_R_laptop,4,30,A11EBMORZXLJJJ,2021-01-24_12h59.44.984,MetaAwareness,2020.1.2,Win32,60,3TZDZ3Y0JT9I5XY401REM1DWZQN19O,A11EBMORZXLJJJ,32Q90QCQ1TO4SE916OIK7D5UP6XKE8,Q0Q26,Q0Q26,32Q90QCQ1TO4SE916OIK7D5UP6XKE8,32Q90QCQ1TO4SE916OIK7D5UP6XKE8,271016,271016,,,,,,,,,,
,,,,1,2.647515,0,29,29,530,1,a home studio or bedroom with some nice bright red colors and office,a home studio or bedroom with nice bright red colors and office but it has three rugs instead of two,wolfe2,055_R_carpet,4,30,A11EBMORZXLJJJ,2021-01-24_12h59.44.984,MetaAwareness,2020.1.2,Win32,60,3TZDZ3Y0JT9I5XY401REM1DWZQN19O,A11EBMORZXLJJJ,32Q90QCQ1TO4SE916OIK7D5UP6XKE8,Q0Q26,Q0Q26,32Q90QCQ1TO4SE916OIK7D5UP6XKE8,32Q90QCQ1TO4SE916OIK7D5UP6XKE8,271016,271016,,,,,,,,,,
,,,,,,,,,,,,,,,,30,A11EBMORZXLJJJ,2021-01-24_12h59.44.984,MetaAwareness,2020.1.2,Win32,60,3TZDZ3Y0JT9I5XY401REM1DWZQN19O,A11EBMORZXLJJJ,32Q90QCQ1TO4SE916OIK7D5UP6XKE8,Q0Q26,Q0Q26,32Q90QCQ1TO4SE916OIK7D5UP6XKE8,32Q90QCQ1TO4SE916OIK7D5UP6XKE8,271016,271016,1,5.27812,someone laying underneath a blue beach umbrella on a crowded beach,someone laying underneath a blue beach umbrella on a crowded beach,same,2,3.414455,members of a marching band crossing a track that all have feather plumes at the front of their hats,a cluttered and rustic looking cafe with 10 hanging lights,different
