consent_response.keys,consent_response.rt,key_resp_2.keys,key_resp_2.rt,user_resp.keys,user_resp.rt,trials.thisRepN,trials.thisTrialN,trials.thisN,trials.thisIndex,trials.ran,image_1_text,image_2_text,database,image,number,age,worker_ID,date,expName,psychopyVersion,OS,frameRate,hitId,workerId,assignmentId,a,tp_a,b,tp_b,c,tp_c,catch_same_resp.keys,catch_same_resp.rt,image_1_text_catch_same,image_2_text_catch_same,image_catch_same,catch_different_resp.keys,catch_different_resp.rt,image_1_text_catch_different,image_2_text_catch_different,image_catch_different
space,2.942385,space,8.48327,5,8.164825,0,0,0,301,1,a modern looking living room that has 1 ceiling beam.,a modern looking living room that has 2 ceiling beams.,wolfe2,031_R_log,1,26,A11JIMV1EQESIC,2021-01-24_08h54.20.918,MetaAwareness,2020.1.2,MacIntel,60,3D42WVSDH9YOWD0KFCYFAKAH99OFYP,A11JIMV1EQESIC,3G5W44VEU8L2CS5SCJ887GQ62M5KGI,E45G6,E45G6,3G5W44VEU8L2CS5SCJ887GQ62M5KGI,3G5W44VEU8L2CS5SCJ887GQ62M5KGI,271016,271016,,,,,,,,,,
,,,,5,6.954725,0,1,1,595,1,country feeling living room with no items sitting in the fireplace,country feeling living room with an item sitting in the fireplace,wolfe2,062_L_flowers,3,26,A11JIMV1EQESIC,2021-01-24_08h54.20.918,MetaAwareness,2020.1.2,MacIntel,60,3D42WVSDH9YOWD0KFCYFAKAH99OFYP,A11JIMV1EQESIC,3G5W44VEU8L2CS5SCJ887GQ62M5KGI,E45G6,E45G6,3G5W44VEU8L2CS5SCJ887GQ62M5KGI,3G5W44VEU8L2CS5SCJ887GQ62M5KGI,271016,271016,,,,,,,,,,
,,,,4,12.42675,0,2,2,1236,1,an office area with a book shelf and desk.  the desk has a lamp on the left side. ,an office area with a book shelf and desk.,wolfe2,128_R_pot,2,26,A11JIMV1EQESIC,2021-01-24_08h54.20.918,MetaAwareness,2020.1.2,MacIntel,60,3D42WVSDH9YOWD0KFCYFAKAH99OFYP,A11JIMV1EQESIC,3G5W44VEU8L2CS5SCJ887GQ62M5KGI,E45G6,E45G6,3G5W44VEU8L2CS5SCJ887GQ62M5KGI,3G5W44VEU8L2CS5SCJ887GQ62M5KGI,271016,271016,,,,,,,,,,
,,,,4,9.224745,0,3,3,625,1,"a youth bedroom in tan tones. there's a bed, a desk, and a shelf for media. there are three stacks on the longer shelf.","a youth bedroom in tan tones. there's a bed, a desk, and a shelf for media.  there are four stacks on the longer shelf.",wolfe2,065_L_cd,3,26,A11JIMV1EQESIC,2021-01-24_08h54.20.918,MetaAwareness,2020.1.2,MacIntel,60,3D42WVSDH9YOWD0KFCYFAKAH99OFYP,A11JIMV1EQESIC,3G5W44VEU8L2CS5SCJ887GQ62M5KGI,E45G6,E45G6,3G5W44VEU8L2CS5SCJ887GQ62M5KGI,3G5W44VEU8L2CS5SCJ887GQ62M5KGI,271016,271016,,,,,,,,,,
,,,,5,6.74536,0,4,4,200,1,an office space with a with just a keyboard pad,an office space with a keyboard on a keyboard pad,wolfe2,021_L_keyboard,3,26,A11JIMV1EQESIC,2021-01-24_08h54.20.918,MetaAwareness,2020.1.2,MacIntel,60,3D42WVSDH9YOWD0KFCYFAKAH99OFYP,A11JIMV1EQESIC,3G5W44VEU8L2CS5SCJ887GQ62M5KGI,E45G6,E45G6,3G5W44VEU8L2CS5SCJ887GQ62M5KGI,3G5W44VEU8L2CS5SCJ887GQ62M5KGI,271016,271016,,,,,,,,,,
,,,,1,5.289275,0,5,5,704,1,switch board has ,in its does not have,wolfe2,073_R_coffeemug,2,26,A11JIMV1EQESIC,2021-01-24_08h54.20.918,MetaAwareness,2020.1.2,MacIntel,60,3D42WVSDH9YOWD0KFCYFAKAH99OFYP,A11JIMV1EQESIC,3G5W44VEU8L2CS5SCJ887GQ62M5KGI,E45G6,E45G6,3G5W44VEU8L2CS5SCJ887GQ62M5KGI,3G5W44VEU8L2CS5SCJ887GQ62M5KGI,271016,271016,,,,,,,,,,
,,,,5,13.11068,0,6,6,272,1,a modern bathroom with a tub filling with water and a hand towel or a vase on the vanity,a modern bathroom with a tub filling with water and two hand towels or vases on the vanity,wolfe2,028_L_vase,4,26,A11JIMV1EQESIC,2021-01-24_08h54.20.918,MetaAwareness,2020.1.2,MacIntel,60,3D42WVSDH9YOWD0KFCYFAKAH99OFYP,A11JIMV1EQESIC,3G5W44VEU8L2CS5SCJ887GQ62M5KGI,E45G6,E45G6,3G5W44VEU8L2CS5SCJ887GQ62M5KGI,3G5W44VEU8L2CS5SCJ887GQ62M5KGI,271016,271016,,,,,,,,,,
,,,,4,6.789025,0,7,7,638,1,a very modern looking living room with a black accent wall,a very modern looking living room with a white vase set against a black accent wall,wolfe2,066_L_vase,4,26,A11JIMV1EQESIC,2021-01-24_08h54.20.918,MetaAwareness,2020.1.2,MacIntel,60,3D42WVSDH9YOWD0KFCYFAKAH99OFYP,A11JIMV1EQESIC,3G5W44VEU8L2CS5SCJ887GQ62M5KGI,E45G6,E45G6,3G5W44VEU8L2CS5SCJ887GQ62M5KGI,3G5W44VEU8L2CS5SCJ887GQ62M5KGI,271016,271016,,,,,,,,,,
,,,,4,6.48333,0,8,8,610,1,an eating or hangout area next to a fireplace with open doors,"an eating or hangout area next to a fireplace with open doors to outside, and a computer on the desk on the upper level",wolfe2,063_R_laptop,3,26,A11JIMV1EQESIC,2021-01-24_08h54.20.918,MetaAwareness,2020.1.2,MacIntel,60,3D42WVSDH9YOWD0KFCYFAKAH99OFYP,A11JIMV1EQESIC,3G5W44VEU8L2CS5SCJ887GQ62M5KGI,E45G6,E45G6,3G5W44VEU8L2CS5SCJ887GQ62M5KGI,3G5W44VEU8L2CS5SCJ887GQ62M5KGI,271016,271016,,,,,,,,,,
,,,,5,4.633865,0,9,9,591,1,a set dining room table with three wine glasses,a set dining room table with four wine glasses,wolfe2,061_R_glass,6,26,A11JIMV1EQESIC,2021-01-24_08h54.20.918,MetaAwareness,2020.1.2,MacIntel,60,3D42WVSDH9YOWD0KFCYFAKAH99OFYP,A11JIMV1EQESIC,3G5W44VEU8L2CS5SCJ887GQ62M5KGI,E45G6,E45G6,3G5W44VEU8L2CS5SCJ887GQ62M5KGI,3G5W44VEU8L2CS5SCJ887GQ62M5KGI,271016,271016,,,,,,,,,,
,,,,5,4.754615,0,10,10,478,1,an office space that is neat and tidy with a bookcase with 5 shelves of books on it,an office space that is neat and tidy with a bookcase with 6 shelves of books on it,wolfe2,050_L_book,5,26,A11JIMV1EQESIC,2021-01-24_08h54.20.918,MetaAwareness,2020.1.2,MacIntel,60,3D42WVSDH9YOWD0KFCYFAKAH99OFYP,A11JIMV1EQESIC,3G5W44VEU8L2CS5SCJ887GQ62M5KGI,E45G6,E45G6,3G5W44VEU8L2CS5SCJ887GQ62M5KGI,3G5W44VEU8L2CS5SCJ887GQ62M5KGI,271016,271016,,,,,,,,,,
,,,,4,13.36019,0,11,11,240,1,there are two stacks of towels folded under the sink in the bathroom.,there are three stacks of folded towels under the sink in the bathroom. ,wolfe2,024_R_towels,2,26,A11JIMV1EQESIC,2021-01-24_08h54.20.918,MetaAwareness,2020.1.2,MacIntel,60,3D42WVSDH9YOWD0KFCYFAKAH99OFYP,A11JIMV1EQESIC,3G5W44VEU8L2CS5SCJ887GQ62M5KGI,E45G6,E45G6,3G5W44VEU8L2CS5SCJ887GQ62M5KGI,3G5W44VEU8L2CS5SCJ887GQ62M5KGI,271016,271016,,,,,,,,,,
,,,,5,4.70483,0,12,12,631,1,a bedroom that is clean and has a semifull bookcase,a bedroom that is clean and has a full bookcase,wolfe2,065_R_cd,4,26,A11JIMV1EQESIC,2021-01-24_08h54.20.918,MetaAwareness,2020.1.2,MacIntel,60,3D42WVSDH9YOWD0KFCYFAKAH99OFYP,A11JIMV1EQESIC,3G5W44VEU8L2CS5SCJ887GQ62M5KGI,E45G6,E45G6,3G5W44VEU8L2CS5SCJ887GQ62M5KGI,3G5W44VEU8L2CS5SCJ887GQ62M5KGI,271016,271016,,,,,,,,,,
,,,,6,11.30257,0,13,13,51,1,the living room with king bed and table top on the left handside without a vessel as decoration,the living room with king bed and table top on the left handside with a vessel as decoration,wolfe2,006_L_vase,6,26,A11JIMV1EQESIC,2021-01-24_08h54.20.918,MetaAwareness,2020.1.2,MacIntel,60,3D42WVSDH9YOWD0KFCYFAKAH99OFYP,A11JIMV1EQESIC,3G5W44VEU8L2CS5SCJ887GQ62M5KGI,E45G6,E45G6,3G5W44VEU8L2CS5SCJ887GQ62M5KGI,3G5W44VEU8L2CS5SCJ887GQ62M5KGI,271016,271016,,,,,,,,,,
,,,,4,21.81779,0,14,14,1216,1,"a living room with a l shaped couch, automan, mounted tv and shelves.  the shelf has a candle under the tv","a living room with a l shaped couch, automan, mounted tv and shelves. ",wolfe2,126_R_candles,3,26,A11JIMV1EQESIC,2021-01-24_08h54.20.918,MetaAwareness,2020.1.2,MacIntel,60,3D42WVSDH9YOWD0KFCYFAKAH99OFYP,A11JIMV1EQESIC,3G5W44VEU8L2CS5SCJ887GQ62M5KGI,E45G6,E45G6,3G5W44VEU8L2CS5SCJ887GQ62M5KGI,3G5W44VEU8L2CS5SCJ887GQ62M5KGI,271016,271016,,,,,,,,,,
,,,,5,8.623205,0,15,15,285,1,"a bathroom with a shower, two sinks and two mirrors with two red cups on a small shelf","a bathroom with a shower, two sinks and two mirrors with three red cups on a small shelf",wolfe2,029_R_glass,4,26,A11JIMV1EQESIC,2021-01-24_08h54.20.918,MetaAwareness,2020.1.2,MacIntel,60,3D42WVSDH9YOWD0KFCYFAKAH99OFYP,A11JIMV1EQESIC,3G5W44VEU8L2CS5SCJ887GQ62M5KGI,E45G6,E45G6,3G5W44VEU8L2CS5SCJ887GQ62M5KGI,3G5W44VEU8L2CS5SCJ887GQ62M5KGI,271016,271016,,,,,,,,,,
,,,,4,39.45435,0,16,16,1134,1,an office area just inside a patio area with large glass doors.  there is a tall house plant inside the office area on the left side of the patio doors and there is an item on the floor in front of the house plant.,an office area just inside a patio area with large glass doors.  ther is a tall house plant inside the office area on the left side of the patio doors.,wolfe2,118_L_shoes,4,26,A11JIMV1EQESIC,2021-01-24_08h54.20.918,MetaAwareness,2020.1.2,MacIntel,60,3D42WVSDH9YOWD0KFCYFAKAH99OFYP,A11JIMV1EQESIC,3G5W44VEU8L2CS5SCJ887GQ62M5KGI,E45G6,E45G6,3G5W44VEU8L2CS5SCJ887GQ62M5KGI,3G5W44VEU8L2CS5SCJ887GQ62M5KGI,271016,271016,,,,,,,,,,
,,,,5,9.365295,0,17,17,1140,1,a living room with shoes near the door,a living room with no shoes near the door,wolfe2,118_R_shoes,4,26,A11JIMV1EQESIC,2021-01-24_08h54.20.918,MetaAwareness,2020.1.2,MacIntel,60,3D42WVSDH9YOWD0KFCYFAKAH99OFYP,A11JIMV1EQESIC,3G5W44VEU8L2CS5SCJ887GQ62M5KGI,E45G6,E45G6,3G5W44VEU8L2CS5SCJ887GQ62M5KGI,3G5W44VEU8L2CS5SCJ887GQ62M5KGI,271016,271016,,,,,,,,,,
,,,,5,7.20388,0,18,18,760,1,"a bathroom decorated with blue walls and white tile, with a black sink consisting of one faucet knob","a bathroom decorated with blue walls and white tile, with a black sink consisting of two faucet knobs",wolfe2,078_R_faucet,3,26,A11JIMV1EQESIC,2021-01-24_08h54.20.918,MetaAwareness,2020.1.2,MacIntel,60,3D42WVSDH9YOWD0KFCYFAKAH99OFYP,A11JIMV1EQESIC,3G5W44VEU8L2CS5SCJ887GQ62M5KGI,E45G6,E45G6,3G5W44VEU8L2CS5SCJ887GQ62M5KGI,3G5W44VEU8L2CS5SCJ887GQ62M5KGI,271016,271016,,,,,,,,,,
,,,,5,20.58705,0,19,19,473,1,a stylish bedroom that doesn't have any framed pictures on the walls next to the large full length mirror.,a stylish bedroom that has one framed picture on the wall next to the large full length mirror.,wolfe2,049_R_painting,4,26,A11JIMV1EQESIC,2021-01-24_08h54.20.918,MetaAwareness,2020.1.2,MacIntel,60,3D42WVSDH9YOWD0KFCYFAKAH99OFYP,A11JIMV1EQESIC,3G5W44VEU8L2CS5SCJ887GQ62M5KGI,E45G6,E45G6,3G5W44VEU8L2CS5SCJ887GQ62M5KGI,3G5W44VEU8L2CS5SCJ887GQ62M5KGI,271016,271016,,,,,,,,,,
,,,,4,6.61954,0,20,20,1063,1,a windowed room of a house looking to a pool with a shrub in the corner of the room,a windowed room of a house looking to a pool.,wolfe2,110_L_plant,4,26,A11JIMV1EQESIC,2021-01-24_08h54.20.918,MetaAwareness,2020.1.2,MacIntel,60,3D42WVSDH9YOWD0KFCYFAKAH99OFYP,A11JIMV1EQESIC,3G5W44VEU8L2CS5SCJ887GQ62M5KGI,E45G6,E45G6,3G5W44VEU8L2CS5SCJ887GQ62M5KGI,3G5W44VEU8L2CS5SCJ887GQ62M5KGI,271016,271016,,,,,,,,,,
,,,,4,10.907415,0,21,21,994,1,bathroom with 2 sinks and a shower thremostat and towle hook on the wall,bathroom with 2 sinks and a shower thermostat is on the wall,wolfe2,103_L_hook,4,26,A11JIMV1EQESIC,2021-01-24_08h54.20.918,MetaAwareness,2020.1.2,MacIntel,60,3D42WVSDH9YOWD0KFCYFAKAH99OFYP,A11JIMV1EQESIC,3G5W44VEU8L2CS5SCJ887GQ62M5KGI,E45G6,E45G6,3G5W44VEU8L2CS5SCJ887GQ62M5KGI,3G5W44VEU8L2CS5SCJ887GQ62M5KGI,271016,271016,,,,,,,,,,
,,,,4,35.57048,0,22,22,902,1,a living room seating area with a large mirror and a fireplace holding two candles,a living room seating area with a large mirror and an empty fireplace,wolfe2,092_R_candles,4,26,A11JIMV1EQESIC,2021-01-24_08h54.20.918,MetaAwareness,2020.1.2,MacIntel,60,3D42WVSDH9YOWD0KFCYFAKAH99OFYP,A11JIMV1EQESIC,3G5W44VEU8L2CS5SCJ887GQ62M5KGI,E45G6,E45G6,3G5W44VEU8L2CS5SCJ887GQ62M5KGI,3G5W44VEU8L2CS5SCJ887GQ62M5KGI,271016,271016,,,,,,,,,,
,,,,5,2.50335,0,23,23,306,1,a bathroom with a soap dispenser on the wall,a bathroom with 2 soap dispensers on the wall,wolfe2,032_L_bottle,1,26,A11JIMV1EQESIC,2021-01-24_08h54.20.918,MetaAwareness,2020.1.2,MacIntel,60,3D42WVSDH9YOWD0KFCYFAKAH99OFYP,A11JIMV1EQESIC,3G5W44VEU8L2CS5SCJ887GQ62M5KGI,E45G6,E45G6,3G5W44VEU8L2CS5SCJ887GQ62M5KGI,3G5W44VEU8L2CS5SCJ887GQ62M5KGI,271016,271016,,,,,,,,,,
,,,,5,3.36262,0,24,24,870,1,a beauty salon with two posters on the left wall,a beauty salon with one poster on the left wall,wolfe2,089_L_poster,6,26,A11JIMV1EQESIC,2021-01-24_08h54.20.918,MetaAwareness,2020.1.2,MacIntel,60,3D42WVSDH9YOWD0KFCYFAKAH99OFYP,A11JIMV1EQESIC,3G5W44VEU8L2CS5SCJ887GQ62M5KGI,E45G6,E45G6,3G5W44VEU8L2CS5SCJ887GQ62M5KGI,3G5W44VEU8L2CS5SCJ887GQ62M5KGI,271016,271016,,,,,,,,,,
,,,,4,7.571565,0,25,25,281,1,"a bathroom with white walls and black shelves, one of which has two red glasses","a bathroom with white walls and black shelves, one of which has a row of three red glasses",wolfe2,029_L_glass,4,26,A11JIMV1EQESIC,2021-01-24_08h54.20.918,MetaAwareness,2020.1.2,MacIntel,60,3D42WVSDH9YOWD0KFCYFAKAH99OFYP,A11JIMV1EQESIC,3G5W44VEU8L2CS5SCJ887GQ62M5KGI,E45G6,E45G6,3G5W44VEU8L2CS5SCJ887GQ62M5KGI,3G5W44VEU8L2CS5SCJ887GQ62M5KGI,271016,271016,,,,,,,,,,
,,,,3,7.923695,0,26,26,769,1,a kitchen with white cabentry and black countertops and white shelfs that are all filled with diningware except for the top shelf directly to the right of the stove.,a kitchen with white cabintry and black countertops and white shelfs that are filled with diningware.,wolfe2,079_R_bowl,1,26,A11JIMV1EQESIC,2021-01-24_08h54.20.918,MetaAwareness,2020.1.2,MacIntel,60,3D42WVSDH9YOWD0KFCYFAKAH99OFYP,A11JIMV1EQESIC,3G5W44VEU8L2CS5SCJ887GQ62M5KGI,E45G6,E45G6,3G5W44VEU8L2CS5SCJ887GQ62M5KGI,3G5W44VEU8L2CS5SCJ887GQ62M5KGI,271016,271016,,,,,,,,,,
,,,,5,7.759275,0,27,27,735,1,a bathroom with no towel hook on the wall,a bathroom with a towel hook on the wall,wolfe2,076_L_hook,5,26,A11JIMV1EQESIC,2021-01-24_08h54.20.918,MetaAwareness,2020.1.2,MacIntel,60,3D42WVSDH9YOWD0KFCYFAKAH99OFYP,A11JIMV1EQESIC,3G5W44VEU8L2CS5SCJ887GQ62M5KGI,E45G6,E45G6,3G5W44VEU8L2CS5SCJ887GQ62M5KGI,3G5W44VEU8L2CS5SCJ887GQ62M5KGI,271016,271016,,,,,,,,,,
,,,,2,6.60749,0,28,28,102,1,a short candlestick by a bed,two long candlesticks sitting on small end table,wolfe2,010_R_candle,7,26,A11JIMV1EQESIC,2021-01-24_08h54.20.918,MetaAwareness,2020.1.2,MacIntel,60,3D42WVSDH9YOWD0KFCYFAKAH99OFYP,A11JIMV1EQESIC,3G5W44VEU8L2CS5SCJ887GQ62M5KGI,E45G6,E45G6,3G5W44VEU8L2CS5SCJ887GQ62M5KGI,3G5W44VEU8L2CS5SCJ887GQ62M5KGI,271016,271016,,,,,,,,,,
,,,,3,7.95509,0,29,29,569,1,an empty wardrobe top in the chilren room,a toy car placed on the wardrobe in te children room.,wolfe2,059_R_car,4,26,A11JIMV1EQESIC,2021-01-24_08h54.20.918,MetaAwareness,2020.1.2,MacIntel,60,3D42WVSDH9YOWD0KFCYFAKAH99OFYP,A11JIMV1EQESIC,3G5W44VEU8L2CS5SCJ887GQ62M5KGI,E45G6,E45G6,3G5W44VEU8L2CS5SCJ887GQ62M5KGI,3G5W44VEU8L2CS5SCJ887GQ62M5KGI,271016,271016,,,,,,,,,,
,,,,,,,,,,,,,,,,26,A11JIMV1EQESIC,2021-01-24_08h54.20.918,MetaAwareness,2020.1.2,MacIntel,60,3D42WVSDH9YOWD0KFCYFAKAH99OFYP,A11JIMV1EQESIC,3G5W44VEU8L2CS5SCJ887GQ62M5KGI,E45G6,E45G6,3G5W44VEU8L2CS5SCJ887GQ62M5KGI,3G5W44VEU8L2CS5SCJ887GQ62M5KGI,271016,271016,6,10.423765,someone laying underneath a blue beach umbrella on a crowded beach,someone laying underneath a blue beach umbrella on a crowded beach,same,1,5.13754,members of a marching band crossing a track that all have feather plumes at the front of their hats,a cluttered and rustic looking cafe with 10 hanging lights,different
