consent_response.keys,consent_response.rt,key_resp_2.keys,key_resp_2.rt,user_resp.keys,user_resp.rt,trials.thisRepN,trials.thisTrialN,trials.thisN,trials.thisIndex,trials.ran,image_1_text,image_2_text,database,image,number,age,worker_ID,date,expName,psychopyVersion,OS,frameRate,hitId,workerId,assignmentId,a,tp_a,b,tp_b,c,tp_c,catch_same_resp.keys,catch_same_resp.rt,image_1_text_catch_same,image_2_text_catch_same,image_catch_same,catch_different_resp.keys,catch_different_resp.rt,image_1_text_catch_different,image_2_text_catch_different,image_catch_different
space,42.541,space,8.263,4,15.828,0,0,0,960,1,"a dining rom with a table and chairs, a mirror, a storage unit and a candle hanging on the wall. "," a dining room with a table and chairs, a storage unit and a large mirror. ",wolfe2,099_L_sconce,5,52,A14FL5X45SQEFT,2021-01-24_08h34.55.558,MetaAwareness,2020.1.2,Win32,60,39O0SQZVJOA2KJ9SJY89EW438YP7RA,A14FL5X45SQEFT,3QFUFYSY9ZIBKQKUG7FAIE1Y4LD4FB,YFFQ6,YFFQ6,3QFUFYSY9ZIBKQKUG7FAIE1Y4LD4FB,3QFUFYSY9ZIBKQKUG7FAIE1Y4LD4FB,271016,271016,,,,,,,,,,
,,,,5,3.645,0,1,1,738,1,spa like bathroom with neutral wall color,spa like bathroomwith neutral wall color and white towel fixture,wolfe2,076_R_hook,2,52,A14FL5X45SQEFT,2021-01-24_08h34.55.558,MetaAwareness,2020.1.2,Win32,60,39O0SQZVJOA2KJ9SJY89EW438YP7RA,A14FL5X45SQEFT,3QFUFYSY9ZIBKQKUG7FAIE1Y4LD4FB,YFFQ6,YFFQ6,3QFUFYSY9ZIBKQKUG7FAIE1Y4LD4FB,3QFUFYSY9ZIBKQKUG7FAIE1Y4LD4FB,271016,271016,,,,,,,,,,
,,,,3,12.704,0,2,2,586,1,"a modern dining room set for four, with a wine glass missing from one setting",a modern dining room set for four,wolfe2,061_R_glass,1,52,A14FL5X45SQEFT,2021-01-24_08h34.55.558,MetaAwareness,2020.1.2,Win32,60,39O0SQZVJOA2KJ9SJY89EW438YP7RA,A14FL5X45SQEFT,3QFUFYSY9ZIBKQKUG7FAIE1Y4LD4FB,YFFQ6,YFFQ6,3QFUFYSY9ZIBKQKUG7FAIE1Y4LD4FB,3QFUFYSY9ZIBKQKUG7FAIE1Y4LD4FB,271016,271016,,,,,,,,,,
,,,,4,6.951,0,3,3,867,1,a simple hair salon with decorated images of hair cuts and different individuals,a simple hair salon with minimal decor of images of hair cuts and different individuals,wolfe2,089_L_poster,3,52,A14FL5X45SQEFT,2021-01-24_08h34.55.558,MetaAwareness,2020.1.2,Win32,60,39O0SQZVJOA2KJ9SJY89EW438YP7RA,A14FL5X45SQEFT,3QFUFYSY9ZIBKQKUG7FAIE1Y4LD4FB,YFFQ6,YFFQ6,3QFUFYSY9ZIBKQKUG7FAIE1Y4LD4FB,3QFUFYSY9ZIBKQKUG7FAIE1Y4LD4FB,271016,271016,,,,,,,,,,
,,,,4,5.842,0,4,4,368,1,the center wall in the dining room is bare,the center wall of the dining room has a tall narrow piece of art.,wolfe2,038_R_art,3,52,A14FL5X45SQEFT,2021-01-24_08h34.55.558,MetaAwareness,2020.1.2,Win32,60,39O0SQZVJOA2KJ9SJY89EW438YP7RA,A14FL5X45SQEFT,3QFUFYSY9ZIBKQKUG7FAIE1Y4LD4FB,YFFQ6,YFFQ6,3QFUFYSY9ZIBKQKUG7FAIE1Y4LD4FB,3QFUFYSY9ZIBKQKUG7FAIE1Y4LD4FB,271016,271016,,,,,,,,,,
,,,,3,1.917,0,5,5,159,1,"a minimalistic living room in a modern home, with a pedestal that has nothing on it.","a minimalistic living room in a modern home, with a pedestal that has an artistic object on it.",wolfe2,016_L_art,6,52,A14FL5X45SQEFT,2021-01-24_08h34.55.558,MetaAwareness,2020.1.2,Win32,60,39O0SQZVJOA2KJ9SJY89EW438YP7RA,A14FL5X45SQEFT,3QFUFYSY9ZIBKQKUG7FAIE1Y4LD4FB,YFFQ6,YFFQ6,3QFUFYSY9ZIBKQKUG7FAIE1Y4LD4FB,3QFUFYSY9ZIBKQKUG7FAIE1Y4LD4FB,271016,271016,,,,,,,,,,
,,,,4,5.159,0,6,6,2,1,antique-style room decorated in green and beige,antiques-style room with a small mirror to the left of a curtain,wolfe2,001_L_mirror,3,52,A14FL5X45SQEFT,2021-01-24_08h34.55.558,MetaAwareness,2020.1.2,Win32,60,39O0SQZVJOA2KJ9SJY89EW438YP7RA,A14FL5X45SQEFT,3QFUFYSY9ZIBKQKUG7FAIE1Y4LD4FB,YFFQ6,YFFQ6,3QFUFYSY9ZIBKQKUG7FAIE1Y4LD4FB,3QFUFYSY9ZIBKQKUG7FAIE1Y4LD4FB,271016,271016,,,,,,,,,,
,,,,4,3.651,0,7,7,115,1,a very clean bathroom with a tub and two sinks below a mirror,a bathroom with a tub with a drain below the faucet and two sinks below a mirror,wolfe2,012_L_tubaccesory,4,52,A14FL5X45SQEFT,2021-01-24_08h34.55.558,MetaAwareness,2020.1.2,Win32,60,39O0SQZVJOA2KJ9SJY89EW438YP7RA,A14FL5X45SQEFT,3QFUFYSY9ZIBKQKUG7FAIE1Y4LD4FB,YFFQ6,YFFQ6,3QFUFYSY9ZIBKQKUG7FAIE1Y4LD4FB,3QFUFYSY9ZIBKQKUG7FAIE1Y4LD4FB,271016,271016,,,,,,,,,,
,,,,4,4.013,0,8,8,510,1,stone feeling bathroom with a cabinet and drawer missing a pull,stone feeling bathroom with a cabinet and drawer,wolfe2,053_R_handle,1,52,A14FL5X45SQEFT,2021-01-24_08h34.55.558,MetaAwareness,2020.1.2,Win32,60,39O0SQZVJOA2KJ9SJY89EW438YP7RA,A14FL5X45SQEFT,3QFUFYSY9ZIBKQKUG7FAIE1Y4LD4FB,YFFQ6,YFFQ6,3QFUFYSY9ZIBKQKUG7FAIE1Y4LD4FB,3QFUFYSY9ZIBKQKUG7FAIE1Y4LD4FB,271016,271016,,,,,,,,,,
,,,,3,3.549,0,9,9,289,1,a bathroom where you can walk to the window,a bathroom with a counter in front of the window,wolfe2,030_L_drawer,4,52,A14FL5X45SQEFT,2021-01-24_08h34.55.558,MetaAwareness,2020.1.2,Win32,60,39O0SQZVJOA2KJ9SJY89EW438YP7RA,A14FL5X45SQEFT,3QFUFYSY9ZIBKQKUG7FAIE1Y4LD4FB,YFFQ6,YFFQ6,3QFUFYSY9ZIBKQKUG7FAIE1Y4LD4FB,3QFUFYSY9ZIBKQKUG7FAIE1Y4LD4FB,271016,271016,,,,,,,,,,
,,,,4,6.538,0,10,10,477,1,it shows empty shelf,it shows three books in shelf,wolfe2,050_L_book,4,52,A14FL5X45SQEFT,2021-01-24_08h34.55.558,MetaAwareness,2020.1.2,Win32,60,39O0SQZVJOA2KJ9SJY89EW438YP7RA,A14FL5X45SQEFT,3QFUFYSY9ZIBKQKUG7FAIE1Y4LD4FB,YFFQ6,YFFQ6,3QFUFYSY9ZIBKQKUG7FAIE1Y4LD4FB,3QFUFYSY9ZIBKQKUG7FAIE1Y4LD4FB,271016,271016,,,,,,,,,,
,,,,3,1.299,0,11,11,881,1,a bedroom with red walls and white trimming and two large closets with doors that are wooden with mirrored glass covering most of the door and a lamp in the far right corner.,a bedroom with red walls and white trimming and two large closets with doors that are wooden with mirrored glass covering most of the door.,wolfe2,090_R_lamp,1,52,A14FL5X45SQEFT,2021-01-24_08h34.55.558,MetaAwareness,2020.1.2,Win32,60,39O0SQZVJOA2KJ9SJY89EW438YP7RA,A14FL5X45SQEFT,3QFUFYSY9ZIBKQKUG7FAIE1Y4LD4FB,YFFQ6,YFFQ6,3QFUFYSY9ZIBKQKUG7FAIE1Y4LD4FB,3QFUFYSY9ZIBKQKUG7FAIE1Y4LD4FB,271016,271016,,,,,,,,,,
,,,,4,1.525,0,12,12,260,1,"a room with flower washes,  two wash basin and sanidizer present","a room with flower washes, two wash basin and sanidizer present",wolfe2,027_L_soapdish,1,52,A14FL5X45SQEFT,2021-01-24_08h34.55.558,MetaAwareness,2020.1.2,Win32,60,39O0SQZVJOA2KJ9SJY89EW438YP7RA,A14FL5X45SQEFT,3QFUFYSY9ZIBKQKUG7FAIE1Y4LD4FB,YFFQ6,YFFQ6,3QFUFYSY9ZIBKQKUG7FAIE1Y4LD4FB,3QFUFYSY9ZIBKQKUG7FAIE1Y4LD4FB,271016,271016,,,,,,,,,,
,,,,4,1.282,0,13,13,1078,1,greenroom with plenty of light and a living area with a vace by the sliding door,greenroom area with a living space and a potted plant by the door.,wolfe2,111_R_pot,5,52,A14FL5X45SQEFT,2021-01-24_08h34.55.558,MetaAwareness,2020.1.2,Win32,60,39O0SQZVJOA2KJ9SJY89EW438YP7RA,A14FL5X45SQEFT,3QFUFYSY9ZIBKQKUG7FAIE1Y4LD4FB,YFFQ6,YFFQ6,3QFUFYSY9ZIBKQKUG7FAIE1Y4LD4FB,3QFUFYSY9ZIBKQKUG7FAIE1Y4LD4FB,271016,271016,,,,,,,,,,
,,,,3,2.064,0,14,14,297,1,a spacious living room with one exposed beam on the ceiling.,a spacious living room with two exposed beams on the ceiling.,wolfe2,031_L_log,1,52,A14FL5X45SQEFT,2021-01-24_08h34.55.558,MetaAwareness,2020.1.2,Win32,60,39O0SQZVJOA2KJ9SJY89EW438YP7RA,A14FL5X45SQEFT,3QFUFYSY9ZIBKQKUG7FAIE1Y4LD4FB,YFFQ6,YFFQ6,3QFUFYSY9ZIBKQKUG7FAIE1Y4LD4FB,3QFUFYSY9ZIBKQKUG7FAIE1Y4LD4FB,271016,271016,,,,,,,,,,
,,,,4,1.497,0,15,15,500,1,theres a tv mounted to the wall with nothing underneath it,theres a tv mounted to the wall with a soundbar underneath it,wolfe2,052_L_speaker,4,52,A14FL5X45SQEFT,2021-01-24_08h34.55.558,MetaAwareness,2020.1.2,Win32,60,39O0SQZVJOA2KJ9SJY89EW438YP7RA,A14FL5X45SQEFT,3QFUFYSY9ZIBKQKUG7FAIE1Y4LD4FB,YFFQ6,YFFQ6,3QFUFYSY9ZIBKQKUG7FAIE1Y4LD4FB,3QFUFYSY9ZIBKQKUG7FAIE1Y4LD4FB,271016,271016,,,,,,,,,,
,,,,4,1.272,0,16,16,933,1,"a feminine bedroom with a large mirror, and a picture frame sitting on top of the vanity table",a feminine bedroom with a large mirror and nothing sitting on top of the vanity table,wolfe2,096_R_painting,1,52,A14FL5X45SQEFT,2021-01-24_08h34.55.558,MetaAwareness,2020.1.2,Win32,60,39O0SQZVJOA2KJ9SJY89EW438YP7RA,A14FL5X45SQEFT,3QFUFYSY9ZIBKQKUG7FAIE1Y4LD4FB,YFFQ6,YFFQ6,3QFUFYSY9ZIBKQKUG7FAIE1Y4LD4FB,3QFUFYSY9ZIBKQKUG7FAIE1Y4LD4FB,271016,271016,,,,,,,,,,
,,,,4,4.936,0,17,17,484,1,a mantle with a blank spot,a mantile with a decorative bird,wolfe2,051_L_owl,2,52,A14FL5X45SQEFT,2021-01-24_08h34.55.558,MetaAwareness,2020.1.2,Win32,60,39O0SQZVJOA2KJ9SJY89EW438YP7RA,A14FL5X45SQEFT,3QFUFYSY9ZIBKQKUG7FAIE1Y4LD4FB,YFFQ6,YFFQ6,3QFUFYSY9ZIBKQKUG7FAIE1Y4LD4FB,3QFUFYSY9ZIBKQKUG7FAIE1Y4LD4FB,271016,271016,,,,,,,,,,
,,,,4,3.205,0,18,18,523,1,"a bed room, several thinks in cupboard , no things in the box","a bed room,several things in cupboared, a blue colr pillow inside the box",wolfe2,055_L_carpet,1,52,A14FL5X45SQEFT,2021-01-24_08h34.55.558,MetaAwareness,2020.1.2,Win32,60,39O0SQZVJOA2KJ9SJY89EW438YP7RA,A14FL5X45SQEFT,3QFUFYSY9ZIBKQKUG7FAIE1Y4LD4FB,YFFQ6,YFFQ6,3QFUFYSY9ZIBKQKUG7FAIE1Y4LD4FB,3QFUFYSY9ZIBKQKUG7FAIE1Y4LD4FB,271016,271016,,,,,,,,,,
,,,,3,1.748,0,19,19,64,1,a colorful bathroom with a empty white tray.,a colorful bathroom with a small pot on the white tray.,wolfe2,007_L_soap,5,52,A14FL5X45SQEFT,2021-01-24_08h34.55.558,MetaAwareness,2020.1.2,Win32,60,39O0SQZVJOA2KJ9SJY89EW438YP7RA,A14FL5X45SQEFT,3QFUFYSY9ZIBKQKUG7FAIE1Y4LD4FB,YFFQ6,YFFQ6,3QFUFYSY9ZIBKQKUG7FAIE1Y4LD4FB,3QFUFYSY9ZIBKQKUG7FAIE1Y4LD4FB,271016,271016,,,,,,,,,,
,,,,4,5.223,0,20,20,782,1,"catch-all room with big front windows, black book shelf with clean floor","catch-all room with big front windows, black book shelf with object on the floor next to the left leg of book shelf",wolfe2,081_L_football,1,52,A14FL5X45SQEFT,2021-01-24_08h34.55.558,MetaAwareness,2020.1.2,Win32,60,39O0SQZVJOA2KJ9SJY89EW438YP7RA,A14FL5X45SQEFT,3QFUFYSY9ZIBKQKUG7FAIE1Y4LD4FB,YFFQ6,YFFQ6,3QFUFYSY9ZIBKQKUG7FAIE1Y4LD4FB,3QFUFYSY9ZIBKQKUG7FAIE1Y4LD4FB,271016,271016,,,,,,,,,,
,,,,4,6.195,0,21,21,604,1,a wooden living room with an empty desk,a wooden living room with a desk that has a notbook on it,wolfe2,063_L_laptop,1,52,A14FL5X45SQEFT,2021-01-24_08h34.55.558,MetaAwareness,2020.1.2,Win32,60,39O0SQZVJOA2KJ9SJY89EW438YP7RA,A14FL5X45SQEFT,3QFUFYSY9ZIBKQKUG7FAIE1Y4LD4FB,YFFQ6,YFFQ6,3QFUFYSY9ZIBKQKUG7FAIE1Y4LD4FB,3QFUFYSY9ZIBKQKUG7FAIE1Y4LD4FB,271016,271016,,,,,,,,,,
,,,,4,21.337,0,22,22,1067,1,an indoor patio with a pool on the outside of it and a bush in the corner of the patio.,an indoor patio with a pool in the backyard and brown carpeting in the patio area,wolfe2,110_R_plant,4,52,A14FL5X45SQEFT,2021-01-24_08h34.55.558,MetaAwareness,2020.1.2,Win32,60,39O0SQZVJOA2KJ9SJY89EW438YP7RA,A14FL5X45SQEFT,3QFUFYSY9ZIBKQKUG7FAIE1Y4LD4FB,YFFQ6,YFFQ6,3QFUFYSY9ZIBKQKUG7FAIE1Y4LD4FB,3QFUFYSY9ZIBKQKUG7FAIE1Y4LD4FB,271016,271016,,,,,,,,,,
,,,,4,2.784,0,23,23,889,1,a restroom with multiple sinks and mirrors surrounded by a red pinkish wallpaper with a clock at the upper left corner,a restroom with multiple sinks and mirrors surrounded by a red pinkish wallpaper ,wolfe2,091_L_airfreshener,3,52,A14FL5X45SQEFT,2021-01-24_08h34.55.558,MetaAwareness,2020.1.2,Win32,60,39O0SQZVJOA2KJ9SJY89EW438YP7RA,A14FL5X45SQEFT,3QFUFYSY9ZIBKQKUG7FAIE1Y4LD4FB,YFFQ6,YFFQ6,3QFUFYSY9ZIBKQKUG7FAIE1Y4LD4FB,3QFUFYSY9ZIBKQKUG7FAIE1Y4LD4FB,271016,271016,,,,,,,,,,
,,,,4,1.628,0,24,24,125,1,a sectioned room with a hardwood floor and one light over a seating table,a sectioned room with a hardwood floor and two lights over a seating table,wolfe2,013_L_lamp,5,52,A14FL5X45SQEFT,2021-01-24_08h34.55.558,MetaAwareness,2020.1.2,Win32,60,39O0SQZVJOA2KJ9SJY89EW438YP7RA,A14FL5X45SQEFT,3QFUFYSY9ZIBKQKUG7FAIE1Y4LD4FB,YFFQ6,YFFQ6,3QFUFYSY9ZIBKQKUG7FAIE1Y4LD4FB,3QFUFYSY9ZIBKQKUG7FAIE1Y4LD4FB,271016,271016,,,,,,,,,,
,,,,3,2.284,0,25,25,779,1,a modern looking kitchen with a black shelf in its background,a modern looking kitchen with a plant on the counter,wolfe2,080_R_plant,3,52,A14FL5X45SQEFT,2021-01-24_08h34.55.558,MetaAwareness,2020.1.2,Win32,60,39O0SQZVJOA2KJ9SJY89EW438YP7RA,A14FL5X45SQEFT,3QFUFYSY9ZIBKQKUG7FAIE1Y4LD4FB,YFFQ6,YFFQ6,3QFUFYSY9ZIBKQKUG7FAIE1Y4LD4FB,3QFUFYSY9ZIBKQKUG7FAIE1Y4LD4FB,271016,271016,,,,,,,,,,
,,,,3,2.696,0,26,26,421,1,a bathroom with a glass shower and a white bathtub with one light on the side,a bathroom with a glass shower and a white bathtub with two lights on the side,wolfe2,044_L_light,4,52,A14FL5X45SQEFT,2021-01-24_08h34.55.558,MetaAwareness,2020.1.2,Win32,60,39O0SQZVJOA2KJ9SJY89EW438YP7RA,A14FL5X45SQEFT,3QFUFYSY9ZIBKQKUG7FAIE1Y4LD4FB,YFFQ6,YFFQ6,3QFUFYSY9ZIBKQKUG7FAIE1Y4LD4FB,3QFUFYSY9ZIBKQKUG7FAIE1Y4LD4FB,271016,271016,,,,,,,,,,
,,,,4,2.152,0,27,27,382,1,a dinning room that only has two pictures above the cabinet.,a dinning room that has three pictures above the cabinet.,wolfe2,040_R_painting,1,52,A14FL5X45SQEFT,2021-01-24_08h34.55.558,MetaAwareness,2020.1.2,Win32,60,39O0SQZVJOA2KJ9SJY89EW438YP7RA,A14FL5X45SQEFT,3QFUFYSY9ZIBKQKUG7FAIE1Y4LD4FB,YFFQ6,YFFQ6,3QFUFYSY9ZIBKQKUG7FAIE1Y4LD4FB,3QFUFYSY9ZIBKQKUG7FAIE1Y4LD4FB,271016,271016,,,,,,,,,,
,,,,3,2.563,0,28,28,47,1,a bedroom with multiple dressers and a rug with an empty nightstand,a bedroom with multiple dressers and a rug with a nightstand with a vase on it,wolfe2,006_L_vase,2,52,A14FL5X45SQEFT,2021-01-24_08h34.55.558,MetaAwareness,2020.1.2,Win32,60,39O0SQZVJOA2KJ9SJY89EW438YP7RA,A14FL5X45SQEFT,3QFUFYSY9ZIBKQKUG7FAIE1Y4LD4FB,YFFQ6,YFFQ6,3QFUFYSY9ZIBKQKUG7FAIE1Y4LD4FB,3QFUFYSY9ZIBKQKUG7FAIE1Y4LD4FB,271016,271016,,,,,,,,,,
,,,,4,5.297,0,29,29,1036,1,"a store changing room with three mirrors, changing cabins and a rack with clothing items extending beyond the end pole.","a store changing room with three mirrors, changing cabins and a rack with clothing items.",wolfe2,107_L_shirts,2,52,A14FL5X45SQEFT,2021-01-24_08h34.55.558,MetaAwareness,2020.1.2,Win32,60,39O0SQZVJOA2KJ9SJY89EW438YP7RA,A14FL5X45SQEFT,3QFUFYSY9ZIBKQKUG7FAIE1Y4LD4FB,YFFQ6,YFFQ6,3QFUFYSY9ZIBKQKUG7FAIE1Y4LD4FB,3QFUFYSY9ZIBKQKUG7FAIE1Y4LD4FB,271016,271016,,,,,,,,,,
,,,,,,,,,,,,,,,,52,A14FL5X45SQEFT,2021-01-24_08h34.55.558,MetaAwareness,2020.1.2,Win32,60,39O0SQZVJOA2KJ9SJY89EW438YP7RA,A14FL5X45SQEFT,3QFUFYSY9ZIBKQKUG7FAIE1Y4LD4FB,YFFQ6,YFFQ6,3QFUFYSY9ZIBKQKUG7FAIE1Y4LD4FB,3QFUFYSY9ZIBKQKUG7FAIE1Y4LD4FB,271016,271016,4,2.27,someone laying underneath a blue beach umbrella on a crowded beach,someone laying underneath a blue beach umbrella on a crowded beach,same,4,7.527,members of a marching band crossing a track that all have feather plumes at the front of their hats,a cluttered and rustic looking cafe with 10 hanging lights,different
