consent_response.keys,consent_response.rt,key_resp_2.keys,key_resp_2.rt,user_resp.keys,user_resp.rt,trials.thisRepN,trials.thisTrialN,trials.thisN,trials.thisIndex,trials.ran,image_1_text,image_2_text,database,image,number,age,worker_ID,date,expName,psychopyVersion,OS,frameRate,hitId,workerId,assignmentId,a,tp_a,b,tp_b,c,tp_c,catch_same_resp.keys,catch_same_resp.rt,image_1_text_catch_same,image_2_text_catch_same,image_catch_same,catch_different_resp.keys,catch_different_resp.rt,image_1_text_catch_different,image_2_text_catch_different,image_catch_different
space,1.314,space,4.649,5,4.996,0,0,0,841,1,a stylish apartment with a table holding a book.,a stylish apartment with a table without a book.,wolfe2,086_L_book,4,30,A1FI8RYU0LZNMD,2021-01-24_14h06.32.168,MetaAwareness,2020.1.2,Win32,60,3EQVJH0T41OCTNSW0WZG5OUFAMNHT4,A1FI8RYU0LZNMD,304SM51WA4749UAP16PWXRQJ334BSN,WM406,WM406,304SM51WA4749UAP16PWXRQJ334BSN,304SM51WA4749UAP16PWXRQJ334BSN,271016,271016,,,,,,,,,,
,,,,3,1.308,0,1,1,510,1,stone feeling bathroom with a cabinet and drawer missing a pull,stone feeling bathroom with a cabinet and drawer,wolfe2,053_R_handle,1,30,A1FI8RYU0LZNMD,2021-01-24_14h06.32.168,MetaAwareness,2020.1.2,Win32,60,3EQVJH0T41OCTNSW0WZG5OUFAMNHT4,A1FI8RYU0LZNMD,304SM51WA4749UAP16PWXRQJ334BSN,WM406,WM406,304SM51WA4749UAP16PWXRQJ334BSN,304SM51WA4749UAP16PWXRQJ334BSN,271016,271016,,,,,,,,,,
,,,,6,2.367,0,2,2,647,1,very modern dining room with large window and no picture on side table,"very modern dining room with large window and small, white frame with a picture on side table",wolfe2,067_L_painting,4,30,A1FI8RYU0LZNMD,2021-01-24_14h06.32.168,MetaAwareness,2020.1.2,Win32,60,3EQVJH0T41OCTNSW0WZG5OUFAMNHT4,A1FI8RYU0LZNMD,304SM51WA4749UAP16PWXRQJ334BSN,WM406,WM406,304SM51WA4749UAP16PWXRQJ334BSN,304SM51WA4749UAP16PWXRQJ334BSN,271016,271016,,,,,,,,,,
,,,,5,1.11,0,3,3,461,1,"a quaint looking bedroom with a chaise lounger, a comfy looking bed, and a nice large mirror.","this bedroom has a lovely chaise lounger, a comfy looking bed, a large mirror, a beautiful vase display with one vase balancing on top of another. ",wolfe2,048_L_art,4,30,A1FI8RYU0LZNMD,2021-01-24_14h06.32.168,MetaAwareness,2020.1.2,Win32,60,3EQVJH0T41OCTNSW0WZG5OUFAMNHT4,A1FI8RYU0LZNMD,304SM51WA4749UAP16PWXRQJ334BSN,WM406,WM406,304SM51WA4749UAP16PWXRQJ334BSN,304SM51WA4749UAP16PWXRQJ334BSN,271016,271016,,,,,,,,,,
,,,,4,0.818,0,4,4,58,1,a spot where an object sits on nightstand,a pot sitting on a nightstand,wolfe2,006_R_vase,6,30,A1FI8RYU0LZNMD,2021-01-24_14h06.32.168,MetaAwareness,2020.1.2,Win32,60,3EQVJH0T41OCTNSW0WZG5OUFAMNHT4,A1FI8RYU0LZNMD,304SM51WA4749UAP16PWXRQJ334BSN,WM406,WM406,304SM51WA4749UAP16PWXRQJ334BSN,304SM51WA4749UAP16PWXRQJ334BSN,271016,271016,,,,,,,,,,
,,,,6,0.804,0,5,5,483,1,an oldern looking living with a white fireplace,a feminine looking living room with a glass jar sitting above a fireplace,wolfe2,051_L_owl,1,30,A1FI8RYU0LZNMD,2021-01-24_14h06.32.168,MetaAwareness,2020.1.2,Win32,60,3EQVJH0T41OCTNSW0WZG5OUFAMNHT4,A1FI8RYU0LZNMD,304SM51WA4749UAP16PWXRQJ334BSN,WM406,WM406,304SM51WA4749UAP16PWXRQJ334BSN,304SM51WA4749UAP16PWXRQJ334BSN,271016,271016,,,,,,,,,,
,,,,4,0.917,0,6,6,788,1,a child's looking room with childrens toys on the floor. there is no toy in the corner by the shelf with the radio on it.,a child's looking room with childrens toys on the floor. there is a toy in the corner by the shelf with the radio on it.,wolfe2,081_R_football,2,30,A1FI8RYU0LZNMD,2021-01-24_14h06.32.168,MetaAwareness,2020.1.2,Win32,60,3EQVJH0T41OCTNSW0WZG5OUFAMNHT4,A1FI8RYU0LZNMD,304SM51WA4749UAP16PWXRQJ334BSN,WM406,WM406,304SM51WA4749UAP16PWXRQJ334BSN,304SM51WA4749UAP16PWXRQJ334BSN,271016,271016,,,,,,,,,,
,,,,2,0.997,0,7,7,564,1,a childs room with a red shelf that has nothing on it,a childs room with a red shelf that has a white car on the shelf,wolfe2,059_L_car,3,30,A1FI8RYU0LZNMD,2021-01-24_14h06.32.168,MetaAwareness,2020.1.2,Win32,60,3EQVJH0T41OCTNSW0WZG5OUFAMNHT4,A1FI8RYU0LZNMD,304SM51WA4749UAP16PWXRQJ334BSN,WM406,WM406,304SM51WA4749UAP16PWXRQJ334BSN,304SM51WA4749UAP16PWXRQJ334BSN,271016,271016,,,,,,,,,,
,,,,3,1.013,0,8,8,268,1,spa like bathroom with an open clear shower,bathroom with a spa like feel with a soap holder in the shower,wolfe2,027_R_soapdish,5,30,A1FI8RYU0LZNMD,2021-01-24_14h06.32.168,MetaAwareness,2020.1.2,Win32,60,3EQVJH0T41OCTNSW0WZG5OUFAMNHT4,A1FI8RYU0LZNMD,304SM51WA4749UAP16PWXRQJ334BSN,WM406,WM406,304SM51WA4749UAP16PWXRQJ334BSN,304SM51WA4749UAP16PWXRQJ334BSN,271016,271016,,,,,,,,,,
,,,,6,1.005,0,9,9,137,1,a restaurant with very high ceilings and three light fixtures on the upper part of the wall,a restaurant with very high ceilings and four light fixgures on the upper part of the wall,wolfe2,014_L_lamp,2,30,A1FI8RYU0LZNMD,2021-01-24_14h06.32.168,MetaAwareness,2020.1.2,Win32,60,3EQVJH0T41OCTNSW0WZG5OUFAMNHT4,A1FI8RYU0LZNMD,304SM51WA4749UAP16PWXRQJ334BSN,WM406,WM406,304SM51WA4749UAP16PWXRQJ334BSN,304SM51WA4749UAP16PWXRQJ334BSN,271016,271016,,,,,,,,,,
,,,,4,0.982,0,10,10,61,1,a room with  a light and towel hanging . there is no object in the box,a room with a light and towel hanging .  there is a box in the box,wolfe2,007_L_soap,2,30,A1FI8RYU0LZNMD,2021-01-24_14h06.32.168,MetaAwareness,2020.1.2,Win32,60,3EQVJH0T41OCTNSW0WZG5OUFAMNHT4,A1FI8RYU0LZNMD,304SM51WA4749UAP16PWXRQJ334BSN,WM406,WM406,304SM51WA4749UAP16PWXRQJ334BSN,304SM51WA4749UAP16PWXRQJ334BSN,271016,271016,,,,,,,,,,
,,,,3,1.01,0,11,11,1222,1,"a contemporary sitting room with glass walls, sofas, an occupied dog bed, and two light sconces","a contemporary sitting room with glass walls, sofas, an occupied dog bed, and one light sconce",wolfe2,127_L_light,4,30,A1FI8RYU0LZNMD,2021-01-24_14h06.32.168,MetaAwareness,2020.1.2,Win32,60,3EQVJH0T41OCTNSW0WZG5OUFAMNHT4,A1FI8RYU0LZNMD,304SM51WA4749UAP16PWXRQJ334BSN,WM406,WM406,304SM51WA4749UAP16PWXRQJ334BSN,304SM51WA4749UAP16PWXRQJ334BSN,271016,271016,,,,,,,,,,
,,,,6,1.011,0,12,12,802,1,the side of a coffee table that is grey,a bowl is sitting underneath a table,wolfe2,082_R_bowl,8,30,A1FI8RYU0LZNMD,2021-01-24_14h06.32.168,MetaAwareness,2020.1.2,Win32,60,3EQVJH0T41OCTNSW0WZG5OUFAMNHT4,A1FI8RYU0LZNMD,304SM51WA4749UAP16PWXRQJ334BSN,WM406,WM406,304SM51WA4749UAP16PWXRQJ334BSN,304SM51WA4749UAP16PWXRQJ334BSN,271016,271016,,,,,,,,,,
,,,,4,0.9,0,13,13,582,1,a dining room with two wine glasses on the table,a dining room with three wine glasses on the table,wolfe2,061_L_glass,5,30,A1FI8RYU0LZNMD,2021-01-24_14h06.32.168,MetaAwareness,2020.1.2,Win32,60,3EQVJH0T41OCTNSW0WZG5OUFAMNHT4,A1FI8RYU0LZNMD,304SM51WA4749UAP16PWXRQJ334BSN,WM406,WM406,304SM51WA4749UAP16PWXRQJ334BSN,304SM51WA4749UAP16PWXRQJ334BSN,271016,271016,,,,,,,,,,
,,,,5,1.121,0,14,14,1100,1,there is a small statue next to the book and vases on the coffee table. ,there is nothing but a book and vases on this coffee table.,wolfe2,114_R_bird,2,30,A1FI8RYU0LZNMD,2021-01-24_14h06.32.168,MetaAwareness,2020.1.2,Win32,60,3EQVJH0T41OCTNSW0WZG5OUFAMNHT4,A1FI8RYU0LZNMD,304SM51WA4749UAP16PWXRQJ334BSN,WM406,WM406,304SM51WA4749UAP16PWXRQJ334BSN,304SM51WA4749UAP16PWXRQJ334BSN,271016,271016,,,,,,,,,,
,,,,5,0.78,0,15,15,1163,1,a modern bedroom with a car figurine on the nightstand next to the lamp.,a modern bedroom with nothing on the nightstand next to the lamp.,wolfe2,121_L_car,4,30,A1FI8RYU0LZNMD,2021-01-24_14h06.32.168,MetaAwareness,2020.1.2,Win32,60,3EQVJH0T41OCTNSW0WZG5OUFAMNHT4,A1FI8RYU0LZNMD,304SM51WA4749UAP16PWXRQJ334BSN,WM406,WM406,304SM51WA4749UAP16PWXRQJ334BSN,304SM51WA4749UAP16PWXRQJ334BSN,271016,271016,,,,,,,,,,
,,,,3,1.055,0,16,16,84,1,a bedroom with a sitting area near the bed,a bedroom with a sitting area on top of a circular rug,wolfe2,009_L_carpet,2,30,A1FI8RYU0LZNMD,2021-01-24_14h06.32.168,MetaAwareness,2020.1.2,Win32,60,3EQVJH0T41OCTNSW0WZG5OUFAMNHT4,A1FI8RYU0LZNMD,304SM51WA4749UAP16PWXRQJ334BSN,WM406,WM406,304SM51WA4749UAP16PWXRQJ334BSN,304SM51WA4749UAP16PWXRQJ334BSN,271016,271016,,,,,,,,,,
,,,,4,0.826,0,17,17,983,1,a nice study room with beautiful view outside,a nice study room with beautiful view outside a small side table is missing in this image. ,wolfe2,102_L_shoppingbag,1,30,A1FI8RYU0LZNMD,2021-01-24_14h06.32.168,MetaAwareness,2020.1.2,Win32,60,3EQVJH0T41OCTNSW0WZG5OUFAMNHT4,A1FI8RYU0LZNMD,304SM51WA4749UAP16PWXRQJ334BSN,WM406,WM406,304SM51WA4749UAP16PWXRQJ334BSN,304SM51WA4749UAP16PWXRQJ334BSN,271016,271016,,,,,,,,,,
,,,,5,1.113,0,18,18,1083,1,a lounge area with a plant ,a lounge area that doesn't have a plant,wolfe2,112_R_basket,1,30,A1FI8RYU0LZNMD,2021-01-24_14h06.32.168,MetaAwareness,2020.1.2,Win32,60,3EQVJH0T41OCTNSW0WZG5OUFAMNHT4,A1FI8RYU0LZNMD,304SM51WA4749UAP16PWXRQJ334BSN,WM406,WM406,304SM51WA4749UAP16PWXRQJ334BSN,304SM51WA4749UAP16PWXRQJ334BSN,271016,271016,,,,,,,,,,
,,,,3,1.02,0,19,19,751,1,a chiar without leg support,a chair with leg support,wolfe2,077_R_footrest,4,30,A1FI8RYU0LZNMD,2021-01-24_14h06.32.168,MetaAwareness,2020.1.2,Win32,60,3EQVJH0T41OCTNSW0WZG5OUFAMNHT4,A1FI8RYU0LZNMD,304SM51WA4749UAP16PWXRQJ334BSN,WM406,WM406,304SM51WA4749UAP16PWXRQJ334BSN,304SM51WA4749UAP16PWXRQJ334BSN,271016,271016,,,,,,,,,,
,,,,2,0.921,0,20,20,994,1,bathroom with 2 sinks and a shower thremostat and towle hook on the wall,bathroom with 2 sinks and a shower thermostat is on the wall,wolfe2,103_L_hook,4,30,A1FI8RYU0LZNMD,2021-01-24_14h06.32.168,MetaAwareness,2020.1.2,Win32,60,3EQVJH0T41OCTNSW0WZG5OUFAMNHT4,A1FI8RYU0LZNMD,304SM51WA4749UAP16PWXRQJ334BSN,WM406,WM406,304SM51WA4749UAP16PWXRQJ334BSN,304SM51WA4749UAP16PWXRQJ334BSN,271016,271016,,,,,,,,,,
,,,,6,1.009,0,21,21,929,1,pink office room with picture on pink desk on far back wall,pink office room,wolfe2,096_L_painting,2,30,A1FI8RYU0LZNMD,2021-01-24_14h06.32.168,MetaAwareness,2020.1.2,Win32,60,3EQVJH0T41OCTNSW0WZG5OUFAMNHT4,A1FI8RYU0LZNMD,304SM51WA4749UAP16PWXRQJ334BSN,WM406,WM406,304SM51WA4749UAP16PWXRQJ334BSN,304SM51WA4749UAP16PWXRQJ334BSN,271016,271016,,,,,,,,,,
,,,,5,1.446,0,22,22,874,1,a hair salon with paintings on thewall,a hair salon with two paintings on the wall,wolfe2,089_R_poster,4,30,A1FI8RYU0LZNMD,2021-01-24_14h06.32.168,MetaAwareness,2020.1.2,Win32,60,3EQVJH0T41OCTNSW0WZG5OUFAMNHT4,A1FI8RYU0LZNMD,304SM51WA4749UAP16PWXRQJ334BSN,WM406,WM406,304SM51WA4749UAP16PWXRQJ334BSN,304SM51WA4749UAP16PWXRQJ334BSN,271016,271016,,,,,,,,,,
,,,,4,0.988,0,23,23,202,1,a home office with nothing on the desk,a home office with a keyboard on the desk,wolfe2,021_L_keyboard,5,30,A1FI8RYU0LZNMD,2021-01-24_14h06.32.168,MetaAwareness,2020.1.2,Win32,60,3EQVJH0T41OCTNSW0WZG5OUFAMNHT4,A1FI8RYU0LZNMD,304SM51WA4749UAP16PWXRQJ334BSN,WM406,WM406,304SM51WA4749UAP16PWXRQJ334BSN,304SM51WA4749UAP16PWXRQJ334BSN,271016,271016,,,,,,,,,,
,,,,3,0.969,0,24,24,652,1,a short side table without any objects on it,a short side table with a framed photo set on it,wolfe2,067_R_painting,4,30,A1FI8RYU0LZNMD,2021-01-24_14h06.32.168,MetaAwareness,2020.1.2,Win32,60,3EQVJH0T41OCTNSW0WZG5OUFAMNHT4,A1FI8RYU0LZNMD,304SM51WA4749UAP16PWXRQJ334BSN,WM406,WM406,304SM51WA4749UAP16PWXRQJ334BSN,304SM51WA4749UAP16PWXRQJ334BSN,271016,271016,,,,,,,,,,
,,,,6,1.078,0,25,25,1079,1,flowery couch and chair with basket,flowery couch and chair,wolfe2,112_L_basket,1,30,A1FI8RYU0LZNMD,2021-01-24_14h06.32.168,MetaAwareness,2020.1.2,Win32,60,3EQVJH0T41OCTNSW0WZG5OUFAMNHT4,A1FI8RYU0LZNMD,304SM51WA4749UAP16PWXRQJ334BSN,WM406,WM406,304SM51WA4749UAP16PWXRQJ334BSN,304SM51WA4749UAP16PWXRQJ334BSN,271016,271016,,,,,,,,,,
,,,,3,1.246,0,26,26,745,1,a kitchen with four tall chairs and one of the chairs has not leg pedal,a kitchen with four tall charis and all of the chairs have leg pedal,wolfe2,077_L_footrest,5,30,A1FI8RYU0LZNMD,2021-01-24_14h06.32.168,MetaAwareness,2020.1.2,Win32,60,3EQVJH0T41OCTNSW0WZG5OUFAMNHT4,A1FI8RYU0LZNMD,304SM51WA4749UAP16PWXRQJ334BSN,WM406,WM406,304SM51WA4749UAP16PWXRQJ334BSN,304SM51WA4749UAP16PWXRQJ334BSN,271016,271016,,,,,,,,,,
,,,,2,0.979,0,27,27,957,1,a bright modern dining room that has 3 candles on the wall,a bright modern dining room that has 2 candles on the wall,wolfe2,099_L_sconce,2,30,A1FI8RYU0LZNMD,2021-01-24_14h06.32.168,MetaAwareness,2020.1.2,Win32,60,3EQVJH0T41OCTNSW0WZG5OUFAMNHT4,A1FI8RYU0LZNMD,304SM51WA4749UAP16PWXRQJ334BSN,WM406,WM406,304SM51WA4749UAP16PWXRQJ334BSN,304SM51WA4749UAP16PWXRQJ334BSN,271016,271016,,,,,,,,,,
,,,,4,0.994,0,28,28,302,1,a furnished living room with a l shaped couch.  the ceiling has a single beam going across it,a furnished living room with a l shaped couch.  the ceiling has two beams going across it,wolfe2,031_R_log,2,30,A1FI8RYU0LZNMD,2021-01-24_14h06.32.168,MetaAwareness,2020.1.2,Win32,60,3EQVJH0T41OCTNSW0WZG5OUFAMNHT4,A1FI8RYU0LZNMD,304SM51WA4749UAP16PWXRQJ334BSN,WM406,WM406,304SM51WA4749UAP16PWXRQJ334BSN,304SM51WA4749UAP16PWXRQJ334BSN,271016,271016,,,,,,,,,,
,,,,6,1.012,0,29,29,640,1,"a living space with a black wall, a white wall, a black chair and a white chair, and 6 wall-mounted lights","a living space with a black wall and a white wall, black furnature and white furnature, 6 wall-mounted lights, and a white decorative object",wolfe2,066_R_vase,1,30,A1FI8RYU0LZNMD,2021-01-24_14h06.32.168,MetaAwareness,2020.1.2,Win32,60,3EQVJH0T41OCTNSW0WZG5OUFAMNHT4,A1FI8RYU0LZNMD,304SM51WA4749UAP16PWXRQJ334BSN,WM406,WM406,304SM51WA4749UAP16PWXRQJ334BSN,304SM51WA4749UAP16PWXRQJ334BSN,271016,271016,,,,,,,,,,
,,,,,,,,,,,,,,,,30,A1FI8RYU0LZNMD,2021-01-24_14h06.32.168,MetaAwareness,2020.1.2,Win32,60,3EQVJH0T41OCTNSW0WZG5OUFAMNHT4,A1FI8RYU0LZNMD,304SM51WA4749UAP16PWXRQJ334BSN,WM406,WM406,304SM51WA4749UAP16PWXRQJ334BSN,304SM51WA4749UAP16PWXRQJ334BSN,271016,271016,5,0.976,someone laying underneath a blue beach umbrella on a crowded beach,someone laying underneath a blue beach umbrella on a crowded beach,same,4,0.857,members of a marching band crossing a track that all have feather plumes at the front of their hats,a cluttered and rustic looking cafe with 10 hanging lights,different
