consent_response.keys,consent_response.rt,key_resp_2.keys,key_resp_2.rt,user_resp.keys,user_resp.rt,trials.thisRepN,trials.thisTrialN,trials.thisN,trials.thisIndex,trials.ran,image_1_text,image_2_text,database,image,number,age,worker_ID,date,expName,psychopyVersion,OS,frameRate,hitId,workerId,assignmentId,a,tp_a,b,tp_b,c,tp_c,catch_same_resp.keys,catch_same_resp.rt,image_1_text_catch_same,image_2_text_catch_same,image_catch_same,catch_different_resp.keys,catch_different_resp.rt,image_1_text_catch_different,image_2_text_catch_different,image_catch_different
space,13.48674,space,8.210235,5,26.0686,0,0,0,1006,1,a luxurious and bright sitting area decorated with drinks and candle lights,a luxurious and bright sitting area decorated with candle lights and empty tables,wolfe2,104_L_bottle,6,45,A1H198MRIM37T1,2021-01-24_08h10.44.675,MetaAwareness,2020.1.2,MacIntel,60,368IUKXGA6BY46F8NWZS3N4SC5IP62,A1H198MRIM37T1,3PEIJLRY6UW4TEUZQ7RFJDKWSJCWXK,YJEP6,YJEP6,3PEIJLRY6UW4TEUZQ7RFJDKWSJCWXK,3PEIJLRY6UW4TEUZQ7RFJDKWSJCWXK,271016,271016,,,,,,,,,,
,,,,4,20.73157,0,1,1,1044,1,a walk in closet with a lot of clothing and a dresser off to the side. ,a walk in closer with a lot of clothing and a dresser off to the side with a little blue ball on it,wolfe2,108_L_boa,1,45,A1H198MRIM37T1,2021-01-24_08h10.44.675,MetaAwareness,2020.1.2,MacIntel,60,368IUKXGA6BY46F8NWZS3N4SC5IP62,A1H198MRIM37T1,3PEIJLRY6UW4TEUZQ7RFJDKWSJCWXK,YJEP6,YJEP6,3PEIJLRY6UW4TEUZQ7RFJDKWSJCWXK,3PEIJLRY6UW4TEUZQ7RFJDKWSJCWXK,271016,271016,,,,,,,,,,
,,,,5,23.511025,0,2,2,1216,1,"a living room with a l shaped couch, automan, mounted tv and shelves.  the shelf has a candle under the tv","a living room with a l shaped couch, automan, mounted tv and shelves. ",wolfe2,126_R_candles,3,45,A1H198MRIM37T1,2021-01-24_08h10.44.675,MetaAwareness,2020.1.2,MacIntel,60,368IUKXGA6BY46F8NWZS3N4SC5IP62,A1H198MRIM37T1,3PEIJLRY6UW4TEUZQ7RFJDKWSJCWXK,YJEP6,YJEP6,3PEIJLRY6UW4TEUZQ7RFJDKWSJCWXK,3PEIJLRY6UW4TEUZQ7RFJDKWSJCWXK,271016,271016,,,,,,,,,,
,,,,5,7.626255,0,3,3,18,1,a desk area inside a home overlooking a lake,a desk area inside a home overlookin a lake with three birds in the water,wolfe2,003_L_ducks,1,45,A1H198MRIM37T1,2021-01-24_08h10.44.675,MetaAwareness,2020.1.2,MacIntel,60,368IUKXGA6BY46F8NWZS3N4SC5IP62,A1H198MRIM37T1,3PEIJLRY6UW4TEUZQ7RFJDKWSJCWXK,YJEP6,YJEP6,3PEIJLRY6UW4TEUZQ7RFJDKWSJCWXK,3PEIJLRY6UW4TEUZQ7RFJDKWSJCWXK,271016,271016,,,,,,,,,,
,,,,5,9.56258,0,4,4,570,1,neutral colored living room with 3 beige pillows on the couch and one black,neutral colored living room with 3 beige pillows on the couch and two black pillows,wolfe2,060_L_pillow,1,45,A1H198MRIM37T1,2021-01-24_08h10.44.675,MetaAwareness,2020.1.2,MacIntel,60,368IUKXGA6BY46F8NWZS3N4SC5IP62,A1H198MRIM37T1,3PEIJLRY6UW4TEUZQ7RFJDKWSJCWXK,YJEP6,YJEP6,3PEIJLRY6UW4TEUZQ7RFJDKWSJCWXK,3PEIJLRY6UW4TEUZQ7RFJDKWSJCWXK,271016,271016,,,,,,,,,,
,,,,4,10.473955,0,5,5,572,1,this living room has lovely natural wood floors and a nice l shaped sofa with cream cushions on top.,"this lovely living room has natural wood floors and a nice l shaped soda adorned with cream cushions, and a black accent cushion as well.",wolfe2,060_L_pillow,3,45,A1H198MRIM37T1,2021-01-24_08h10.44.675,MetaAwareness,2020.1.2,MacIntel,60,368IUKXGA6BY46F8NWZS3N4SC5IP62,A1H198MRIM37T1,3PEIJLRY6UW4TEUZQ7RFJDKWSJCWXK,YJEP6,YJEP6,3PEIJLRY6UW4TEUZQ7RFJDKWSJCWXK,3PEIJLRY6UW4TEUZQ7RFJDKWSJCWXK,271016,271016,,,,,,,,,,
,,,,4,12.533095,0,6,6,1113,1,a wooden dining room with a wire basket located behind a white planter.,a wooden dining room with a white planter with nothing between it and the wall.,wolfe2,116_L_basket,1,45,A1H198MRIM37T1,2021-01-24_08h10.44.675,MetaAwareness,2020.1.2,MacIntel,60,368IUKXGA6BY46F8NWZS3N4SC5IP62,A1H198MRIM37T1,3PEIJLRY6UW4TEUZQ7RFJDKWSJCWXK,YJEP6,YJEP6,3PEIJLRY6UW4TEUZQ7RFJDKWSJCWXK,3PEIJLRY6UW4TEUZQ7RFJDKWSJCWXK,271016,271016,,,,,,,,,,
,,,,3,13.240805,0,7,7,151,1,there is nothing but white paint on the ceiling of this room.,there is small sight on the ceiling of this room.,wolfe2,015_R_ceilinglight,2,45,A1H198MRIM37T1,2021-01-24_08h10.44.675,MetaAwareness,2020.1.2,MacIntel,60,368IUKXGA6BY46F8NWZS3N4SC5IP62,A1H198MRIM37T1,3PEIJLRY6UW4TEUZQ7RFJDKWSJCWXK,YJEP6,YJEP6,3PEIJLRY6UW4TEUZQ7RFJDKWSJCWXK,3PEIJLRY6UW4TEUZQ7RFJDKWSJCWXK,271016,271016,,,,,,,,,,
,,,,3,16.044085,0,8,8,838,1,a living area just off the dining area with a large desk that has a yellow package sitting on the front center of the desk,a living area just off the dining ara with a large desk,wolfe2,086_L_book,1,45,A1H198MRIM37T1,2021-01-24_08h10.44.675,MetaAwareness,2020.1.2,MacIntel,60,368IUKXGA6BY46F8NWZS3N4SC5IP62,A1H198MRIM37T1,3PEIJLRY6UW4TEUZQ7RFJDKWSJCWXK,YJEP6,YJEP6,3PEIJLRY6UW4TEUZQ7RFJDKWSJCWXK,3PEIJLRY6UW4TEUZQ7RFJDKWSJCWXK,271016,271016,,,,,,,,,,
,,,,4,8.000285,0,9,9,536,1,a brown and white living room with nothing on the couch,a brown and white living room with a brown blanket on the couch,wolfe2,056_L_comforter,3,45,A1H198MRIM37T1,2021-01-24_08h10.44.675,MetaAwareness,2020.1.2,MacIntel,60,368IUKXGA6BY46F8NWZS3N4SC5IP62,A1H198MRIM37T1,3PEIJLRY6UW4TEUZQ7RFJDKWSJCWXK,YJEP6,YJEP6,3PEIJLRY6UW4TEUZQ7RFJDKWSJCWXK,3PEIJLRY6UW4TEUZQ7RFJDKWSJCWXK,271016,271016,,,,,,,,,,
,,,,1,8.63134,0,10,10,380,1,a clear wall,a picture hang on the wall,wolfe2,040_L_painting,3,45,A1H198MRIM37T1,2021-01-24_08h10.44.675,MetaAwareness,2020.1.2,MacIntel,60,368IUKXGA6BY46F8NWZS3N4SC5IP62,A1H198MRIM37T1,3PEIJLRY6UW4TEUZQ7RFJDKWSJCWXK,YJEP6,YJEP6,3PEIJLRY6UW4TEUZQ7RFJDKWSJCWXK,3PEIJLRY6UW4TEUZQ7RFJDKWSJCWXK,271016,271016,,,,,,,,,,
,,,,5,14.6867,0,11,11,37,1,"a modern living area overlooking a city with a sofa, chair and desk","a modern living area overlooking a city with a sofa with a mirror above it, chair and desk",wolfe2,005_L_mirror,3,45,A1H198MRIM37T1,2021-01-24_08h10.44.675,MetaAwareness,2020.1.2,MacIntel,60,368IUKXGA6BY46F8NWZS3N4SC5IP62,A1H198MRIM37T1,3PEIJLRY6UW4TEUZQ7RFJDKWSJCWXK,YJEP6,YJEP6,3PEIJLRY6UW4TEUZQ7RFJDKWSJCWXK,3PEIJLRY6UW4TEUZQ7RFJDKWSJCWXK,271016,271016,,,,,,,,,,
,,,,4,14.30024,0,12,12,233,1,a big room with sinks and two sets of towels below it,a big room with sinks and three sets of towels below it,wolfe2,024_L_towels,2,45,A1H198MRIM37T1,2021-01-24_08h10.44.675,MetaAwareness,2020.1.2,MacIntel,60,368IUKXGA6BY46F8NWZS3N4SC5IP62,A1H198MRIM37T1,3PEIJLRY6UW4TEUZQ7RFJDKWSJCWXK,YJEP6,YJEP6,3PEIJLRY6UW4TEUZQ7RFJDKWSJCWXK,3PEIJLRY6UW4TEUZQ7RFJDKWSJCWXK,271016,271016,,,,,,,,,,
,,,,5,9.13052,0,13,13,757,1,a sea green bathroom with a decorative sink with one faucet handle,a sea green bathroom with a decorative sink with two faucet handles,wolfe2,078_L_faucet,6,45,A1H198MRIM37T1,2021-01-24_08h10.44.675,MetaAwareness,2020.1.2,MacIntel,60,368IUKXGA6BY46F8NWZS3N4SC5IP62,A1H198MRIM37T1,3PEIJLRY6UW4TEUZQ7RFJDKWSJCWXK,YJEP6,YJEP6,3PEIJLRY6UW4TEUZQ7RFJDKWSJCWXK,3PEIJLRY6UW4TEUZQ7RFJDKWSJCWXK,271016,271016,,,,,,,,,,
,,,,4,17.588615,0,14,14,559,1,a bedroom with a lot of pink in it . with a nightstand that has a furry surface.,a bedroom that has a lot of pink in it with a purse on the nightstand that has a furry surface.,wolfe2,058_R_clutch,2,45,A1H198MRIM37T1,2021-01-24_08h10.44.675,MetaAwareness,2020.1.2,MacIntel,60,368IUKXGA6BY46F8NWZS3N4SC5IP62,A1H198MRIM37T1,3PEIJLRY6UW4TEUZQ7RFJDKWSJCWXK,YJEP6,YJEP6,3PEIJLRY6UW4TEUZQ7RFJDKWSJCWXK,3PEIJLRY6UW4TEUZQ7RFJDKWSJCWXK,271016,271016,,,,,,,,,,
,,,,5,12.043275,0,15,15,521,1,a study with suttle colors and a fireplace on thewall,a study with suttle colors and a ready to lit fireplace on the wall,wolfe2,054_R_firewood,4,45,A1H198MRIM37T1,2021-01-24_08h10.44.675,MetaAwareness,2020.1.2,MacIntel,60,368IUKXGA6BY46F8NWZS3N4SC5IP62,A1H198MRIM37T1,3PEIJLRY6UW4TEUZQ7RFJDKWSJCWXK,YJEP6,YJEP6,3PEIJLRY6UW4TEUZQ7RFJDKWSJCWXK,3PEIJLRY6UW4TEUZQ7RFJDKWSJCWXK,271016,271016,,,,,,,,,,
,,,,4,12.64262,0,16,16,1150,1,a large living area with modern looking furniture and a picture on the wall,a large living room filled with modern furniture and white walls.,wolfe2,119_R_painting,4,45,A1H198MRIM37T1,2021-01-24_08h10.44.675,MetaAwareness,2020.1.2,MacIntel,60,368IUKXGA6BY46F8NWZS3N4SC5IP62,A1H198MRIM37T1,3PEIJLRY6UW4TEUZQ7RFJDKWSJCWXK,YJEP6,YJEP6,3PEIJLRY6UW4TEUZQ7RFJDKWSJCWXK,3PEIJLRY6UW4TEUZQ7RFJDKWSJCWXK,271016,271016,,,,,,,,,,
,,,,4,18.87041,0,17,17,86,1,a modern bedroom with white walls and floors and brown furniture in it,"a modern bedroom with white walls and floors, brown furniture, and a round pale taupe rug in it",wolfe2,009_L_carpet,4,45,A1H198MRIM37T1,2021-01-24_08h10.44.675,MetaAwareness,2020.1.2,MacIntel,60,368IUKXGA6BY46F8NWZS3N4SC5IP62,A1H198MRIM37T1,3PEIJLRY6UW4TEUZQ7RFJDKWSJCWXK,YJEP6,YJEP6,3PEIJLRY6UW4TEUZQ7RFJDKWSJCWXK,3PEIJLRY6UW4TEUZQ7RFJDKWSJCWXK,271016,271016,,,,,,,,,,
,,,,5,16.790425,0,18,18,1116,1,"a modern style open living area with a large table, sliding doors opening to a patio, and a plant with a basket next to it","a modern style open living area with a large table, sliding doors opening to a patio, and a plant ",wolfe2,116_L_basket,4,45,A1H198MRIM37T1,2021-01-24_08h10.44.675,MetaAwareness,2020.1.2,MacIntel,60,368IUKXGA6BY46F8NWZS3N4SC5IP62,A1H198MRIM37T1,3PEIJLRY6UW4TEUZQ7RFJDKWSJCWXK,YJEP6,YJEP6,3PEIJLRY6UW4TEUZQ7RFJDKWSJCWXK,3PEIJLRY6UW4TEUZQ7RFJDKWSJCWXK,271016,271016,,,,,,,,,,
,,,,4,9.502555,0,19,19,545,1,a library with several bookcases and the second bookcase on the left has no waste basket on the side of it,a library with several bookcases and the second bookcase on the left has a waste basket to the side of it,wolfe2,057_L_bin,1,45,A1H198MRIM37T1,2021-01-24_08h10.44.675,MetaAwareness,2020.1.2,MacIntel,60,368IUKXGA6BY46F8NWZS3N4SC5IP62,A1H198MRIM37T1,3PEIJLRY6UW4TEUZQ7RFJDKWSJCWXK,YJEP6,YJEP6,3PEIJLRY6UW4TEUZQ7RFJDKWSJCWXK,3PEIJLRY6UW4TEUZQ7RFJDKWSJCWXK,271016,271016,,,,,,,,,,
,,,,3,6.663845,0,20,20,598,1,a living room with an empty fireplace.,a living room with something in the fireplace.,wolfe2,062_R_flowers,2,45,A1H198MRIM37T1,2021-01-24_08h10.44.675,MetaAwareness,2020.1.2,MacIntel,60,368IUKXGA6BY46F8NWZS3N4SC5IP62,A1H198MRIM37T1,3PEIJLRY6UW4TEUZQ7RFJDKWSJCWXK,YJEP6,YJEP6,3PEIJLRY6UW4TEUZQ7RFJDKWSJCWXK,3PEIJLRY6UW4TEUZQ7RFJDKWSJCWXK,271016,271016,,,,,,,,,,
,,,,5,11.053465,0,21,21,407,1,"comfortable and beautiful living room has modern technology available but feels like home with features like a built in wood unit for books, clocks and decor",comfortable and beautiful living room has modern technology available but feels like home with features like a built in wood unit for clocks.,wolfe2,043_L_clock,1,45,A1H198MRIM37T1,2021-01-24_08h10.44.675,MetaAwareness,2020.1.2,MacIntel,60,368IUKXGA6BY46F8NWZS3N4SC5IP62,A1H198MRIM37T1,3PEIJLRY6UW4TEUZQ7RFJDKWSJCWXK,YJEP6,YJEP6,3PEIJLRY6UW4TEUZQ7RFJDKWSJCWXK,3PEIJLRY6UW4TEUZQ7RFJDKWSJCWXK,271016,271016,,,,,,,,,,
,,,,5,7.75535,0,22,22,394,1,a brown kitchen that has an empty fruitbowl on the counter by the sink,a brown kitchen that has a fruitbowl containing two oranges on the counter by the sink,wolfe2,041_R_fruit,4,45,A1H198MRIM37T1,2021-01-24_08h10.44.675,MetaAwareness,2020.1.2,MacIntel,60,368IUKXGA6BY46F8NWZS3N4SC5IP62,A1H198MRIM37T1,3PEIJLRY6UW4TEUZQ7RFJDKWSJCWXK,YJEP6,YJEP6,3PEIJLRY6UW4TEUZQ7RFJDKWSJCWXK,3PEIJLRY6UW4TEUZQ7RFJDKWSJCWXK,271016,271016,,,,,,,,,,
,,,,4,10.691945,0,23,23,159,1,"a minimalistic living room in a modern home, with a pedestal that has nothing on it.","a minimalistic living room in a modern home, with a pedestal that has an artistic object on it.",wolfe2,016_L_art,6,45,A1H198MRIM37T1,2021-01-24_08h10.44.675,MetaAwareness,2020.1.2,MacIntel,60,368IUKXGA6BY46F8NWZS3N4SC5IP62,A1H198MRIM37T1,3PEIJLRY6UW4TEUZQ7RFJDKWSJCWXK,YJEP6,YJEP6,3PEIJLRY6UW4TEUZQ7RFJDKWSJCWXK,3PEIJLRY6UW4TEUZQ7RFJDKWSJCWXK,271016,271016,,,,,,,,,,
,,,,5,6.93929,0,24,24,954,1,white bedroom with grey and orange accents has some cozy house slippers y the couch,this is a white bedroom with grey and orange accens,wolfe2,098_R_slippers,4,45,A1H198MRIM37T1,2021-01-24_08h10.44.675,MetaAwareness,2020.1.2,MacIntel,60,368IUKXGA6BY46F8NWZS3N4SC5IP62,A1H198MRIM37T1,3PEIJLRY6UW4TEUZQ7RFJDKWSJCWXK,YJEP6,YJEP6,3PEIJLRY6UW4TEUZQ7RFJDKWSJCWXK,3PEIJLRY6UW4TEUZQ7RFJDKWSJCWXK,271016,271016,,,,,,,,,,
,,,,5,6.562955,0,25,25,158,1,a modern style living room with a window and speaker in the back,a modern style living room with a window and speaker in te back with something on top of it,wolfe2,016_L_art,5,45,A1H198MRIM37T1,2021-01-24_08h10.44.675,MetaAwareness,2020.1.2,MacIntel,60,368IUKXGA6BY46F8NWZS3N4SC5IP62,A1H198MRIM37T1,3PEIJLRY6UW4TEUZQ7RFJDKWSJCWXK,YJEP6,YJEP6,3PEIJLRY6UW4TEUZQ7RFJDKWSJCWXK,3PEIJLRY6UW4TEUZQ7RFJDKWSJCWXK,271016,271016,,,,,,,,,,
,,,,4,10.56376,0,26,26,405,1,a luxurious bathroom with two sinks; only one has a faucet,"a luxurious bathroom with two sinks and two faucets, ",wolfe2,042_R_tap,4,45,A1H198MRIM37T1,2021-01-24_08h10.44.675,MetaAwareness,2020.1.2,MacIntel,60,368IUKXGA6BY46F8NWZS3N4SC5IP62,A1H198MRIM37T1,3PEIJLRY6UW4TEUZQ7RFJDKWSJCWXK,YJEP6,YJEP6,3PEIJLRY6UW4TEUZQ7RFJDKWSJCWXK,3PEIJLRY6UW4TEUZQ7RFJDKWSJCWXK,271016,271016,,,,,,,,,,
,,,,2,13.9933,0,27,27,1209,1,a huge living room with an ocean viw ,a huge livingroom without nothing near the window,wolfe2,125_R_sofa,4,45,A1H198MRIM37T1,2021-01-24_08h10.44.675,MetaAwareness,2020.1.2,MacIntel,60,368IUKXGA6BY46F8NWZS3N4SC5IP62,A1H198MRIM37T1,3PEIJLRY6UW4TEUZQ7RFJDKWSJCWXK,YJEP6,YJEP6,3PEIJLRY6UW4TEUZQ7RFJDKWSJCWXK,3PEIJLRY6UW4TEUZQ7RFJDKWSJCWXK,271016,271016,,,,,,,,,,
,,,,4,9.8631,0,28,28,910,1, a hotel room with two twin beds and one of the control pad on the wall between two beds,a hotel room with two twin beds and without one of the control pad on the wall between two beds,wolfe2,093_L_switch,7,45,A1H198MRIM37T1,2021-01-24_08h10.44.675,MetaAwareness,2020.1.2,MacIntel,60,368IUKXGA6BY46F8NWZS3N4SC5IP62,A1H198MRIM37T1,3PEIJLRY6UW4TEUZQ7RFJDKWSJCWXK,YJEP6,YJEP6,3PEIJLRY6UW4TEUZQ7RFJDKWSJCWXK,3PEIJLRY6UW4TEUZQ7RFJDKWSJCWXK,271016,271016,,,,,,,,,,
,,,,4,8.434245,0,29,29,27,1,"this hotel room has a nice view of the skyline, you can see a nice hill or small mountain in the back, as well as a pretty treeline.","this hotel room is facing a nice view of the skyline. behind the buildings you can see some nice trees, and behind the trees there appears to be a large tower looming over it all. ",wolfe2,004_L_electricalgrid,2,45,A1H198MRIM37T1,2021-01-24_08h10.44.675,MetaAwareness,2020.1.2,MacIntel,60,368IUKXGA6BY46F8NWZS3N4SC5IP62,A1H198MRIM37T1,3PEIJLRY6UW4TEUZQ7RFJDKWSJCWXK,YJEP6,YJEP6,3PEIJLRY6UW4TEUZQ7RFJDKWSJCWXK,3PEIJLRY6UW4TEUZQ7RFJDKWSJCWXK,271016,271016,,,,,,,,,,
,,,,,,,,,,,,,,,,45,A1H198MRIM37T1,2021-01-24_08h10.44.675,MetaAwareness,2020.1.2,MacIntel,60,368IUKXGA6BY46F8NWZS3N4SC5IP62,A1H198MRIM37T1,3PEIJLRY6UW4TEUZQ7RFJDKWSJCWXK,YJEP6,YJEP6,3PEIJLRY6UW4TEUZQ7RFJDKWSJCWXK,3PEIJLRY6UW4TEUZQ7RFJDKWSJCWXK,271016,271016,6,21.43715,someone laying underneath a blue beach umbrella on a crowded beach,someone laying underneath a blue beach umbrella on a crowded beach,same,1,7.65465,members of a marching band crossing a track that all have feather plumes at the front of their hats,a cluttered and rustic looking cafe with 10 hanging lights,different
