consent_response.keys,consent_response.rt,key_resp_2.keys,key_resp_2.rt,user_resp.keys,user_resp.rt,trials.thisRepN,trials.thisTrialN,trials.thisN,trials.thisIndex,trials.ran,image_1_text,image_2_text,database,image,number,age,worker_ID,date,expName,psychopyVersion,OS,frameRate,hitId,workerId,assignmentId,a,tp_a,b,tp_b,c,tp_c,catch_same_resp.keys,catch_same_resp.rt,image_1_text_catch_same,image_2_text_catch_same,image_catch_same,catch_different_resp.keys,catch_different_resp.rt,image_1_text_catch_different,image_2_text_catch_different,image_catch_different
space,12.504,space,34.464,5,15.245,0,0,0,345,1,a white kitchen with red cabinets that has 5 dishes on the back right shelf,a white kitchen with red cabinets that has 6 dishes on the back right shelf,wolfe2,036_L_bowl,2,57,A1M7IUKW25QYAO,2021-01-24_12h45.53.396,MetaAwareness,2020.1.2,Win32,60,3ZQA3IO31CULCK2A2QAWJR8LUP81O1,A1M7IUKW25QYAO,31N2WW6R9STQ2U1QGTAR899SQLPF39,RWN16,RWN16,31N2WW6R9STQ2U1QGTAR899SQLPF39,31N2WW6R9STQ2U1QGTAR899SQLPF39,271016,271016,,,,,,,,,,
,,,,1,7.346,0,1,1,434,1,no cell phone are available in the room,cell available in the room,wolfe2,045_R_musicdock,1,57,A1M7IUKW25QYAO,2021-01-24_12h45.53.396,MetaAwareness,2020.1.2,Win32,60,3ZQA3IO31CULCK2A2QAWJR8LUP81O1,A1M7IUKW25QYAO,31N2WW6R9STQ2U1QGTAR899SQLPF39,RWN16,RWN16,31N2WW6R9STQ2U1QGTAR899SQLPF39,31N2WW6R9STQ2U1QGTAR899SQLPF39,271016,271016,,,,,,,,,,
,,,,3,19.581,0,2,2,453,1,a bedroom with silver and white furniture and a white dresser.,a bedroom with silver and white furniture with a white dresser and a silver handle.,wolfe2,047_R_handle,3,57,A1M7IUKW25QYAO,2021-01-24_12h45.53.396,MetaAwareness,2020.1.2,Win32,60,3ZQA3IO31CULCK2A2QAWJR8LUP81O1,A1M7IUKW25QYAO,31N2WW6R9STQ2U1QGTAR899SQLPF39,RWN16,RWN16,31N2WW6R9STQ2U1QGTAR899SQLPF39,31N2WW6R9STQ2U1QGTAR899SQLPF39,271016,271016,,,,,,,,,,
,,,,3,12.077,0,3,3,232,1,an outdoor bathroom area that has seating and a private patio,"an outdoor bathroom area that has seating and a private patio, complete with extra towels",wolfe2,024_L_towels,1,57,A1M7IUKW25QYAO,2021-01-24_12h45.53.396,MetaAwareness,2020.1.2,Win32,60,3ZQA3IO31CULCK2A2QAWJR8LUP81O1,A1M7IUKW25QYAO,31N2WW6R9STQ2U1QGTAR899SQLPF39,RWN16,RWN16,31N2WW6R9STQ2U1QGTAR899SQLPF39,31N2WW6R9STQ2U1QGTAR899SQLPF39,271016,271016,,,,,,,,,,
,,,,4,10.257,0,4,4,35,1,"a combined home office and living space with a modern look and feel, with the wall above the couch being empty","a combined home office and living space with a modern look and feel, with the wall above the couch containing a mirror with three panels",wolfe2,005_L_mirror,1,57,A1M7IUKW25QYAO,2021-01-24_12h45.53.396,MetaAwareness,2020.1.2,Win32,60,3ZQA3IO31CULCK2A2QAWJR8LUP81O1,A1M7IUKW25QYAO,31N2WW6R9STQ2U1QGTAR899SQLPF39,RWN16,RWN16,31N2WW6R9STQ2U1QGTAR899SQLPF39,31N2WW6R9STQ2U1QGTAR899SQLPF39,271016,271016,,,,,,,,,,
,,,,2,8.355,0,5,5,79,1,this bathroom has almost everything needed for function.,this bathroom has everything including lotions. ,wolfe2,008_R_bottle,5,57,A1M7IUKW25QYAO,2021-01-24_12h45.53.396,MetaAwareness,2020.1.2,Win32,60,3ZQA3IO31CULCK2A2QAWJR8LUP81O1,A1M7IUKW25QYAO,31N2WW6R9STQ2U1QGTAR899SQLPF39,RWN16,RWN16,31N2WW6R9STQ2U1QGTAR899SQLPF39,31N2WW6R9STQ2U1QGTAR899SQLPF39,271016,271016,,,,,,,,,,
,,,,2,6.365,0,6,6,538,1,a modern white sofa with no blankets or throw cushions,"a modern white sofa with no throw cushions, just a blanket and a magazine",wolfe2,056_R_comforter,1,57,A1M7IUKW25QYAO,2021-01-24_12h45.53.396,MetaAwareness,2020.1.2,Win32,60,3ZQA3IO31CULCK2A2QAWJR8LUP81O1,A1M7IUKW25QYAO,31N2WW6R9STQ2U1QGTAR899SQLPF39,RWN16,RWN16,31N2WW6R9STQ2U1QGTAR899SQLPF39,31N2WW6R9STQ2U1QGTAR899SQLPF39,271016,271016,,,,,,,,,,
,,,,4,6.147,0,7,7,997,1,bright and clean washroom with a hook on the far wall.,bright and clean washroom,wolfe2,103_R_hook,2,57,A1M7IUKW25QYAO,2021-01-24_12h45.53.396,MetaAwareness,2020.1.2,Win32,60,3ZQA3IO31CULCK2A2QAWJR8LUP81O1,A1M7IUKW25QYAO,31N2WW6R9STQ2U1QGTAR899SQLPF39,RWN16,RWN16,31N2WW6R9STQ2U1QGTAR899SQLPF39,31N2WW6R9STQ2U1QGTAR899SQLPF39,271016,271016,,,,,,,,,,
,,,,4,9.952,0,8,8,1150,1,a large living area with modern looking furniture and a picture on the wall,a large living room filled with modern furniture and white walls.,wolfe2,119_R_painting,4,57,A1M7IUKW25QYAO,2021-01-24_12h45.53.396,MetaAwareness,2020.1.2,Win32,60,3ZQA3IO31CULCK2A2QAWJR8LUP81O1,A1M7IUKW25QYAO,31N2WW6R9STQ2U1QGTAR899SQLPF39,RWN16,RWN16,31N2WW6R9STQ2U1QGTAR899SQLPF39,31N2WW6R9STQ2U1QGTAR899SQLPF39,271016,271016,,,,,,,,,,
,,,,2,7.757,0,9,9,321,1,there is an empty spot of the shelf between two items in this modern living room,there is a vase between two objects in this modern living room,wolfe2,033_R_vase,2,57,A1M7IUKW25QYAO,2021-01-24_12h45.53.396,MetaAwareness,2020.1.2,Win32,60,3ZQA3IO31CULCK2A2QAWJR8LUP81O1,A1M7IUKW25QYAO,31N2WW6R9STQ2U1QGTAR899SQLPF39,RWN16,RWN16,31N2WW6R9STQ2U1QGTAR899SQLPF39,31N2WW6R9STQ2U1QGTAR899SQLPF39,271016,271016,,,,,,,,,,
,,,,4,7.696,0,10,10,658,1,a spacious bathroom with very clean and white fixtures and a large bath tub with two faucets,a spacious bathroom with very clean and white fixtures and a large bath tub with three faucets,wolfe2,068_L_faucet,6,57,A1M7IUKW25QYAO,2021-01-24_12h45.53.396,MetaAwareness,2020.1.2,Win32,60,3ZQA3IO31CULCK2A2QAWJR8LUP81O1,A1M7IUKW25QYAO,31N2WW6R9STQ2U1QGTAR899SQLPF39,RWN16,RWN16,31N2WW6R9STQ2U1QGTAR899SQLPF39,31N2WW6R9STQ2U1QGTAR899SQLPF39,271016,271016,,,,,,,,,,
,,,,4,8.015,0,11,11,383,1," a modern dining room with dark wood furniture, a tan rug, and two pieces of art on the wall","a modern dining room with dark wood furniture, a tan rug, and three pieces of art on the wall",wolfe2,040_R_painting,2,57,A1M7IUKW25QYAO,2021-01-24_12h45.53.396,MetaAwareness,2020.1.2,Win32,60,3ZQA3IO31CULCK2A2QAWJR8LUP81O1,A1M7IUKW25QYAO,31N2WW6R9STQ2U1QGTAR899SQLPF39,RWN16,RWN16,31N2WW6R9STQ2U1QGTAR899SQLPF39,31N2WW6R9STQ2U1QGTAR899SQLPF39,271016,271016,,,,,,,,,,
,,,,3,10.684,0,12,12,241,1,a sink area that looks very zen and has a basket plus a stack of four towels under it,a sink area that looks very zen and has a basket plus two stacks of four towels each under it,wolfe2,024_R_towels,3,57,A1M7IUKW25QYAO,2021-01-24_12h45.53.396,MetaAwareness,2020.1.2,Win32,60,3ZQA3IO31CULCK2A2QAWJR8LUP81O1,A1M7IUKW25QYAO,31N2WW6R9STQ2U1QGTAR899SQLPF39,RWN16,RWN16,31N2WW6R9STQ2U1QGTAR899SQLPF39,31N2WW6R9STQ2U1QGTAR899SQLPF39,271016,271016,,,,,,,,,,
,,,,4,7.29,0,13,13,304,1,"a modern living room with many windows, with just one wooden beam on the ceiling","a modern living room with many windows, with two wooden beams on the ceiling",wolfe2,031_R_log,4,57,A1M7IUKW25QYAO,2021-01-24_12h45.53.396,MetaAwareness,2020.1.2,Win32,60,3ZQA3IO31CULCK2A2QAWJR8LUP81O1,A1M7IUKW25QYAO,31N2WW6R9STQ2U1QGTAR899SQLPF39,RWN16,RWN16,31N2WW6R9STQ2U1QGTAR899SQLPF39,31N2WW6R9STQ2U1QGTAR899SQLPF39,271016,271016,,,,,,,,,,
,,,,3,11.154,0,14,14,646,1,a nice looking boardroom with nice white rolling office chairs. there is a cabinet off to the side behind a chair with nothing on it.,a nice looking boardroom with nice white rolling office chairs. there is a cabinet off to the side behind a chair with a picture on top of it.,wolfe2,067_L_painting,3,57,A1M7IUKW25QYAO,2021-01-24_12h45.53.396,MetaAwareness,2020.1.2,Win32,60,3ZQA3IO31CULCK2A2QAWJR8LUP81O1,A1M7IUKW25QYAO,31N2WW6R9STQ2U1QGTAR899SQLPF39,RWN16,RWN16,31N2WW6R9STQ2U1QGTAR899SQLPF39,31N2WW6R9STQ2U1QGTAR899SQLPF39,271016,271016,,,,,,,,,,
,,,,3,9.945,0,15,15,89,1,a very modern-looking bedroom with a shiny white floor and no rugs,a very modern-looking bedroom with a shiny white floor and a round beige rug,wolfe2,009_R_carpet,3,57,A1M7IUKW25QYAO,2021-01-24_12h45.53.396,MetaAwareness,2020.1.2,Win32,60,3ZQA3IO31CULCK2A2QAWJR8LUP81O1,A1M7IUKW25QYAO,31N2WW6R9STQ2U1QGTAR899SQLPF39,RWN16,RWN16,31N2WW6R9STQ2U1QGTAR899SQLPF39,31N2WW6R9STQ2U1QGTAR899SQLPF39,271016,271016,,,,,,,,,,
,,,,4,7.487,0,16,16,208,1,a colorful room with a table that has nothing on top of a table mat,a colorful room with a table that has a keyboard on top of a mat,wolfe2,021_R_keyboard,4,57,A1M7IUKW25QYAO,2021-01-24_12h45.53.396,MetaAwareness,2020.1.2,Win32,60,3ZQA3IO31CULCK2A2QAWJR8LUP81O1,A1M7IUKW25QYAO,31N2WW6R9STQ2U1QGTAR899SQLPF39,RWN16,RWN16,31N2WW6R9STQ2U1QGTAR899SQLPF39,31N2WW6R9STQ2U1QGTAR899SQLPF39,271016,271016,,,,,,,,,,
,,,,2,4.229,0,17,17,967,1,a bathroom with an object on the wall next to the sink and two faucets,a bathroom with a sink with two faucets,wolfe2,100_L_mirror,3,57,A1M7IUKW25QYAO,2021-01-24_12h45.53.396,MetaAwareness,2020.1.2,Win32,60,3ZQA3IO31CULCK2A2QAWJR8LUP81O1,A1M7IUKW25QYAO,31N2WW6R9STQ2U1QGTAR899SQLPF39,RWN16,RWN16,31N2WW6R9STQ2U1QGTAR899SQLPF39,31N2WW6R9STQ2U1QGTAR899SQLPF39,271016,271016,,,,,,,,,,
,,,,4,9.367,0,18,18,760,1,"a bathroom decorated with blue walls and white tile, with a black sink consisting of one faucet knob","a bathroom decorated with blue walls and white tile, with a black sink consisting of two faucet knobs",wolfe2,078_R_faucet,3,57,A1M7IUKW25QYAO,2021-01-24_12h45.53.396,MetaAwareness,2020.1.2,Win32,60,3ZQA3IO31CULCK2A2QAWJR8LUP81O1,A1M7IUKW25QYAO,31N2WW6R9STQ2U1QGTAR899SQLPF39,RWN16,RWN16,31N2WW6R9STQ2U1QGTAR899SQLPF39,31N2WW6R9STQ2U1QGTAR899SQLPF39,271016,271016,,,,,,,,,,
,,,,2,4.129,0,19,19,831,1,a bright and clean bathroom with a light switch on the wall,a bright and clean bathroom,wolfe2,085_R_switchboard,2,57,A1M7IUKW25QYAO,2021-01-24_12h45.53.396,MetaAwareness,2020.1.2,Win32,60,3ZQA3IO31CULCK2A2QAWJR8LUP81O1,A1M7IUKW25QYAO,31N2WW6R9STQ2U1QGTAR899SQLPF39,RWN16,RWN16,31N2WW6R9STQ2U1QGTAR899SQLPF39,31N2WW6R9STQ2U1QGTAR899SQLPF39,271016,271016,,,,,,,,,,
,,,,2,3.649,0,20,20,96,1,bedroom with pictures across the bed and one candle in a holder beside the bed on the right.,there are now two candles beside the bed on the right side.,wolfe2,010_R_candle,1,57,A1M7IUKW25QYAO,2021-01-24_12h45.53.396,MetaAwareness,2020.1.2,Win32,60,3ZQA3IO31CULCK2A2QAWJR8LUP81O1,A1M7IUKW25QYAO,31N2WW6R9STQ2U1QGTAR899SQLPF39,RWN16,RWN16,31N2WW6R9STQ2U1QGTAR899SQLPF39,31N2WW6R9STQ2U1QGTAR899SQLPF39,271016,271016,,,,,,,,,,
,,,,2,5.242,0,21,21,1082,1,old living room with a basket by small chair,old living room decorated in flower patterns,wolfe2,112_L_basket,4,57,A1M7IUKW25QYAO,2021-01-24_12h45.53.396,MetaAwareness,2020.1.2,Win32,60,3ZQA3IO31CULCK2A2QAWJR8LUP81O1,A1M7IUKW25QYAO,31N2WW6R9STQ2U1QGTAR899SQLPF39,RWN16,RWN16,31N2WW6R9STQ2U1QGTAR899SQLPF39,31N2WW6R9STQ2U1QGTAR899SQLPF39,271016,271016,,,,,,,,,,
,,,,2,5.885,0,22,22,443,1,a nice looking hotel room with a television remote on a glass table.,a nice looking hotel room with a bowl sitting on a glass table.,wolfe2,046_R_remote,2,57,A1M7IUKW25QYAO,2021-01-24_12h45.53.396,MetaAwareness,2020.1.2,Win32,60,3ZQA3IO31CULCK2A2QAWJR8LUP81O1,A1M7IUKW25QYAO,31N2WW6R9STQ2U1QGTAR899SQLPF39,RWN16,RWN16,31N2WW6R9STQ2U1QGTAR899SQLPF39,31N2WW6R9STQ2U1QGTAR899SQLPF39,271016,271016,,,,,,,,,,
,,,,4,8.285,0,23,23,51,1,the living room with king bed and table top on the left handside without a vessel as decoration,the living room with king bed and table top on the left handside with a vessel as decoration,wolfe2,006_L_vase,6,57,A1M7IUKW25QYAO,2021-01-24_12h45.53.396,MetaAwareness,2020.1.2,Win32,60,3ZQA3IO31CULCK2A2QAWJR8LUP81O1,A1M7IUKW25QYAO,31N2WW6R9STQ2U1QGTAR899SQLPF39,RWN16,RWN16,31N2WW6R9STQ2U1QGTAR899SQLPF39,31N2WW6R9STQ2U1QGTAR899SQLPF39,271016,271016,,,,,,,,,,
,,,,2,6.79,0,24,24,362,1,"a dining room that contains a table and chairs, and several plates are displayed. ","a dining room with a table, chairs and plates displayed behind  it. there is artwork hanging on the wall.",wolfe2,038_L_art,1,57,A1M7IUKW25QYAO,2021-01-24_12h45.53.396,MetaAwareness,2020.1.2,Win32,60,3ZQA3IO31CULCK2A2QAWJR8LUP81O1,A1M7IUKW25QYAO,31N2WW6R9STQ2U1QGTAR899SQLPF39,RWN16,RWN16,31N2WW6R9STQ2U1QGTAR899SQLPF39,31N2WW6R9STQ2U1QGTAR899SQLPF39,271016,271016,,,,,,,,,,
,,,,4,10.044,0,25,25,30,1,a small bedroom with view of a city that lacks a cell phone tower in the distance,a small bedroom with view of a city that has a cell phone tower visible in the distance,wolfe2,004_L_electricalgrid,5,57,A1M7IUKW25QYAO,2021-01-24_12h45.53.396,MetaAwareness,2020.1.2,Win32,60,3ZQA3IO31CULCK2A2QAWJR8LUP81O1,A1M7IUKW25QYAO,31N2WW6R9STQ2U1QGTAR899SQLPF39,RWN16,RWN16,31N2WW6R9STQ2U1QGTAR899SQLPF39,31N2WW6R9STQ2U1QGTAR899SQLPF39,271016,271016,,,,,,,,,,
,,,,3,7.242,0,26,26,963,1,a farm style dining area with art work and a mirror above a shelfing unit,a farm style dining area with art work above a shelfing unit,wolfe2,099_R_sconce,3,57,A1M7IUKW25QYAO,2021-01-24_12h45.53.396,MetaAwareness,2020.1.2,Win32,60,3ZQA3IO31CULCK2A2QAWJR8LUP81O1,A1M7IUKW25QYAO,31N2WW6R9STQ2U1QGTAR899SQLPF39,RWN16,RWN16,31N2WW6R9STQ2U1QGTAR899SQLPF39,31N2WW6R9STQ2U1QGTAR899SQLPF39,271016,271016,,,,,,,,,,
,,,,5,11.466,0,27,27,976,1,lighted shelves for glasses and stemware are functional and elegant .,lighted shelves for glasses and stemware are functional and elegant.,wolfe2,101_L_cup,3,57,A1M7IUKW25QYAO,2021-01-24_12h45.53.396,MetaAwareness,2020.1.2,Win32,60,3ZQA3IO31CULCK2A2QAWJR8LUP81O1,A1M7IUKW25QYAO,31N2WW6R9STQ2U1QGTAR899SQLPF39,RWN16,RWN16,31N2WW6R9STQ2U1QGTAR899SQLPF39,31N2WW6R9STQ2U1QGTAR899SQLPF39,271016,271016,,,,,,,,,,
,,,,4,8.311,0,28,28,215,1,hanging bulp has,hanging bulp has no available,wolfe2,022_R_lamp,2,57,A1M7IUKW25QYAO,2021-01-24_12h45.53.396,MetaAwareness,2020.1.2,Win32,60,3ZQA3IO31CULCK2A2QAWJR8LUP81O1,A1M7IUKW25QYAO,31N2WW6R9STQ2U1QGTAR899SQLPF39,RWN16,RWN16,31N2WW6R9STQ2U1QGTAR899SQLPF39,31N2WW6R9STQ2U1QGTAR899SQLPF39,271016,271016,,,,,,,,,,
,,,,3,9.521,0,29,29,1086,1,"living room with several glass windows, ceiling light with fan and a flower pot beside the cushioned chair.","living room with several glass windows, ceiling light with fan and many places to sit.",wolfe2,112_R_basket,4,57,A1M7IUKW25QYAO,2021-01-24_12h45.53.396,MetaAwareness,2020.1.2,Win32,60,3ZQA3IO31CULCK2A2QAWJR8LUP81O1,A1M7IUKW25QYAO,31N2WW6R9STQ2U1QGTAR899SQLPF39,RWN16,RWN16,31N2WW6R9STQ2U1QGTAR899SQLPF39,31N2WW6R9STQ2U1QGTAR899SQLPF39,271016,271016,,,,,,,,,,
,,,,,,,,,,,,,,,,57,A1M7IUKW25QYAO,2021-01-24_12h45.53.396,MetaAwareness,2020.1.2,Win32,60,3ZQA3IO31CULCK2A2QAWJR8LUP81O1,A1M7IUKW25QYAO,31N2WW6R9STQ2U1QGTAR899SQLPF39,RWN16,RWN16,31N2WW6R9STQ2U1QGTAR899SQLPF39,31N2WW6R9STQ2U1QGTAR899SQLPF39,271016,271016,6,7.382,someone laying underneath a blue beach umbrella on a crowded beach,someone laying underneath a blue beach umbrella on a crowded beach,same,1,3.821,members of a marching band crossing a track that all have feather plumes at the front of their hats,a cluttered and rustic looking cafe with 10 hanging lights,different
