consent_response.keys,consent_response.rt,key_resp_2.keys,key_resp_2.rt,user_resp.keys,user_resp.rt,trials.thisRepN,trials.thisTrialN,trials.thisN,trials.thisIndex,trials.ran,image_1_text,image_2_text,database,image,number,age,worker_ID,date,expName,psychopyVersion,OS,frameRate,hitId,workerId,assignmentId,a,tp_a,b,tp_b,c,tp_c,catch_same_resp.keys,catch_same_resp.rt,image_1_text_catch_same,image_2_text_catch_same,image_catch_same,catch_different_resp.keys,catch_different_resp.rt,image_1_text_catch_different,image_2_text_catch_different,image_catch_different
space,9.160675,space,7.617825,6,10.24169,0,0,0,974,1,a bathroom. there is a shelve with lots of glasses and bottes on it. on the one shelf is a red glass next two a green and red wine glasses.,"a bathroom. there is a shelf with bottls and glasses. the one shelf has a red wine glass, and green wine glass.",wolfe2,101_L_cup,1,42,A1PZIN8H1VI6SY,2021-01-24_10h23.52.784,MetaAwareness,2020.1.2,Win32,60,3D42WVSDH9YOWD0KFCYFAKAH99OFYP,A1PZIN8H1VI6SY,3G5F9DBFOQ0USZUFVT4XUPDOXKQVHF,F95G6,F95G6,3G5F9DBFOQ0USZUFVT4XUPDOXKQVHF,3G5F9DBFOQ0USZUFVT4XUPDOXKQVHF,271016,271016,,,,,,,,,,
,,,,4,4.377265,0,1,1,404,1,a bathroom without tap under the mirror,a bathroom with tap onthe wall,wolfe2,042_R_tap,3,42,A1PZIN8H1VI6SY,2021-01-24_10h23.52.784,MetaAwareness,2020.1.2,Win32,60,3D42WVSDH9YOWD0KFCYFAKAH99OFYP,A1PZIN8H1VI6SY,3G5F9DBFOQ0USZUFVT4XUPDOXKQVHF,F95G6,F95G6,3G5F9DBFOQ0USZUFVT4XUPDOXKQVHF,3G5F9DBFOQ0USZUFVT4XUPDOXKQVHF,271016,271016,,,,,,,,,,
,,,,5,4.419055,0,2,2,615,1,a dinnig room with large table and six chairs around. there is a mirror on the wall without bottle of wine at the desk beneath the mirror,a dinning room with large table and six chairs around. there is a mirror on the wall with bottle of wine at the dessk beneath the mirror,wolfe2,064_L_bottles,4,42,A1PZIN8H1VI6SY,2021-01-24_10h23.52.784,MetaAwareness,2020.1.2,Win32,60,3D42WVSDH9YOWD0KFCYFAKAH99OFYP,A1PZIN8H1VI6SY,3G5F9DBFOQ0USZUFVT4XUPDOXKQVHF,F95G6,F95G6,3G5F9DBFOQ0USZUFVT4XUPDOXKQVHF,3G5F9DBFOQ0USZUFVT4XUPDOXKQVHF,271016,271016,,,,,,,,,,
,,,,1,7.846335,0,3,3,1082,1,old living room with a basket by small chair,old living room decorated in flower patterns,wolfe2,112_L_basket,4,42,A1PZIN8H1VI6SY,2021-01-24_10h23.52.784,MetaAwareness,2020.1.2,Win32,60,3D42WVSDH9YOWD0KFCYFAKAH99OFYP,A1PZIN8H1VI6SY,3G5F9DBFOQ0USZUFVT4XUPDOXKQVHF,F95G6,F95G6,3G5F9DBFOQ0USZUFVT4XUPDOXKQVHF,3G5F9DBFOQ0USZUFVT4XUPDOXKQVHF,271016,271016,,,,,,,,,,
,,,,3,5.212995,0,4,4,327,1,a bedroom with a dresser with 2 handles,a bedroom with a dresser with 3 handles,wolfe2,034_L_handle,4,42,A1PZIN8H1VI6SY,2021-01-24_10h23.52.784,MetaAwareness,2020.1.2,Win32,60,3D42WVSDH9YOWD0KFCYFAKAH99OFYP,A1PZIN8H1VI6SY,3G5F9DBFOQ0USZUFVT4XUPDOXKQVHF,F95G6,F95G6,3G5F9DBFOQ0USZUFVT4XUPDOXKQVHF,3G5F9DBFOQ0USZUFVT4XUPDOXKQVHF,271016,271016,,,,,,,,,,
,,,,4,7.294405,0,5,5,952,1,"the image is blending and matches with grace.   the item, likely shoes, on the floor, give it a suggestion of peace or home.",this image is a little severe.  it needs something more than the carpet strip to give it a comfortable appearance.,wolfe2,098_R_slippers,2,42,A1PZIN8H1VI6SY,2021-01-24_10h23.52.784,MetaAwareness,2020.1.2,Win32,60,3D42WVSDH9YOWD0KFCYFAKAH99OFYP,A1PZIN8H1VI6SY,3G5F9DBFOQ0USZUFVT4XUPDOXKQVHF,F95G6,F95G6,3G5F9DBFOQ0USZUFVT4XUPDOXKQVHF,3G5F9DBFOQ0USZUFVT4XUPDOXKQVHF,271016,271016,,,,,,,,,,
,,,,1,7.966285,0,6,6,1209,1,a huge living room with an ocean viw ,a huge livingroom without nothing near the window,wolfe2,125_R_sofa,4,42,A1PZIN8H1VI6SY,2021-01-24_10h23.52.784,MetaAwareness,2020.1.2,Win32,60,3D42WVSDH9YOWD0KFCYFAKAH99OFYP,A1PZIN8H1VI6SY,3G5F9DBFOQ0USZUFVT4XUPDOXKQVHF,F95G6,F95G6,3G5F9DBFOQ0USZUFVT4XUPDOXKQVHF,3G5F9DBFOQ0USZUFVT4XUPDOXKQVHF,271016,271016,,,,,,,,,,
,,,,4,4.08522,0,7,7,1017,1,a bedroom that is cluttered with clothes and a hat on top of the bed ,a bedroom that is cluttered with a cheetah print bedspread and clothes on the bed,wolfe2,105_R_hat,2,42,A1PZIN8H1VI6SY,2021-01-24_10h23.52.784,MetaAwareness,2020.1.2,Win32,60,3D42WVSDH9YOWD0KFCYFAKAH99OFYP,A1PZIN8H1VI6SY,3G5F9DBFOQ0USZUFVT4XUPDOXKQVHF,F95G6,F95G6,3G5F9DBFOQ0USZUFVT4XUPDOXKQVHF,3G5F9DBFOQ0USZUFVT4XUPDOXKQVHF,271016,271016,,,,,,,,,,
,,,,3,6.755395,0,8,8,192,1,a desk sits in the corner of the room with some decorations on the wall.,a desk sits in the corner of the room with three decorations of circles o the wall.,wolfe2,020_L_walldeco,3,42,A1PZIN8H1VI6SY,2021-01-24_10h23.52.784,MetaAwareness,2020.1.2,Win32,60,3D42WVSDH9YOWD0KFCYFAKAH99OFYP,A1PZIN8H1VI6SY,3G5F9DBFOQ0USZUFVT4XUPDOXKQVHF,F95G6,F95G6,3G5F9DBFOQ0USZUFVT4XUPDOXKQVHF,3G5F9DBFOQ0USZUFVT4XUPDOXKQVHF,271016,271016,,,,,,,,,,
,,,,5,5.313195,0,9,9,1173,1,a green cafe with 13 chairs at tables in it,a green cafe with 12 chairs at tables in it ,wolfe2,122_L_chair,3,42,A1PZIN8H1VI6SY,2021-01-24_10h23.52.784,MetaAwareness,2020.1.2,Win32,60,3D42WVSDH9YOWD0KFCYFAKAH99OFYP,A1PZIN8H1VI6SY,3G5F9DBFOQ0USZUFVT4XUPDOXKQVHF,F95G6,F95G6,3G5F9DBFOQ0USZUFVT4XUPDOXKQVHF,3G5F9DBFOQ0USZUFVT4XUPDOXKQVHF,271016,271016,,,,,,,,,,
,,,,1,6.15458,0,10,10,862,1,a wall decor in a salon,nothing on te wall in the salon,wolfe2,088_R_clock,3,42,A1PZIN8H1VI6SY,2021-01-24_10h23.52.784,MetaAwareness,2020.1.2,Win32,60,3D42WVSDH9YOWD0KFCYFAKAH99OFYP,A1PZIN8H1VI6SY,3G5F9DBFOQ0USZUFVT4XUPDOXKQVHF,F95G6,F95G6,3G5F9DBFOQ0USZUFVT4XUPDOXKQVHF,3G5F9DBFOQ0USZUFVT4XUPDOXKQVHF,271016,271016,,,,,,,,,,
,,,,4,4.043415,0,11,11,459,1,a bedroom with a decoration with a ball on it,a bedroom with a decoration with a ball then a outward part,wolfe2,048_L_art,2,42,A1PZIN8H1VI6SY,2021-01-24_10h23.52.784,MetaAwareness,2020.1.2,Win32,60,3D42WVSDH9YOWD0KFCYFAKAH99OFYP,A1PZIN8H1VI6SY,3G5F9DBFOQ0USZUFVT4XUPDOXKQVHF,F95G6,F95G6,3G5F9DBFOQ0USZUFVT4XUPDOXKQVHF,3G5F9DBFOQ0USZUFVT4XUPDOXKQVHF,271016,271016,,,,,,,,,,
,,,,5,4.559405,0,12,12,125,1,a sectioned room with a hardwood floor and one light over a seating table,a sectioned room with a hardwood floor and two lights over a seating table,wolfe2,013_L_lamp,5,42,A1PZIN8H1VI6SY,2021-01-24_10h23.52.784,MetaAwareness,2020.1.2,Win32,60,3D42WVSDH9YOWD0KFCYFAKAH99OFYP,A1PZIN8H1VI6SY,3G5F9DBFOQ0USZUFVT4XUPDOXKQVHF,F95G6,F95G6,3G5F9DBFOQ0USZUFVT4XUPDOXKQVHF,3G5F9DBFOQ0USZUFVT4XUPDOXKQVHF,271016,271016,,,,,,,,,,
,,,,3,4.327205,0,13,13,823,1,a classy vacation beach house space with open door,fresh air in the beach house,wolfe2,084_R_light,7,42,A1PZIN8H1VI6SY,2021-01-24_10h23.52.784,MetaAwareness,2020.1.2,Win32,60,3D42WVSDH9YOWD0KFCYFAKAH99OFYP,A1PZIN8H1VI6SY,3G5F9DBFOQ0USZUFVT4XUPDOXKQVHF,F95G6,F95G6,3G5F9DBFOQ0USZUFVT4XUPDOXKQVHF,3G5F9DBFOQ0USZUFVT4XUPDOXKQVHF,271016,271016,,,,,,,,,,
,,,,4,3.421935,0,14,14,528,1,a master bedroom and office space with two pieces of circle rugs on the floor,a master bedroom and office space with three pieces of circle rugs on the floor,wolfe2,055_R_carpet,2,42,A1PZIN8H1VI6SY,2021-01-24_10h23.52.784,MetaAwareness,2020.1.2,Win32,60,3D42WVSDH9YOWD0KFCYFAKAH99OFYP,A1PZIN8H1VI6SY,3G5F9DBFOQ0USZUFVT4XUPDOXKQVHF,F95G6,F95G6,3G5F9DBFOQ0USZUFVT4XUPDOXKQVHF,3G5F9DBFOQ0USZUFVT4XUPDOXKQVHF,271016,271016,,,,,,,,,,
,,,,3,4.005915,0,15,15,558,1,nothing upon the sofa,a purse is on the sofa,wolfe2,058_R_clutch,1,42,A1PZIN8H1VI6SY,2021-01-24_10h23.52.784,MetaAwareness,2020.1.2,Win32,60,3D42WVSDH9YOWD0KFCYFAKAH99OFYP,A1PZIN8H1VI6SY,3G5F9DBFOQ0USZUFVT4XUPDOXKQVHF,F95G6,F95G6,3G5F9DBFOQ0USZUFVT4XUPDOXKQVHF,3G5F9DBFOQ0USZUFVT4XUPDOXKQVHF,271016,271016,,,,,,,,,,
,,,,4,2.4831,0,16,16,285,1,"a bathroom with a shower, two sinks and two mirrors with two red cups on a small shelf","a bathroom with a shower, two sinks and two mirrors with three red cups on a small shelf",wolfe2,029_R_glass,4,42,A1PZIN8H1VI6SY,2021-01-24_10h23.52.784,MetaAwareness,2020.1.2,Win32,60,3D42WVSDH9YOWD0KFCYFAKAH99OFYP,A1PZIN8H1VI6SY,3G5F9DBFOQ0USZUFVT4XUPDOXKQVHF,F95G6,F95G6,3G5F9DBFOQ0USZUFVT4XUPDOXKQVHF,3G5F9DBFOQ0USZUFVT4XUPDOXKQVHF,271016,271016,,,,,,,,,,
,,,,4,0.13576,0,17,17,620,1,a dining room with dark brown furniture and a table against the wall with a white bowl on it,a dining room with dark brown furniture and a table against the wall with a white bowl and liquer bottle on it,wolfe2,064_R_bottles,4,42,A1PZIN8H1VI6SY,2021-01-24_10h23.52.784,MetaAwareness,2020.1.2,Win32,60,3D42WVSDH9YOWD0KFCYFAKAH99OFYP,A1PZIN8H1VI6SY,3G5F9DBFOQ0USZUFVT4XUPDOXKQVHF,F95G6,F95G6,3G5F9DBFOQ0USZUFVT4XUPDOXKQVHF,3G5F9DBFOQ0USZUFVT4XUPDOXKQVHF,271016,271016,,,,,,,,,,
,,,,3,4.3145,0,18,18,614,1,dining room with 6 chairs,dining room with wine bottles on desk in the back,wolfe2,064_L_bottles,3,42,A1PZIN8H1VI6SY,2021-01-24_10h23.52.784,MetaAwareness,2020.1.2,Win32,60,3D42WVSDH9YOWD0KFCYFAKAH99OFYP,A1PZIN8H1VI6SY,3G5F9DBFOQ0USZUFVT4XUPDOXKQVHF,F95G6,F95G6,3G5F9DBFOQ0USZUFVT4XUPDOXKQVHF,3G5F9DBFOQ0USZUFVT4XUPDOXKQVHF,271016,271016,,,,,,,,,,
,,,,4,2.95328,0,19,19,487,1,white living room with fake fireplace,white living room with perfume sitting on fake fireplace,wolfe2,051_L_owl,5,42,A1PZIN8H1VI6SY,2021-01-24_10h23.52.784,MetaAwareness,2020.1.2,Win32,60,3D42WVSDH9YOWD0KFCYFAKAH99OFYP,A1PZIN8H1VI6SY,3G5F9DBFOQ0USZUFVT4XUPDOXKQVHF,F95G6,F95G6,3G5F9DBFOQ0USZUFVT4XUPDOXKQVHF,3G5F9DBFOQ0USZUFVT4XUPDOXKQVHF,271016,271016,,,,,,,,,,
,,,,4,3.50276,0,20,20,267,1,a luxurious and clean bathroom,a luxurious and clean bathroom with paper towels in the shower,wolfe2,027_R_soapdish,4,42,A1PZIN8H1VI6SY,2021-01-24_10h23.52.784,MetaAwareness,2020.1.2,Win32,60,3D42WVSDH9YOWD0KFCYFAKAH99OFYP,A1PZIN8H1VI6SY,3G5F9DBFOQ0USZUFVT4XUPDOXKQVHF,F95G6,F95G6,3G5F9DBFOQ0USZUFVT4XUPDOXKQVHF,3G5F9DBFOQ0USZUFVT4XUPDOXKQVHF,271016,271016,,,,,,,,,,
,,,,3,2.02277,0,21,21,161,1,a minimalized room with a view,the same minimalized with a picture missing,wolfe2,016_R_art,2,42,A1PZIN8H1VI6SY,2021-01-24_10h23.52.784,MetaAwareness,2020.1.2,Win32,60,3D42WVSDH9YOWD0KFCYFAKAH99OFYP,A1PZIN8H1VI6SY,3G5F9DBFOQ0USZUFVT4XUPDOXKQVHF,F95G6,F95G6,3G5F9DBFOQ0USZUFVT4XUPDOXKQVHF,3G5F9DBFOQ0USZUFVT4XUPDOXKQVHF,271016,271016,,,,,,,,,,
,,,,3,4.98131,0,22,22,1073,1,a sun porch with many plants in front of a window and an empty vase beside them,a sun porch with many plants in front of a window,wolfe2,111_L_pot,5,42,A1PZIN8H1VI6SY,2021-01-24_10h23.52.784,MetaAwareness,2020.1.2,Win32,60,3D42WVSDH9YOWD0KFCYFAKAH99OFYP,A1PZIN8H1VI6SY,3G5F9DBFOQ0USZUFVT4XUPDOXKQVHF,F95G6,F95G6,3G5F9DBFOQ0USZUFVT4XUPDOXKQVHF,3G5F9DBFOQ0USZUFVT4XUPDOXKQVHF,271016,271016,,,,,,,,,,
,,,,4,5.401375,0,23,23,764,1,this is a fancy bathroom with only one tap handle,this is a fancy bathroom with both a hot and cold tap handle,wolfe2,078_R_faucet,7,42,A1PZIN8H1VI6SY,2021-01-24_10h23.52.784,MetaAwareness,2020.1.2,Win32,60,3D42WVSDH9YOWD0KFCYFAKAH99OFYP,A1PZIN8H1VI6SY,3G5F9DBFOQ0USZUFVT4XUPDOXKQVHF,F95G6,F95G6,3G5F9DBFOQ0USZUFVT4XUPDOXKQVHF,3G5F9DBFOQ0USZUFVT4XUPDOXKQVHF,271016,271016,,,,,,,,,,
,,,,3,2.333115,0,24,24,1170,1,a bedroom with a black item on a table,a table that only has a lamp on the table no other item,wolfe2,121_R_car,6,42,A1PZIN8H1VI6SY,2021-01-24_10h23.52.784,MetaAwareness,2020.1.2,Win32,60,3D42WVSDH9YOWD0KFCYFAKAH99OFYP,A1PZIN8H1VI6SY,3G5F9DBFOQ0USZUFVT4XUPDOXKQVHF,F95G6,F95G6,3G5F9DBFOQ0USZUFVT4XUPDOXKQVHF,3G5F9DBFOQ0USZUFVT4XUPDOXKQVHF,271016,271016,,,,,,,,,,
,,,,4,3.23454,0,25,25,732,1,a large bathroom mirror with neatly folded towels on the shelves. ,"a large bathroom mirror with a hanging rack next to it, and neatly folded towels in the shelving unit. ",wolfe2,076_L_hook,2,42,A1PZIN8H1VI6SY,2021-01-24_10h23.52.784,MetaAwareness,2020.1.2,Win32,60,3D42WVSDH9YOWD0KFCYFAKAH99OFYP,A1PZIN8H1VI6SY,3G5F9DBFOQ0USZUFVT4XUPDOXKQVHF,F95G6,F95G6,3G5F9DBFOQ0USZUFVT4XUPDOXKQVHF,3G5F9DBFOQ0USZUFVT4XUPDOXKQVHF,271016,271016,,,,,,,,,,
,,,,4,3.12993,0,26,26,361,1,a clean and modern looking bathroom with 5 rolled up towels on the shelf,a clean and modern looking bathroom with 6 rolled up towels on the shelf,wolfe2,037_R_towel,5,42,A1PZIN8H1VI6SY,2021-01-24_10h23.52.784,MetaAwareness,2020.1.2,Win32,60,3D42WVSDH9YOWD0KFCYFAKAH99OFYP,A1PZIN8H1VI6SY,3G5F9DBFOQ0USZUFVT4XUPDOXKQVHF,F95G6,F95G6,3G5F9DBFOQ0USZUFVT4XUPDOXKQVHF,3G5F9DBFOQ0USZUFVT4XUPDOXKQVHF,271016,271016,,,,,,,,,,
,,,,2,7.84828,0,27,27,1092,1,"a furnished country club lounge, the back right corner has a potted plant",a furnished country club lounge,wolfe2,113_R_plant,2,42,A1PZIN8H1VI6SY,2021-01-24_10h23.52.784,MetaAwareness,2020.1.2,Win32,60,3D42WVSDH9YOWD0KFCYFAKAH99OFYP,A1PZIN8H1VI6SY,3G5F9DBFOQ0USZUFVT4XUPDOXKQVHF,F95G6,F95G6,3G5F9DBFOQ0USZUFVT4XUPDOXKQVHF,3G5F9DBFOQ0USZUFVT4XUPDOXKQVHF,271016,271016,,,,,,,,,,
,,,,4,1.753235,0,28,28,1212,1,there is a pair of deodrant,the contains an empty wall,wolfe2,126_L_candles,3,42,A1PZIN8H1VI6SY,2021-01-24_10h23.52.784,MetaAwareness,2020.1.2,Win32,60,3D42WVSDH9YOWD0KFCYFAKAH99OFYP,A1PZIN8H1VI6SY,3G5F9DBFOQ0USZUFVT4XUPDOXKQVHF,F95G6,F95G6,3G5F9DBFOQ0USZUFVT4XUPDOXKQVHF,3G5F9DBFOQ0USZUFVT4XUPDOXKQVHF,271016,271016,,,,,,,,,,
,,,,1,6.94649,0,29,29,53,1,empty space,pot has,wolfe2,006_R_vase,1,42,A1PZIN8H1VI6SY,2021-01-24_10h23.52.784,MetaAwareness,2020.1.2,Win32,60,3D42WVSDH9YOWD0KFCYFAKAH99OFYP,A1PZIN8H1VI6SY,3G5F9DBFOQ0USZUFVT4XUPDOXKQVHF,F95G6,F95G6,3G5F9DBFOQ0USZUFVT4XUPDOXKQVHF,3G5F9DBFOQ0USZUFVT4XUPDOXKQVHF,271016,271016,,,,,,,,,,
,,,,,,,,,,,,,,,,42,A1PZIN8H1VI6SY,2021-01-24_10h23.52.784,MetaAwareness,2020.1.2,Win32,60,3D42WVSDH9YOWD0KFCYFAKAH99OFYP,A1PZIN8H1VI6SY,3G5F9DBFOQ0USZUFVT4XUPDOXKQVHF,F95G6,F95G6,3G5F9DBFOQ0USZUFVT4XUPDOXKQVHF,3G5F9DBFOQ0USZUFVT4XUPDOXKQVHF,271016,271016,4,5.18073,someone laying underneath a blue beach umbrella on a crowded beach,someone laying underneath a blue beach umbrella on a crowded beach,same,3,4.64115,members of a marching band crossing a track that all have feather plumes at the front of their hats,a cluttered and rustic looking cafe with 10 hanging lights,different
