consent_response.keys,consent_response.rt,key_resp_2.keys,key_resp_2.rt,user_resp.keys,user_resp.rt,trials.thisRepN,trials.thisTrialN,trials.thisN,trials.thisIndex,trials.ran,image_1_text,image_2_text,database,image,number,age,worker_ID,date,expName,psychopyVersion,OS,frameRate,hitId,workerId,assignmentId,a,tp_a,b,tp_b,c,tp_c,catch_same_resp.keys,catch_same_resp.rt,image_1_text_catch_same,image_2_text_catch_same,image_catch_same,catch_different_resp.keys,catch_different_resp.rt,image_1_text_catch_different,image_2_text_catch_different,image_catch_different
space,3.975575,space,11.162275,5,18.93481,0,0,0,1006,1,a luxurious and bright sitting area decorated with drinks and candle lights,a luxurious and bright sitting area decorated with candle lights and empty tables,wolfe2,104_L_bottle,6,54,A1SSYN7TXMTJS4,2021-01-24_13h55.36.715,MetaAwareness,2020.1.2,Linux x86_64,60,3EQVJH0T41OCTNSW0WZG5OUFAMNHT4,A1SSYN7TXMTJS4,3NPFYT4IZD78WS4ZB2NXXAY8YVYGXH,IYPN6,IYPN6,3NPFYT4IZD78WS4ZB2NXXAY8YVYGXH,3NPFYT4IZD78WS4ZB2NXXAY8YVYGXH,271016,271016,,,,,,,,,,
,,,,4,3.83486,0,1,1,377,1,a very large room with a large table with chairs and a large sofa,"a very large room with a large table with chairs and a large sofa, with a vent on the ceiling above the sofa",wolfe2,039_R_ventilator,4,54,A1SSYN7TXMTJS4,2021-01-24_13h55.36.715,MetaAwareness,2020.1.2,Linux x86_64,60,3EQVJH0T41OCTNSW0WZG5OUFAMNHT4,A1SSYN7TXMTJS4,3NPFYT4IZD78WS4ZB2NXXAY8YVYGXH,IYPN6,IYPN6,3NPFYT4IZD78WS4ZB2NXXAY8YVYGXH,3NPFYT4IZD78WS4ZB2NXXAY8YVYGXH,271016,271016,,,,,,,,,,
,,,,6,5.995795,0,2,2,260,1,"a room with flower washes,  two wash basin and sanidizer present","a room with flower washes, two wash basin and sanidizer present",wolfe2,027_L_soapdish,1,54,A1SSYN7TXMTJS4,2021-01-24_13h55.36.715,MetaAwareness,2020.1.2,Linux x86_64,60,3EQVJH0T41OCTNSW0WZG5OUFAMNHT4,A1SSYN7TXMTJS4,3NPFYT4IZD78WS4ZB2NXXAY8YVYGXH,IYPN6,IYPN6,3NPFYT4IZD78WS4ZB2NXXAY8YVYGXH,3NPFYT4IZD78WS4ZB2NXXAY8YVYGXH,271016,271016,,,,,,,,,,
,,,,4,5.5061,0,3,3,378,1,a dark wood furniture dining room with 2 pictures hanging about the china cabinet.,a dark wood furniture dining room with three pictures hanging above the china cabinet.,wolfe2,040_L_painting,1,54,A1SSYN7TXMTJS4,2021-01-24_13h55.36.715,MetaAwareness,2020.1.2,Linux x86_64,60,3EQVJH0T41OCTNSW0WZG5OUFAMNHT4,A1SSYN7TXMTJS4,3NPFYT4IZD78WS4ZB2NXXAY8YVYGXH,IYPN6,IYPN6,3NPFYT4IZD78WS4ZB2NXXAY8YVYGXH,3NPFYT4IZD78WS4ZB2NXXAY8YVYGXH,271016,271016,,,,,,,,,,
,,,,4,4.38819,0,4,4,850,1,messy hotel bathroom with a hand towel ring on the wall next to the sink,messy hotel bathroom with no hand towel ring for hanging up your hand towels,wolfe2,087_L_towelhandle,3,54,A1SSYN7TXMTJS4,2021-01-24_13h55.36.715,MetaAwareness,2020.1.2,Linux x86_64,60,3EQVJH0T41OCTNSW0WZG5OUFAMNHT4,A1SSYN7TXMTJS4,3NPFYT4IZD78WS4ZB2NXXAY8YVYGXH,IYPN6,IYPN6,3NPFYT4IZD78WS4ZB2NXXAY8YVYGXH,3NPFYT4IZD78WS4ZB2NXXAY8YVYGXH,271016,271016,,,,,,,,,,
,,,,3,3.018965,0,5,5,3,1,a room with green walls and a swan picture,a room with green walls a swan pcture and a sconce on the wall,wolfe2,001_L_mirror,4,54,A1SSYN7TXMTJS4,2021-01-24_13h55.36.715,MetaAwareness,2020.1.2,Linux x86_64,60,3EQVJH0T41OCTNSW0WZG5OUFAMNHT4,A1SSYN7TXMTJS4,3NPFYT4IZD78WS4ZB2NXXAY8YVYGXH,IYPN6,IYPN6,3NPFYT4IZD78WS4ZB2NXXAY8YVYGXH,3NPFYT4IZD78WS4ZB2NXXAY8YVYGXH,271016,271016,,,,,,,,,,
,,,,2,3.85678,0,6,6,845,1,there is a large cake sitting on the kitchen counter.,there is nothing sitting on the kitchen counter.,wolfe2,086_R_book,3,54,A1SSYN7TXMTJS4,2021-01-24_13h55.36.715,MetaAwareness,2020.1.2,Linux x86_64,60,3EQVJH0T41OCTNSW0WZG5OUFAMNHT4,A1SSYN7TXMTJS4,3NPFYT4IZD78WS4ZB2NXXAY8YVYGXH,IYPN6,IYPN6,3NPFYT4IZD78WS4ZB2NXXAY8YVYGXH,3NPFYT4IZD78WS4ZB2NXXAY8YVYGXH,271016,271016,,,,,,,,,,
,,,,3,2.052825,0,7,7,1068,1,a house witha few of the backyard with pool. small plant in the corner of the room  ,a house with a view of the backyard with a pool. no plant in the corner of the room,wolfe2,110_R_plant,5,54,A1SSYN7TXMTJS4,2021-01-24_13h55.36.715,MetaAwareness,2020.1.2,Linux x86_64,60,3EQVJH0T41OCTNSW0WZG5OUFAMNHT4,A1SSYN7TXMTJS4,3NPFYT4IZD78WS4ZB2NXXAY8YVYGXH,IYPN6,IYPN6,3NPFYT4IZD78WS4ZB2NXXAY8YVYGXH,3NPFYT4IZD78WS4ZB2NXXAY8YVYGXH,271016,271016,,,,,,,,,,
,,,,4,2.16296,0,8,8,781,1,"a light, cheery kitchen with a long counter than holds one potted plant","a light, cheery kitchen with a long counter that holds one potted plant",wolfe2,080_R_plant,5,54,A1SSYN7TXMTJS4,2021-01-24_13h55.36.715,MetaAwareness,2020.1.2,Linux x86_64,60,3EQVJH0T41OCTNSW0WZG5OUFAMNHT4,A1SSYN7TXMTJS4,3NPFYT4IZD78WS4ZB2NXXAY8YVYGXH,IYPN6,IYPN6,3NPFYT4IZD78WS4ZB2NXXAY8YVYGXH,3NPFYT4IZD78WS4ZB2NXXAY8YVYGXH,271016,271016,,,,,,,,,,
,,,,2,1.79616,0,9,9,250,1,"a room in a house with two sofas, a table, and a shelving unit that has one long, pale art object","a room in a house with two sofas, a table, and a shelving unit that has two long, pale art objects",wolfe2,025_R_vase,4,54,A1SSYN7TXMTJS4,2021-01-24_13h55.36.715,MetaAwareness,2020.1.2,Linux x86_64,60,3EQVJH0T41OCTNSW0WZG5OUFAMNHT4,A1SSYN7TXMTJS4,3NPFYT4IZD78WS4ZB2NXXAY8YVYGXH,IYPN6,IYPN6,3NPFYT4IZD78WS4ZB2NXXAY8YVYGXH,3NPFYT4IZD78WS4ZB2NXXAY8YVYGXH,271016,271016,,,,,,,,,,
,,,,2,2.934985,0,10,10,75,1,a blue themed bathroom ,a blue themed bathroom with a bottle missing ,wolfe2,008_R_bottle,1,54,A1SSYN7TXMTJS4,2021-01-24_13h55.36.715,MetaAwareness,2020.1.2,Linux x86_64,60,3EQVJH0T41OCTNSW0WZG5OUFAMNHT4,A1SSYN7TXMTJS4,3NPFYT4IZD78WS4ZB2NXXAY8YVYGXH,IYPN6,IYPN6,3NPFYT4IZD78WS4ZB2NXXAY8YVYGXH,3NPFYT4IZD78WS4ZB2NXXAY8YVYGXH,271016,271016,,,,,,,,,,
,,,,2,2.22236,0,11,11,836,1,an outlet attached to the wall,a part of the wall next to mirror,wolfe2,085_R_switchboard,7,54,A1SSYN7TXMTJS4,2021-01-24_13h55.36.715,MetaAwareness,2020.1.2,Linux x86_64,60,3EQVJH0T41OCTNSW0WZG5OUFAMNHT4,A1SSYN7TXMTJS4,3NPFYT4IZD78WS4ZB2NXXAY8YVYGXH,IYPN6,IYPN6,3NPFYT4IZD78WS4ZB2NXXAY8YVYGXH,3NPFYT4IZD78WS4ZB2NXXAY8YVYGXH,271016,271016,,,,,,,,,,
,,,,6,6.575285,0,12,12,1025,1,a restroom with two wide mirros and one paper towel dispenser on the wall next to the door,a restroom with two wide mirrors and without one paper towel dispenser on the wall next to the door,wolfe2,106_L_toweldispenser,6,54,A1SSYN7TXMTJS4,2021-01-24_13h55.36.715,MetaAwareness,2020.1.2,Linux x86_64,60,3EQVJH0T41OCTNSW0WZG5OUFAMNHT4,A1SSYN7TXMTJS4,3NPFYT4IZD78WS4ZB2NXXAY8YVYGXH,IYPN6,IYPN6,3NPFYT4IZD78WS4ZB2NXXAY8YVYGXH,3NPFYT4IZD78WS4ZB2NXXAY8YVYGXH,271016,271016,,,,,,,,,,
,,,,4,4.05569,0,13,13,415,1,a living room with a wall-mounted tv and built-in shelves. one shelf is empty.,a living room with a wall-mounted tv and built-in shelves. one shelf holds a clock.,wolfe2,043_R_clock,4,54,A1SSYN7TXMTJS4,2021-01-24_13h55.36.715,MetaAwareness,2020.1.2,Linux x86_64,60,3EQVJH0T41OCTNSW0WZG5OUFAMNHT4,A1SSYN7TXMTJS4,3NPFYT4IZD78WS4ZB2NXXAY8YVYGXH,IYPN6,IYPN6,3NPFYT4IZD78WS4ZB2NXXAY8YVYGXH,3NPFYT4IZD78WS4ZB2NXXAY8YVYGXH,271016,271016,,,,,,,,,,
,,,,4,4.46454,0,14,14,864,1,"a hairdressers with no people in it, lots of empty black chairs, and a blue painting with something hanging above it on one of the walls","a hairdressers with no people in it, lots of empty black chairs, and a blue painting on one of the walls",wolfe2,088_R_clock,5,54,A1SSYN7TXMTJS4,2021-01-24_13h55.36.715,MetaAwareness,2020.1.2,Linux x86_64,60,3EQVJH0T41OCTNSW0WZG5OUFAMNHT4,A1SSYN7TXMTJS4,3NPFYT4IZD78WS4ZB2NXXAY8YVYGXH,IYPN6,IYPN6,3NPFYT4IZD78WS4ZB2NXXAY8YVYGXH,3NPFYT4IZD78WS4ZB2NXXAY8YVYGXH,271016,271016,,,,,,,,,,
,,,,4,3.039535,0,15,15,80,1,nice family blue bathroom,modern blue clean bathroom,wolfe2,008_R_bottle,6,54,A1SSYN7TXMTJS4,2021-01-24_13h55.36.715,MetaAwareness,2020.1.2,Linux x86_64,60,3EQVJH0T41OCTNSW0WZG5OUFAMNHT4,A1SSYN7TXMTJS4,3NPFYT4IZD78WS4ZB2NXXAY8YVYGXH,IYPN6,IYPN6,3NPFYT4IZD78WS4ZB2NXXAY8YVYGXH,3NPFYT4IZD78WS4ZB2NXXAY8YVYGXH,271016,271016,,,,,,,,,,
,,,,3,1.9542,0,16,16,37,1,"a modern living area overlooking a city with a sofa, chair and desk","a modern living area overlooking a city with a sofa with a mirror above it, chair and desk",wolfe2,005_L_mirror,3,54,A1SSYN7TXMTJS4,2021-01-24_13h55.36.715,MetaAwareness,2020.1.2,Linux x86_64,60,3EQVJH0T41OCTNSW0WZG5OUFAMNHT4,A1SSYN7TXMTJS4,3NPFYT4IZD78WS4ZB2NXXAY8YVYGXH,IYPN6,IYPN6,3NPFYT4IZD78WS4ZB2NXXAY8YVYGXH,3NPFYT4IZD78WS4ZB2NXXAY8YVYGXH,271016,271016,,,,,,,,,,
,,,,3,1.86705,0,17,17,1112,1,"a warm-hued kitchen with a tile floor, a large central island, an open floor plan, and a potted plant next to the double oven","a warm-hued kitchen with a tile floor, a large central island, an open floor plan, and a window next to the double oven",wolfe2,115_R_pot,5,54,A1SSYN7TXMTJS4,2021-01-24_13h55.36.715,MetaAwareness,2020.1.2,Linux x86_64,60,3EQVJH0T41OCTNSW0WZG5OUFAMNHT4,A1SSYN7TXMTJS4,3NPFYT4IZD78WS4ZB2NXXAY8YVYGXH,IYPN6,IYPN6,3NPFYT4IZD78WS4ZB2NXXAY8YVYGXH,3NPFYT4IZD78WS4ZB2NXXAY8YVYGXH,271016,271016,,,,,,,,,,
,,,,5,5.292285,0,18,18,931,1,girl's bedroom with white object on pink table.,girl's bedroom with nothing on pink table.,wolfe2,096_L_painting,4,54,A1SSYN7TXMTJS4,2021-01-24_13h55.36.715,MetaAwareness,2020.1.2,Linux x86_64,60,3EQVJH0T41OCTNSW0WZG5OUFAMNHT4,A1SSYN7TXMTJS4,3NPFYT4IZD78WS4ZB2NXXAY8YVYGXH,IYPN6,IYPN6,3NPFYT4IZD78WS4ZB2NXXAY8YVYGXH,3NPFYT4IZD78WS4ZB2NXXAY8YVYGXH,271016,271016,,,,,,,,,,
,,,,6,3.840275,0,19,19,160,1,a contemporary living room leading out to an outdoor space with a black box on a pedestool in the far corner,a contemporary living room leading out to an outdoor space with a black statue on a pedestool in the far corner,wolfe2,016_R_art,1,54,A1SSYN7TXMTJS4,2021-01-24_13h55.36.715,MetaAwareness,2020.1.2,Linux x86_64,60,3EQVJH0T41OCTNSW0WZG5OUFAMNHT4,A1SSYN7TXMTJS4,3NPFYT4IZD78WS4ZB2NXXAY8YVYGXH,IYPN6,IYPN6,3NPFYT4IZD78WS4ZB2NXXAY8YVYGXH,3NPFYT4IZD78WS4ZB2NXXAY8YVYGXH,271016,271016,,,,,,,,,,
,,,,4,3.22019,0,20,20,25,1,a view of a lake out a window in someone's study with no ducks on the lake,a view of a lake out a window in someone's study with three ducks swimming on the lake,wolfe2,003_R_ducks,4,54,A1SSYN7TXMTJS4,2021-01-24_13h55.36.715,MetaAwareness,2020.1.2,Linux x86_64,60,3EQVJH0T41OCTNSW0WZG5OUFAMNHT4,A1SSYN7TXMTJS4,3NPFYT4IZD78WS4ZB2NXXAY8YVYGXH,IYPN6,IYPN6,3NPFYT4IZD78WS4ZB2NXXAY8YVYGXH,3NPFYT4IZD78WS4ZB2NXXAY8YVYGXH,271016,271016,,,,,,,,,,
,,,,4,3.44103,0,21,21,1176,1, a roomy and spacious room that encourages relaxtion.  appears to have small chairs for visitors to relax in.,a roomy and spacious place that encourages people to think and act quietly while they relax.  they appear to be missing a chair in this view.,wolfe2,122_R_chair,2,54,A1SSYN7TXMTJS4,2021-01-24_13h55.36.715,MetaAwareness,2020.1.2,Linux x86_64,60,3EQVJH0T41OCTNSW0WZG5OUFAMNHT4,A1SSYN7TXMTJS4,3NPFYT4IZD78WS4ZB2NXXAY8YVYGXH,IYPN6,IYPN6,3NPFYT4IZD78WS4ZB2NXXAY8YVYGXH,3NPFYT4IZD78WS4ZB2NXXAY8YVYGXH,271016,271016,,,,,,,,,,
,,,,5,1.627355,0,22,22,825,1,this is a luxury beach condo with a blank wall next to the door,this is a luxury beach condo with a wall sconce on the wall next to the door,wolfe2,084_R_light,9,54,A1SSYN7TXMTJS4,2021-01-24_13h55.36.715,MetaAwareness,2020.1.2,Linux x86_64,60,3EQVJH0T41OCTNSW0WZG5OUFAMNHT4,A1SSYN7TXMTJS4,3NPFYT4IZD78WS4ZB2NXXAY8YVYGXH,IYPN6,IYPN6,3NPFYT4IZD78WS4ZB2NXXAY8YVYGXH,3NPFYT4IZD78WS4ZB2NXXAY8YVYGXH,271016,271016,,,,,,,,,,
,,,,5,3.72484,0,23,23,235,1,an open room with two stacks of towels under the sink,an open room with three stacks of towels under the sink,wolfe2,024_L_towels,4,54,A1SSYN7TXMTJS4,2021-01-24_13h55.36.715,MetaAwareness,2020.1.2,Linux x86_64,60,3EQVJH0T41OCTNSW0WZG5OUFAMNHT4,A1SSYN7TXMTJS4,3NPFYT4IZD78WS4ZB2NXXAY8YVYGXH,IYPN6,IYPN6,3NPFYT4IZD78WS4ZB2NXXAY8YVYGXH,3NPFYT4IZD78WS4ZB2NXXAY8YVYGXH,271016,271016,,,,,,,,,,
,,,,5,6.156895,0,24,24,521,1,a study with suttle colors and a fireplace on thewall,a study with suttle colors and a ready to lit fireplace on the wall,wolfe2,054_R_firewood,4,54,A1SSYN7TXMTJS4,2021-01-24_13h55.36.715,MetaAwareness,2020.1.2,Linux x86_64,60,3EQVJH0T41OCTNSW0WZG5OUFAMNHT4,A1SSYN7TXMTJS4,3NPFYT4IZD78WS4ZB2NXXAY8YVYGXH,IYPN6,IYPN6,3NPFYT4IZD78WS4ZB2NXXAY8YVYGXH,3NPFYT4IZD78WS4ZB2NXXAY8YVYGXH,271016,271016,,,,,,,,,,
,,,,3,5.25789,0,25,25,908,1,a nice hotel room with double beds and there are wall outlets on the right side and in the middle of the beds,a nice hotel room with double beds and there is a wall outlet on the right side of the beds,wolfe2,093_L_switch,5,54,A1SSYN7TXMTJS4,2021-01-24_13h55.36.715,MetaAwareness,2020.1.2,Linux x86_64,60,3EQVJH0T41OCTNSW0WZG5OUFAMNHT4,A1SSYN7TXMTJS4,3NPFYT4IZD78WS4ZB2NXXAY8YVYGXH,IYPN6,IYPN6,3NPFYT4IZD78WS4ZB2NXXAY8YVYGXH,3NPFYT4IZD78WS4ZB2NXXAY8YVYGXH,271016,271016,,,,,,,,,,
,,,,5,3.1954,0,26,26,206,1,an office space with a possible touch screen computer,an office space with a computer and keyboard,wolfe2,021_R_keyboard,2,54,A1SSYN7TXMTJS4,2021-01-24_13h55.36.715,MetaAwareness,2020.1.2,Linux x86_64,60,3EQVJH0T41OCTNSW0WZG5OUFAMNHT4,A1SSYN7TXMTJS4,3NPFYT4IZD78WS4ZB2NXXAY8YVYGXH,IYPN6,IYPN6,3NPFYT4IZD78WS4ZB2NXXAY8YVYGXH,3NPFYT4IZD78WS4ZB2NXXAY8YVYGXH,271016,271016,,,,,,,,,,
,,,,4,4.67018,0,27,27,303,1,a sunlit modern living room with one beam crossing the ceiling,a sunlit modern living room with two beams crossing the ceiling,wolfe2,031_R_log,3,54,A1SSYN7TXMTJS4,2021-01-24_13h55.36.715,MetaAwareness,2020.1.2,Linux x86_64,60,3EQVJH0T41OCTNSW0WZG5OUFAMNHT4,A1SSYN7TXMTJS4,3NPFYT4IZD78WS4ZB2NXXAY8YVYGXH,IYPN6,IYPN6,3NPFYT4IZD78WS4ZB2NXXAY8YVYGXH,3NPFYT4IZD78WS4ZB2NXXAY8YVYGXH,271016,271016,,,,,,,,,,
,,,,5,1.597155,0,28,28,420,1,a bathroom tub with one light on the side,a bathroom tub with two lights on the side,wolfe2,044_L_light,3,54,A1SSYN7TXMTJS4,2021-01-24_13h55.36.715,MetaAwareness,2020.1.2,Linux x86_64,60,3EQVJH0T41OCTNSW0WZG5OUFAMNHT4,A1SSYN7TXMTJS4,3NPFYT4IZD78WS4ZB2NXXAY8YVYGXH,IYPN6,IYPN6,3NPFYT4IZD78WS4ZB2NXXAY8YVYGXH,3NPFYT4IZD78WS4ZB2NXXAY8YVYGXH,271016,271016,,,,,,,,,,
,,,,4,2.09564,0,29,29,452,1,a bedroom with a missing handle on a drawer,a bedroom with six handles on a drawer,wolfe2,047_R_handle,2,54,A1SSYN7TXMTJS4,2021-01-24_13h55.36.715,MetaAwareness,2020.1.2,Linux x86_64,60,3EQVJH0T41OCTNSW0WZG5OUFAMNHT4,A1SSYN7TXMTJS4,3NPFYT4IZD78WS4ZB2NXXAY8YVYGXH,IYPN6,IYPN6,3NPFYT4IZD78WS4ZB2NXXAY8YVYGXH,3NPFYT4IZD78WS4ZB2NXXAY8YVYGXH,271016,271016,,,,,,,,,,
,,,,,,,,,,,,,,,,54,A1SSYN7TXMTJS4,2021-01-24_13h55.36.715,MetaAwareness,2020.1.2,Linux x86_64,60,3EQVJH0T41OCTNSW0WZG5OUFAMNHT4,A1SSYN7TXMTJS4,3NPFYT4IZD78WS4ZB2NXXAY8YVYGXH,IYPN6,IYPN6,3NPFYT4IZD78WS4ZB2NXXAY8YVYGXH,3NPFYT4IZD78WS4ZB2NXXAY8YVYGXH,271016,271016,5,1.619605,someone laying underneath a blue beach umbrella on a crowded beach,someone laying underneath a blue beach umbrella on a crowded beach,same,4,1.689315,members of a marching band crossing a track that all have feather plumes at the front of their hats,a cluttered and rustic looking cafe with 10 hanging lights,different
