consent_response.keys,consent_response.rt,key_resp_2.keys,key_resp_2.rt,user_resp.keys,user_resp.rt,trials.thisRepN,trials.thisTrialN,trials.thisN,trials.thisIndex,trials.ran,image_1_text,image_2_text,database,image,number,age,worker_ID,date,expName,psychopyVersion,OS,frameRate,hitId,workerId,assignmentId,a,tp_a,b,tp_b,c,tp_c,catch_same_resp.keys,catch_same_resp.rt,image_1_text_catch_same,image_2_text_catch_same,image_catch_same,catch_different_resp.keys,catch_different_resp.rt,image_1_text_catch_different,image_2_text_catch_different,image_catch_different
space,15.494835,space,28.904645,2,24.963725,0,0,0,778,1,there is a black cabinet in a sunny kitchen with white cabinets.,there is a cactus plant on the kitchen counter that is housed by white shelves.,wolfe2,080_R_plant,2,58,A1YH2I4Y2SYAXJ,2021-01-24_11h16.31.382,MetaAwareness,2020.1.2,Win32,60,368IUKXGA6BY46F8NWZS3N4SC5IP62,A1YH2I4Y2SYAXJ,3BXQMRHWK01G7Y6QH0A5Q8J10ZHUMZ,WMXB6,WMXB6,3BXQMRHWK01G7Y6QH0A5Q8J10ZHUMZ,3BXQMRHWK01G7Y6QH0A5Q8J10ZHUMZ,271016,271016,,,,,,,,,,
,,,,5,9.11441,0,1,1,433,1,a luxurious modern hotel room with a beautiful reflective nightstand,a luxurious modern hotel room with a beautiful reflective nightstand and an ipod an stereo on top,wolfe2,045_L_musicdock,5,58,A1YH2I4Y2SYAXJ,2021-01-24_11h16.31.382,MetaAwareness,2020.1.2,Win32,60,368IUKXGA6BY46F8NWZS3N4SC5IP62,A1YH2I4Y2SYAXJ,3BXQMRHWK01G7Y6QH0A5Q8J10ZHUMZ,WMXB6,WMXB6,3BXQMRHWK01G7Y6QH0A5Q8J10ZHUMZ,3BXQMRHWK01G7Y6QH0A5Q8J10ZHUMZ,271016,271016,,,,,,,,,,
,,,,5,10.600965,0,2,2,786,1,an office with a black stand shelf unit beside a credenza,an office with a black stand shelf unit beside a credenza and a soccer ball behind the shelf,wolfe2,081_L_football,5,58,A1YH2I4Y2SYAXJ,2021-01-24_11h16.31.382,MetaAwareness,2020.1.2,Win32,60,368IUKXGA6BY46F8NWZS3N4SC5IP62,A1YH2I4Y2SYAXJ,3BXQMRHWK01G7Y6QH0A5Q8J10ZHUMZ,WMXB6,WMXB6,3BXQMRHWK01G7Y6QH0A5Q8J10ZHUMZ,3BXQMRHWK01G7Y6QH0A5Q8J10ZHUMZ,271016,271016,,,,,,,,,,
,,,,4,11.415315,0,3,3,518,1,a room with bookshelves and an empty box.,a room with bookshelves and a boxed in area filled with wood.,wolfe2,054_R_firewood,1,58,A1YH2I4Y2SYAXJ,2021-01-24_11h16.31.382,MetaAwareness,2020.1.2,Win32,60,368IUKXGA6BY46F8NWZS3N4SC5IP62,A1YH2I4Y2SYAXJ,3BXQMRHWK01G7Y6QH0A5Q8J10ZHUMZ,WMXB6,WMXB6,3BXQMRHWK01G7Y6QH0A5Q8J10ZHUMZ,3BXQMRHWK01G7Y6QH0A5Q8J10ZHUMZ,271016,271016,,,,,,,,,,
,,,,1,13.48104,0,4,4,1032,1,a changing room has a combination of tile and carpet on the floor.,a paper towl dispensor has been removed from the changing room.,wolfe2,106_R_toweldispenser,4,58,A1YH2I4Y2SYAXJ,2021-01-24_11h16.31.382,MetaAwareness,2020.1.2,Win32,60,368IUKXGA6BY46F8NWZS3N4SC5IP62,A1YH2I4Y2SYAXJ,3BXQMRHWK01G7Y6QH0A5Q8J10ZHUMZ,WMXB6,WMXB6,3BXQMRHWK01G7Y6QH0A5Q8J10ZHUMZ,3BXQMRHWK01G7Y6QH0A5Q8J10ZHUMZ,271016,271016,,,,,,,,,,
,,,,5,5.591495,0,5,5,429,1,hotel bedroom with yellow and black decor,hotel bedroom with yellow and black decor and clock radio,wolfe2,045_L_musicdock,1,58,A1YH2I4Y2SYAXJ,2021-01-24_11h16.31.382,MetaAwareness,2020.1.2,Win32,60,368IUKXGA6BY46F8NWZS3N4SC5IP62,A1YH2I4Y2SYAXJ,3BXQMRHWK01G7Y6QH0A5Q8J10ZHUMZ,WMXB6,WMXB6,3BXQMRHWK01G7Y6QH0A5Q8J10ZHUMZ,3BXQMRHWK01G7Y6QH0A5Q8J10ZHUMZ,271016,271016,,,,,,,,,,
,,,,5,13.289715,0,6,6,443,1,a nice looking hotel room with a television remote on a glass table.,a nice looking hotel room with a bowl sitting on a glass table.,wolfe2,046_R_remote,2,58,A1YH2I4Y2SYAXJ,2021-01-24_11h16.31.382,MetaAwareness,2020.1.2,Win32,60,368IUKXGA6BY46F8NWZS3N4SC5IP62,A1YH2I4Y2SYAXJ,3BXQMRHWK01G7Y6QH0A5Q8J10ZHUMZ,WMXB6,WMXB6,3BXQMRHWK01G7Y6QH0A5Q8J10ZHUMZ,3BXQMRHWK01G7Y6QH0A5Q8J10ZHUMZ,271016,271016,,,,,,,,,,
,,,,5,16.087095,0,7,7,570,1,neutral colored living room with 3 beige pillows on the couch and one black,neutral colored living room with 3 beige pillows on the couch and two black pillows,wolfe2,060_L_pillow,1,58,A1YH2I4Y2SYAXJ,2021-01-24_11h16.31.382,MetaAwareness,2020.1.2,Win32,60,368IUKXGA6BY46F8NWZS3N4SC5IP62,A1YH2I4Y2SYAXJ,3BXQMRHWK01G7Y6QH0A5Q8J10ZHUMZ,WMXB6,WMXB6,3BXQMRHWK01G7Y6QH0A5Q8J10ZHUMZ,3BXQMRHWK01G7Y6QH0A5Q8J10ZHUMZ,271016,271016,,,,,,,,,,
,,,,5,8.44537,0,8,8,747,1,a luxurious and modern kitchen with bar stools,a luxious and modern kitchen with bar stools and foot support,wolfe2,077_L_footrest,7,58,A1YH2I4Y2SYAXJ,2021-01-24_11h16.31.382,MetaAwareness,2020.1.2,Win32,60,368IUKXGA6BY46F8NWZS3N4SC5IP62,A1YH2I4Y2SYAXJ,3BXQMRHWK01G7Y6QH0A5Q8J10ZHUMZ,WMXB6,WMXB6,3BXQMRHWK01G7Y6QH0A5Q8J10ZHUMZ,3BXQMRHWK01G7Y6QH0A5Q8J10ZHUMZ,271016,271016,,,,,,,,,,
,,,,1,6.53765,0,9,9,794,1,a closed drawer,an open end of a drawer,wolfe2,082_L_bowl,4,58,A1YH2I4Y2SYAXJ,2021-01-24_11h16.31.382,MetaAwareness,2020.1.2,Win32,60,368IUKXGA6BY46F8NWZS3N4SC5IP62,A1YH2I4Y2SYAXJ,3BXQMRHWK01G7Y6QH0A5Q8J10ZHUMZ,WMXB6,WMXB6,3BXQMRHWK01G7Y6QH0A5Q8J10ZHUMZ,3BXQMRHWK01G7Y6QH0A5Q8J10ZHUMZ,271016,271016,,,,,,,,,,
,,,,5,6.706575,0,10,10,549,1,a well lit library with two metal trash bins.,a well lit library with three trash bins.,wolfe2,057_L_bin,5,58,A1YH2I4Y2SYAXJ,2021-01-24_11h16.31.382,MetaAwareness,2020.1.2,Win32,60,368IUKXGA6BY46F8NWZS3N4SC5IP62,A1YH2I4Y2SYAXJ,3BXQMRHWK01G7Y6QH0A5Q8J10ZHUMZ,WMXB6,WMXB6,3BXQMRHWK01G7Y6QH0A5Q8J10ZHUMZ,3BXQMRHWK01G7Y6QH0A5Q8J10ZHUMZ,271016,271016,,,,,,,,,,
,,,,5,11.937575,0,11,11,666,1,a living room having a shelf without decorations on top of the shelf,a living room having a shelf with decorations on top of the shelf,wolfe2,069_L_things,3,58,A1YH2I4Y2SYAXJ,2021-01-24_11h16.31.382,MetaAwareness,2020.1.2,Win32,60,368IUKXGA6BY46F8NWZS3N4SC5IP62,A1YH2I4Y2SYAXJ,3BXQMRHWK01G7Y6QH0A5Q8J10ZHUMZ,WMXB6,WMXB6,3BXQMRHWK01G7Y6QH0A5Q8J10ZHUMZ,3BXQMRHWK01G7Y6QH0A5Q8J10ZHUMZ,271016,271016,,,,,,,,,,
,,,,5,25.57117,0,12,12,115,1,a very clean bathroom with a tub and two sinks below a mirror,a bathroom with a tub with a drain below the faucet and two sinks below a mirror,wolfe2,012_L_tubaccesory,4,58,A1YH2I4Y2SYAXJ,2021-01-24_11h16.31.382,MetaAwareness,2020.1.2,Win32,60,368IUKXGA6BY46F8NWZS3N4SC5IP62,A1YH2I4Y2SYAXJ,3BXQMRHWK01G7Y6QH0A5Q8J10ZHUMZ,WMXB6,WMXB6,3BXQMRHWK01G7Y6QH0A5Q8J10ZHUMZ,3BXQMRHWK01G7Y6QH0A5Q8J10ZHUMZ,271016,271016,,,,,,,,,,
,,,,5,8.215105,0,13,13,237,1,an open wooden bathroom with two stacks of towels under the sink.,an open wooden bathroom with one stack of towels under the sink,wolfe2,024_L_towels,6,58,A1YH2I4Y2SYAXJ,2021-01-24_11h16.31.382,MetaAwareness,2020.1.2,Win32,60,368IUKXGA6BY46F8NWZS3N4SC5IP62,A1YH2I4Y2SYAXJ,3BXQMRHWK01G7Y6QH0A5Q8J10ZHUMZ,WMXB6,WMXB6,3BXQMRHWK01G7Y6QH0A5Q8J10ZHUMZ,3BXQMRHWK01G7Y6QH0A5Q8J10ZHUMZ,271016,271016,,,,,,,,,,
,,,,1,3.952485,0,14,14,1237,1,mini cup,empty space,wolfe2,128_R_pot,3,58,A1YH2I4Y2SYAXJ,2021-01-24_11h16.31.382,MetaAwareness,2020.1.2,Win32,60,368IUKXGA6BY46F8NWZS3N4SC5IP62,A1YH2I4Y2SYAXJ,3BXQMRHWK01G7Y6QH0A5Q8J10ZHUMZ,WMXB6,WMXB6,3BXQMRHWK01G7Y6QH0A5Q8J10ZHUMZ,3BXQMRHWK01G7Y6QH0A5Q8J10ZHUMZ,271016,271016,,,,,,,,,,
,,,,5,4.94156,0,15,15,723,1,a kitchen with 3 in ceiling lights.,a kitchen with 4 in ceiling lights.,wolfe2,075_R_light,1,58,A1YH2I4Y2SYAXJ,2021-01-24_11h16.31.382,MetaAwareness,2020.1.2,Win32,60,368IUKXGA6BY46F8NWZS3N4SC5IP62,A1YH2I4Y2SYAXJ,3BXQMRHWK01G7Y6QH0A5Q8J10ZHUMZ,WMXB6,WMXB6,3BXQMRHWK01G7Y6QH0A5Q8J10ZHUMZ,3BXQMRHWK01G7Y6QH0A5Q8J10ZHUMZ,271016,271016,,,,,,,,,,
,,,,2,10.280495,0,16,16,389,1,it is an empty bowlthere,the bowl contains a fruit in it,wolfe2,041_L_fruit,3,58,A1YH2I4Y2SYAXJ,2021-01-24_11h16.31.382,MetaAwareness,2020.1.2,Win32,60,368IUKXGA6BY46F8NWZS3N4SC5IP62,A1YH2I4Y2SYAXJ,3BXQMRHWK01G7Y6QH0A5Q8J10ZHUMZ,WMXB6,WMXB6,3BXQMRHWK01G7Y6QH0A5Q8J10ZHUMZ,3BXQMRHWK01G7Y6QH0A5Q8J10ZHUMZ,271016,271016,,,,,,,,,,
,,,,6,24.81663,0,17,17,1036,1,"a store changing room with three mirrors, changing cabins and a rack with clothing items extending beyond the end pole.","a store changing room with three mirrors, changing cabins and a rack with clothing items.",wolfe2,107_L_shirts,2,58,A1YH2I4Y2SYAXJ,2021-01-24_11h16.31.382,MetaAwareness,2020.1.2,Win32,60,368IUKXGA6BY46F8NWZS3N4SC5IP62,A1YH2I4Y2SYAXJ,3BXQMRHWK01G7Y6QH0A5Q8J10ZHUMZ,WMXB6,WMXB6,3BXQMRHWK01G7Y6QH0A5Q8J10ZHUMZ,3BXQMRHWK01G7Y6QH0A5Q8J10ZHUMZ,271016,271016,,,,,,,,,,
,,,,6,10.821425,0,18,18,1041,1,"a dressing room with 4 large mirrors, a stool, and a clothing rack with clothes on it.","a dressing room with 4 large mirrors, a stool, and a clothing rack with some clothes on it.",wolfe2,107_R_shirts,2,58,A1YH2I4Y2SYAXJ,2021-01-24_11h16.31.382,MetaAwareness,2020.1.2,Win32,60,368IUKXGA6BY46F8NWZS3N4SC5IP62,A1YH2I4Y2SYAXJ,3BXQMRHWK01G7Y6QH0A5Q8J10ZHUMZ,WMXB6,WMXB6,3BXQMRHWK01G7Y6QH0A5Q8J10ZHUMZ,3BXQMRHWK01G7Y6QH0A5Q8J10ZHUMZ,271016,271016,,,,,,,,,,
,,,,5,13.280815,0,19,19,929,1,pink office room with picture on pink desk on far back wall,pink office room,wolfe2,096_L_painting,2,58,A1YH2I4Y2SYAXJ,2021-01-24_11h16.31.382,MetaAwareness,2020.1.2,Win32,60,368IUKXGA6BY46F8NWZS3N4SC5IP62,A1YH2I4Y2SYAXJ,3BXQMRHWK01G7Y6QH0A5Q8J10ZHUMZ,WMXB6,WMXB6,3BXQMRHWK01G7Y6QH0A5Q8J10ZHUMZ,3BXQMRHWK01G7Y6QH0A5Q8J10ZHUMZ,271016,271016,,,,,,,,,,
,,,,3,10.10642,0,20,20,939,1,the bed room the is hightlight to the room,the bed room is missed the light,wolfe2,097_L_light,3,58,A1YH2I4Y2SYAXJ,2021-01-24_11h16.31.382,MetaAwareness,2020.1.2,Win32,60,368IUKXGA6BY46F8NWZS3N4SC5IP62,A1YH2I4Y2SYAXJ,3BXQMRHWK01G7Y6QH0A5Q8J10ZHUMZ,WMXB6,WMXB6,3BXQMRHWK01G7Y6QH0A5Q8J10ZHUMZ,3BXQMRHWK01G7Y6QH0A5Q8J10ZHUMZ,271016,271016,,,,,,,,,,
,,,,4,9.22506,0,21,21,551,1,there is a rathe large stain on the rug at the library.,there is a white trashcan on the rug at the library.,wolfe2,057_R_bin,2,58,A1YH2I4Y2SYAXJ,2021-01-24_11h16.31.382,MetaAwareness,2020.1.2,Win32,60,368IUKXGA6BY46F8NWZS3N4SC5IP62,A1YH2I4Y2SYAXJ,3BXQMRHWK01G7Y6QH0A5Q8J10ZHUMZ,WMXB6,WMXB6,3BXQMRHWK01G7Y6QH0A5Q8J10ZHUMZ,3BXQMRHWK01G7Y6QH0A5Q8J10ZHUMZ,271016,271016,,,,,,,,,,
,,,,5,8.647185,0,22,22,789,1,a spare bedroom,a spare bedroom with an object missing,wolfe2,081_R_football,3,58,A1YH2I4Y2SYAXJ,2021-01-24_11h16.31.382,MetaAwareness,2020.1.2,Win32,60,368IUKXGA6BY46F8NWZS3N4SC5IP62,A1YH2I4Y2SYAXJ,3BXQMRHWK01G7Y6QH0A5Q8J10ZHUMZ,WMXB6,WMXB6,3BXQMRHWK01G7Y6QH0A5Q8J10ZHUMZ,3BXQMRHWK01G7Y6QH0A5Q8J10ZHUMZ,271016,271016,,,,,,,,,,
,,,,3,7.76807,0,23,23,1007,1,a kitchen area with a person sitting in a chair.,a kitchen area with empty chairs.,wolfe2,104_R_bottle,1,58,A1YH2I4Y2SYAXJ,2021-01-24_11h16.31.382,MetaAwareness,2020.1.2,Win32,60,368IUKXGA6BY46F8NWZS3N4SC5IP62,A1YH2I4Y2SYAXJ,3BXQMRHWK01G7Y6QH0A5Q8J10ZHUMZ,WMXB6,WMXB6,3BXQMRHWK01G7Y6QH0A5Q8J10ZHUMZ,3BXQMRHWK01G7Y6QH0A5Q8J10ZHUMZ,271016,271016,,,,,,,,,,
,,,,4,13.13853,0,24,24,842,1,a long view of an eating area and living room with a covered dish on the lowest shelf,a long view of an eating area and living room with nothing on the lowest shelf,wolfe2,086_L_book,5,58,A1YH2I4Y2SYAXJ,2021-01-24_11h16.31.382,MetaAwareness,2020.1.2,Win32,60,368IUKXGA6BY46F8NWZS3N4SC5IP62,A1YH2I4Y2SYAXJ,3BXQMRHWK01G7Y6QH0A5Q8J10ZHUMZ,WMXB6,WMXB6,3BXQMRHWK01G7Y6QH0A5Q8J10ZHUMZ,3BXQMRHWK01G7Y6QH0A5Q8J10ZHUMZ,271016,271016,,,,,,,,,,
,,,,5,11.831545,0,25,25,764,1,this is a fancy bathroom with only one tap handle,this is a fancy bathroom with both a hot and cold tap handle,wolfe2,078_R_faucet,7,58,A1YH2I4Y2SYAXJ,2021-01-24_11h16.31.382,MetaAwareness,2020.1.2,Win32,60,368IUKXGA6BY46F8NWZS3N4SC5IP62,A1YH2I4Y2SYAXJ,3BXQMRHWK01G7Y6QH0A5Q8J10ZHUMZ,WMXB6,WMXB6,3BXQMRHWK01G7Y6QH0A5Q8J10ZHUMZ,3BXQMRHWK01G7Y6QH0A5Q8J10ZHUMZ,271016,271016,,,,,,,,,,
,,,,5,7.25002,0,26,26,911,1,two beds next to each other with a golden tag in between.,two beds next to each other.,wolfe2,093_L_switch,8,58,A1YH2I4Y2SYAXJ,2021-01-24_11h16.31.382,MetaAwareness,2020.1.2,Win32,60,368IUKXGA6BY46F8NWZS3N4SC5IP62,A1YH2I4Y2SYAXJ,3BXQMRHWK01G7Y6QH0A5Q8J10ZHUMZ,WMXB6,WMXB6,3BXQMRHWK01G7Y6QH0A5Q8J10ZHUMZ,3BXQMRHWK01G7Y6QH0A5Q8J10ZHUMZ,271016,271016,,,,,,,,,,
,,,,5,25.86702,0,27,27,367,1,a bright and neat looking dining room with 3 plates propped up on the wall shelves.,a bright and neat looking dining room with a wall decoration next to 3 plates propped up on the wall shelves.,wolfe2,038_R_art,2,58,A1YH2I4Y2SYAXJ,2021-01-24_11h16.31.382,MetaAwareness,2020.1.2,Win32,60,368IUKXGA6BY46F8NWZS3N4SC5IP62,A1YH2I4Y2SYAXJ,3BXQMRHWK01G7Y6QH0A5Q8J10ZHUMZ,WMXB6,WMXB6,3BXQMRHWK01G7Y6QH0A5Q8J10ZHUMZ,3BXQMRHWK01G7Y6QH0A5Q8J10ZHUMZ,271016,271016,,,,,,,,,,
,,,,5,8.072435,0,28,28,949,1,modern white bedroom with grey object on floor in front of chair.,modern white bedroom with nothing on floor in front of chair.,wolfe2,098_L_slippers,4,58,A1YH2I4Y2SYAXJ,2021-01-24_11h16.31.382,MetaAwareness,2020.1.2,Win32,60,368IUKXGA6BY46F8NWZS3N4SC5IP62,A1YH2I4Y2SYAXJ,3BXQMRHWK01G7Y6QH0A5Q8J10ZHUMZ,WMXB6,WMXB6,3BXQMRHWK01G7Y6QH0A5Q8J10ZHUMZ,3BXQMRHWK01G7Y6QH0A5Q8J10ZHUMZ,271016,271016,,,,,,,,,,
,,,,5,12.13733,0,29,29,134,1,a loft type living space. has a dining area with one light hanging above the table,a loft type living space. has a dining area with two lights hanging above the table.,wolfe2,013_R_lamp,5,58,A1YH2I4Y2SYAXJ,2021-01-24_11h16.31.382,MetaAwareness,2020.1.2,Win32,60,368IUKXGA6BY46F8NWZS3N4SC5IP62,A1YH2I4Y2SYAXJ,3BXQMRHWK01G7Y6QH0A5Q8J10ZHUMZ,WMXB6,WMXB6,3BXQMRHWK01G7Y6QH0A5Q8J10ZHUMZ,3BXQMRHWK01G7Y6QH0A5Q8J10ZHUMZ,271016,271016,,,,,,,,,,
,,,,,,,,,,,,,,,,58,A1YH2I4Y2SYAXJ,2021-01-24_11h16.31.382,MetaAwareness,2020.1.2,Win32,60,368IUKXGA6BY46F8NWZS3N4SC5IP62,A1YH2I4Y2SYAXJ,3BXQMRHWK01G7Y6QH0A5Q8J10ZHUMZ,WMXB6,WMXB6,3BXQMRHWK01G7Y6QH0A5Q8J10ZHUMZ,3BXQMRHWK01G7Y6QH0A5Q8J10ZHUMZ,271016,271016,6,13.06604,someone laying underneath a blue beach umbrella on a crowded beach,someone laying underneath a blue beach umbrella on a crowded beach,same,1,9.37256,members of a marching band crossing a track that all have feather plumes at the front of their hats,a cluttered and rustic looking cafe with 10 hanging lights,different
