consent_response.keys,consent_response.rt,key_resp_2.keys,key_resp_2.rt,user_resp.keys,user_resp.rt,trials.thisRepN,trials.thisTrialN,trials.thisN,trials.thisIndex,trials.ran,image_1_text,image_2_text,database,image,number,age,worker_ID,date,expName,psychopyVersion,OS,frameRate,hitId,workerId,assignmentId,a,tp_a,b,tp_b,c,tp_c,catch_same_resp.keys,catch_same_resp.rt,image_1_text_catch_same,image_2_text_catch_same,image_catch_same,catch_different_resp.keys,catch_different_resp.rt,image_1_text_catch_different,image_2_text_catch_different,image_catch_different
space,9.681,space,5.418,4,25.034,0,0,0,565,1,a messy kids bedroom with nothing over top of the mirror,a messy kids bedroom with a large toy car sitting over top of the mirror,wolfe2,059_L_car,4,30,A22054T0J2HDVG,2021-01-24_14h02.34.250,MetaAwareness,2020.1.2,Win32,60,3EQVJH0T41OCTNSW0WZG5OUFAMNHT4,A22054T0J2HDVG,3QUO65DNQVR471R2UGPIIC86VZ8OUK,N6UQ6,N6UQ6,3QUO65DNQVR471R2UGPIIC86VZ8OUK,3QUO65DNQVR471R2UGPIIC86VZ8OUK,271016,271016,,,,,,,,,,
,,,,3,3.4,0,1,1,87,1,"a bedroom with a stool, blanket and book.","a bedroom with a stool, blanket, book and rug underneath.",wolfe2,009_R_carpet,1,30,A22054T0J2HDVG,2021-01-24_14h02.34.250,MetaAwareness,2020.1.2,Win32,60,3EQVJH0T41OCTNSW0WZG5OUFAMNHT4,A22054T0J2HDVG,3QUO65DNQVR471R2UGPIIC86VZ8OUK,N6UQ6,N6UQ6,3QUO65DNQVR471R2UGPIIC86VZ8OUK,3QUO65DNQVR471R2UGPIIC86VZ8OUK,271016,271016,,,,,,,,,,
,,,,5,6.02,0,2,2,866,1,a empty salon with 4 pictures hanging on the walls,an empty salon with 3 pictures hanging on the walls,wolfe2,089_L_poster,2,30,A22054T0J2HDVG,2021-01-24_14h02.34.250,MetaAwareness,2020.1.2,Win32,60,3EQVJH0T41OCTNSW0WZG5OUFAMNHT4,A22054T0J2HDVG,3QUO65DNQVR471R2UGPIIC86VZ8OUK,N6UQ6,N6UQ6,3QUO65DNQVR471R2UGPIIC86VZ8OUK,3QUO65DNQVR471R2UGPIIC86VZ8OUK,271016,271016,,,,,,,,,,
,,,,3,2.604,0,3,3,140,1,an indoor-outdoor bar seating area with three wall-mounted lights,an indoor-outdoor bar seating area with four wall-mounted lights,wolfe2,014_R_lamp,1,30,A22054T0J2HDVG,2021-01-24_14h02.34.250,MetaAwareness,2020.1.2,Win32,60,3EQVJH0T41OCTNSW0WZG5OUFAMNHT4,A22054T0J2HDVG,3QUO65DNQVR471R2UGPIIC86VZ8OUK,N6UQ6,N6UQ6,3QUO65DNQVR471R2UGPIIC86VZ8OUK,3QUO65DNQVR471R2UGPIIC86VZ8OUK,271016,271016,,,,,,,,,,
,,,,4,2.673,0,4,4,1124,1," room with four doors to the yard , a couch with pillows and a plant on a stand","room with four doors to the yard, a couch with pillows and an empty stand",wolfe2,117_L_plant_sized,3,30,A22054T0J2HDVG,2021-01-24_14h02.34.250,MetaAwareness,2020.1.2,Win32,60,3EQVJH0T41OCTNSW0WZG5OUFAMNHT4,A22054T0J2HDVG,3QUO65DNQVR471R2UGPIIC86VZ8OUK,N6UQ6,N6UQ6,3QUO65DNQVR471R2UGPIIC86VZ8OUK,3QUO65DNQVR471R2UGPIIC86VZ8OUK,271016,271016,,,,,,,,,,
,,,,5,1.619,0,5,5,1142,1,this is a picture of a sitting room. there is a pair of shoes next to a potted plant.,this is a picture of a sitting room. there is only a potted plant on the right.,wolfe2,118_R_shoes,6,30,A22054T0J2HDVG,2021-01-24_14h02.34.250,MetaAwareness,2020.1.2,Win32,60,3EQVJH0T41OCTNSW0WZG5OUFAMNHT4,A22054T0J2HDVG,3QUO65DNQVR471R2UGPIIC86VZ8OUK,N6UQ6,N6UQ6,3QUO65DNQVR471R2UGPIIC86VZ8OUK,3QUO65DNQVR471R2UGPIIC86VZ8OUK,271016,271016,,,,,,,,,,
,,,,4,3.617,0,6,6,406,1,a very stylish and contemporary looking bathroom that has a lot of tan and brown coloring and two sinks and one faucet,a very stylish and contemporary looking bathroom that has a lot of tan and brown coloring and two sinks and two faucets,wolfe2,042_R_tap,5,30,A22054T0J2HDVG,2021-01-24_14h02.34.250,MetaAwareness,2020.1.2,Win32,60,3EQVJH0T41OCTNSW0WZG5OUFAMNHT4,A22054T0J2HDVG,3QUO65DNQVR471R2UGPIIC86VZ8OUK,N6UQ6,N6UQ6,3QUO65DNQVR471R2UGPIIC86VZ8OUK,3QUO65DNQVR471R2UGPIIC86VZ8OUK,271016,271016,,,,,,,,,,
,,,,6,1.577,0,7,7,109,1,a modern style bathroom,a modern style bathroom with a soap bottle added,wolfe2,011_R_parfum,2,30,A22054T0J2HDVG,2021-01-24_14h02.34.250,MetaAwareness,2020.1.2,Win32,60,3EQVJH0T41OCTNSW0WZG5OUFAMNHT4,A22054T0J2HDVG,3QUO65DNQVR471R2UGPIIC86VZ8OUK,N6UQ6,N6UQ6,3QUO65DNQVR471R2UGPIIC86VZ8OUK,3QUO65DNQVR471R2UGPIIC86VZ8OUK,271016,271016,,,,,,,,,,
,,,,6,4.134,0,8,8,887,1,a fancy looking bathroom. there is a red chair near a mirror. there is a white rectangluar device reclected in the mirror above the red chair.,a fancy looking bathroom. there is a red chair near a mirror. there is nothing relected in the mirror above the red chair.,wolfe2,091_L_airfreshener,1,30,A22054T0J2HDVG,2021-01-24_14h02.34.250,MetaAwareness,2020.1.2,Win32,60,3EQVJH0T41OCTNSW0WZG5OUFAMNHT4,A22054T0J2HDVG,3QUO65DNQVR471R2UGPIIC86VZ8OUK,N6UQ6,N6UQ6,3QUO65DNQVR471R2UGPIIC86VZ8OUK,3QUO65DNQVR471R2UGPIIC86VZ8OUK,271016,271016,,,,,,,,,,
,,,,3,1.922,0,9,9,198,1,in a nice workroom with a fireplace there is a computer desk without a keybord for  the computer,in a nice workroom with a fireplace there is a computer desk with a keyboard in front of a computer,wolfe2,021_L_keyboard,1,30,A22054T0J2HDVG,2021-01-24_14h02.34.250,MetaAwareness,2020.1.2,Win32,60,3EQVJH0T41OCTNSW0WZG5OUFAMNHT4,A22054T0J2HDVG,3QUO65DNQVR471R2UGPIIC86VZ8OUK,N6UQ6,N6UQ6,3QUO65DNQVR471R2UGPIIC86VZ8OUK,3QUO65DNQVR471R2UGPIIC86VZ8OUK,271016,271016,,,,,,,,,,
,,,,4,1.497,0,10,10,1063,1,a windowed room of a house looking to a pool with a shrub in the corner of the room,a windowed room of a house looking to a pool.,wolfe2,110_L_plant,4,30,A22054T0J2HDVG,2021-01-24_14h02.34.250,MetaAwareness,2020.1.2,Win32,60,3EQVJH0T41OCTNSW0WZG5OUFAMNHT4,A22054T0J2HDVG,3QUO65DNQVR471R2UGPIIC86VZ8OUK,N6UQ6,N6UQ6,3QUO65DNQVR471R2UGPIIC86VZ8OUK,3QUO65DNQVR471R2UGPIIC86VZ8OUK,271016,271016,,,,,,,,,,
,,,,5,1.153,0,11,11,647,1,very modern dining room with large window and no picture on side table,"very modern dining room with large window and small, white frame with a picture on side table",wolfe2,067_L_painting,4,30,A22054T0J2HDVG,2021-01-24_14h02.34.250,MetaAwareness,2020.1.2,Win32,60,3EQVJH0T41OCTNSW0WZG5OUFAMNHT4,A22054T0J2HDVG,3QUO65DNQVR471R2UGPIIC86VZ8OUK,N6UQ6,N6UQ6,3QUO65DNQVR471R2UGPIIC86VZ8OUK,3QUO65DNQVR471R2UGPIIC86VZ8OUK,271016,271016,,,,,,,,,,
,,,,3,1.827,0,12,12,456,1,a white drawer with black on top,a design insignia on front of a white drawer,wolfe2,047_R_handle,6,30,A22054T0J2HDVG,2021-01-24_14h02.34.250,MetaAwareness,2020.1.2,Win32,60,3EQVJH0T41OCTNSW0WZG5OUFAMNHT4,A22054T0J2HDVG,3QUO65DNQVR471R2UGPIIC86VZ8OUK,N6UQ6,N6UQ6,3QUO65DNQVR471R2UGPIIC86VZ8OUK,3QUO65DNQVR471R2UGPIIC86VZ8OUK,271016,271016,,,,,,,,,,
,,,,4,1.015,0,13,13,376,1,a large view of the living room and kitchen with no vent on the ceiling,a large view of the living room and kitchen with a vent on the ceiling,wolfe2,039_R_ventilator,3,30,A22054T0J2HDVG,2021-01-24_14h02.34.250,MetaAwareness,2020.1.2,Win32,60,3EQVJH0T41OCTNSW0WZG5OUFAMNHT4,A22054T0J2HDVG,3QUO65DNQVR471R2UGPIIC86VZ8OUK,N6UQ6,N6UQ6,3QUO65DNQVR471R2UGPIIC86VZ8OUK,3QUO65DNQVR471R2UGPIIC86VZ8OUK,271016,271016,,,,,,,,,,
,,,,5,1.488,0,14,14,191,1,plain wall,decorations on the wall,wolfe2,020_L_walldeco,2,30,A22054T0J2HDVG,2021-01-24_14h02.34.250,MetaAwareness,2020.1.2,Win32,60,3EQVJH0T41OCTNSW0WZG5OUFAMNHT4,A22054T0J2HDVG,3QUO65DNQVR471R2UGPIIC86VZ8OUK,N6UQ6,N6UQ6,3QUO65DNQVR471R2UGPIIC86VZ8OUK,3QUO65DNQVR471R2UGPIIC86VZ8OUK,271016,271016,,,,,,,,,,
,,,,4,1.069,0,15,15,728,1,a kitchen with 3 skylights,a kitchen with 4 skylights,wolfe2,075_R_light,6,30,A22054T0J2HDVG,2021-01-24_14h02.34.250,MetaAwareness,2020.1.2,Win32,60,3EQVJH0T41OCTNSW0WZG5OUFAMNHT4,A22054T0J2HDVG,3QUO65DNQVR471R2UGPIIC86VZ8OUK,N6UQ6,N6UQ6,3QUO65DNQVR471R2UGPIIC86VZ8OUK,3QUO65DNQVR471R2UGPIIC86VZ8OUK,271016,271016,,,,,,,,,,
,,,,6,1.718,0,16,16,662,1,high end bathroom with a tub that had flowers in it. there are two holders on thewall next to the tub  ,high end bathroom with a tub that has flowers in it. there are three holders on the wall next to the tub,wolfe2,068_R_faucet,4,30,A22054T0J2HDVG,2021-01-24_14h02.34.250,MetaAwareness,2020.1.2,Win32,60,3EQVJH0T41OCTNSW0WZG5OUFAMNHT4,A22054T0J2HDVG,3QUO65DNQVR471R2UGPIIC86VZ8OUK,N6UQ6,N6UQ6,3QUO65DNQVR471R2UGPIIC86VZ8OUK,3QUO65DNQVR471R2UGPIIC86VZ8OUK,271016,271016,,,,,,,,,,
,,,,5,1.024,0,17,17,305,1,"a simple and spacious looking room with lots of seating, many windows and one beam on the ceiling","a simple and spacious looking room with lots of seating, many windows and two beams on the ceiling",wolfe2,031_R_log,5,30,A22054T0J2HDVG,2021-01-24_14h02.34.250,MetaAwareness,2020.1.2,Win32,60,3EQVJH0T41OCTNSW0WZG5OUFAMNHT4,A22054T0J2HDVG,3QUO65DNQVR471R2UGPIIC86VZ8OUK,N6UQ6,N6UQ6,3QUO65DNQVR471R2UGPIIC86VZ8OUK,3QUO65DNQVR471R2UGPIIC86VZ8OUK,271016,271016,,,,,,,,,,
,,,,4,1.057,0,18,18,1006,1,a luxurious and bright sitting area decorated with drinks and candle lights,a luxurious and bright sitting area decorated with candle lights and empty tables,wolfe2,104_L_bottle,6,30,A22054T0J2HDVG,2021-01-24_14h02.34.250,MetaAwareness,2020.1.2,Win32,60,3EQVJH0T41OCTNSW0WZG5OUFAMNHT4,A22054T0J2HDVG,3QUO65DNQVR471R2UGPIIC86VZ8OUK,N6UQ6,N6UQ6,3QUO65DNQVR471R2UGPIIC86VZ8OUK,3QUO65DNQVR471R2UGPIIC86VZ8OUK,271016,271016,,,,,,,,,,
,,,,4,1.039,0,19,19,620,1,a dining room with dark brown furniture and a table against the wall with a white bowl on it,a dining room with dark brown furniture and a table against the wall with a white bowl and liquer bottle on it,wolfe2,064_R_bottles,4,30,A22054T0J2HDVG,2021-01-24_14h02.34.250,MetaAwareness,2020.1.2,Win32,60,3EQVJH0T41OCTNSW0WZG5OUFAMNHT4,A22054T0J2HDVG,3QUO65DNQVR471R2UGPIIC86VZ8OUK,N6UQ6,N6UQ6,3QUO65DNQVR471R2UGPIIC86VZ8OUK,3QUO65DNQVR471R2UGPIIC86VZ8OUK,271016,271016,,,,,,,,,,
,,,,3,0.913,0,20,20,733,1,abathroom with tub and showerand a plant on the counter ,a bathroom with tub and shower and a plant on the counter with a towle hook on the wall,wolfe2,076_L_hook,3,30,A22054T0J2HDVG,2021-01-24_14h02.34.250,MetaAwareness,2020.1.2,Win32,60,3EQVJH0T41OCTNSW0WZG5OUFAMNHT4,A22054T0J2HDVG,3QUO65DNQVR471R2UGPIIC86VZ8OUK,N6UQ6,N6UQ6,3QUO65DNQVR471R2UGPIIC86VZ8OUK,3QUO65DNQVR471R2UGPIIC86VZ8OUK,271016,271016,,,,,,,,,,
,,,,5,0.919,0,21,21,246,1,a nice living room with a shelf that contains a club,a nice living room with a shelf that contains two clubs,wolfe2,025_L_vase,4,30,A22054T0J2HDVG,2021-01-24_14h02.34.250,MetaAwareness,2020.1.2,Win32,60,3EQVJH0T41OCTNSW0WZG5OUFAMNHT4,A22054T0J2HDVG,3QUO65DNQVR471R2UGPIIC86VZ8OUK,N6UQ6,N6UQ6,3QUO65DNQVR471R2UGPIIC86VZ8OUK,3QUO65DNQVR471R2UGPIIC86VZ8OUK,271016,271016,,,,,,,,,,
,,,,6,1.247,0,22,22,1163,1,a modern bedroom with a car figurine on the nightstand next to the lamp.,a modern bedroom with nothing on the nightstand next to the lamp.,wolfe2,121_L_car,4,30,A22054T0J2HDVG,2021-01-24_14h02.34.250,MetaAwareness,2020.1.2,Win32,60,3EQVJH0T41OCTNSW0WZG5OUFAMNHT4,A22054T0J2HDVG,3QUO65DNQVR471R2UGPIIC86VZ8OUK,N6UQ6,N6UQ6,3QUO65DNQVR471R2UGPIIC86VZ8OUK,3QUO65DNQVR471R2UGPIIC86VZ8OUK,271016,271016,,,,,,,,,,
,,,,5,0.863,0,23,23,1202,1,"room with 11 windows, leather couches and an end table and piano","room with 11 windows, leather couches and piano",wolfe2,125_L_sofa,3,30,A22054T0J2HDVG,2021-01-24_14h02.34.250,MetaAwareness,2020.1.2,Win32,60,3EQVJH0T41OCTNSW0WZG5OUFAMNHT4,A22054T0J2HDVG,3QUO65DNQVR471R2UGPIIC86VZ8OUK,N6UQ6,N6UQ6,3QUO65DNQVR471R2UGPIIC86VZ8OUK,3QUO65DNQVR471R2UGPIIC86VZ8OUK,271016,271016,,,,,,,,,,
,,,,3,1.04,0,24,24,370,1,a cream colored couch being lit up by several can lights in a living room,"a cream colored couch being lit up by several can lights in a living room, there is a ceiling fan installed to help with air movement.",wolfe2,039_L_ventilator,1,30,A22054T0J2HDVG,2021-01-24_14h02.34.250,MetaAwareness,2020.1.2,Win32,60,3EQVJH0T41OCTNSW0WZG5OUFAMNHT4,A22054T0J2HDVG,3QUO65DNQVR471R2UGPIIC86VZ8OUK,N6UQ6,N6UQ6,3QUO65DNQVR471R2UGPIIC86VZ8OUK,3QUO65DNQVR471R2UGPIIC86VZ8OUK,271016,271016,,,,,,,,,,
,,,,4,1.277,0,25,25,1230,1,the studying room is good  thereis a flower to simle and good enegry to the room,there is no flower in my room are a planted,wolfe2,128_L_pot,1,30,A22054T0J2HDVG,2021-01-24_14h02.34.250,MetaAwareness,2020.1.2,Win32,60,3EQVJH0T41OCTNSW0WZG5OUFAMNHT4,A22054T0J2HDVG,3QUO65DNQVR471R2UGPIIC86VZ8OUK,N6UQ6,N6UQ6,3QUO65DNQVR471R2UGPIIC86VZ8OUK,3QUO65DNQVR471R2UGPIIC86VZ8OUK,271016,271016,,,,,,,,,,
,,,,5,1.025,0,26,26,396,1,it is an empty wall,it has a water pipe,wolfe2,042_L_tap,1,30,A22054T0J2HDVG,2021-01-24_14h02.34.250,MetaAwareness,2020.1.2,Win32,60,3EQVJH0T41OCTNSW0WZG5OUFAMNHT4,A22054T0J2HDVG,3QUO65DNQVR471R2UGPIIC86VZ8OUK,N6UQ6,N6UQ6,3QUO65DNQVR471R2UGPIIC86VZ8OUK,3QUO65DNQVR471R2UGPIIC86VZ8OUK,271016,271016,,,,,,,,,,
,,,,3,1.194,0,27,27,707,1,a spacious sitting room with a table that has two plants sitting in the middle of it.,a spacious sitting room with a table that has two plants and a book sitting in the middle of it.,wolfe2,074_L_book,1,30,A22054T0J2HDVG,2021-01-24_14h02.34.250,MetaAwareness,2020.1.2,Win32,60,3EQVJH0T41OCTNSW0WZG5OUFAMNHT4,A22054T0J2HDVG,3QUO65DNQVR471R2UGPIIC86VZ8OUK,N6UQ6,N6UQ6,3QUO65DNQVR471R2UGPIIC86VZ8OUK,3QUO65DNQVR471R2UGPIIC86VZ8OUK,271016,271016,,,,,,,,,,
,,,,4,0.948,0,28,28,1235,1,there is flower pot in the room,no flower pots are appear in the room,wolfe2,128_R_pot,1,30,A22054T0J2HDVG,2021-01-24_14h02.34.250,MetaAwareness,2020.1.2,Win32,60,3EQVJH0T41OCTNSW0WZG5OUFAMNHT4,A22054T0J2HDVG,3QUO65DNQVR471R2UGPIIC86VZ8OUK,N6UQ6,N6UQ6,3QUO65DNQVR471R2UGPIIC86VZ8OUK,3QUO65DNQVR471R2UGPIIC86VZ8OUK,271016,271016,,,,,,,,,,
,,,,5,1.021,0,29,29,539,1,a white chaise lounge sofa,a white chaise lounge sofa with a brown throw blanket draped,wolfe2,056_R_comforter,2,30,A22054T0J2HDVG,2021-01-24_14h02.34.250,MetaAwareness,2020.1.2,Win32,60,3EQVJH0T41OCTNSW0WZG5OUFAMNHT4,A22054T0J2HDVG,3QUO65DNQVR471R2UGPIIC86VZ8OUK,N6UQ6,N6UQ6,3QUO65DNQVR471R2UGPIIC86VZ8OUK,3QUO65DNQVR471R2UGPIIC86VZ8OUK,271016,271016,,,,,,,,,,
,,,,,,,,,,,,,,,,30,A22054T0J2HDVG,2021-01-24_14h02.34.250,MetaAwareness,2020.1.2,Win32,60,3EQVJH0T41OCTNSW0WZG5OUFAMNHT4,A22054T0J2HDVG,3QUO65DNQVR471R2UGPIIC86VZ8OUK,N6UQ6,N6UQ6,3QUO65DNQVR471R2UGPIIC86VZ8OUK,3QUO65DNQVR471R2UGPIIC86VZ8OUK,271016,271016,4,0.703,someone laying underneath a blue beach umbrella on a crowded beach,someone laying underneath a blue beach umbrella on a crowded beach,same,6,1.521,members of a marching band crossing a track that all have feather plumes at the front of their hats,a cluttered and rustic looking cafe with 10 hanging lights,different
