consent_response.keys,consent_response.rt,key_resp_2.keys,key_resp_2.rt,user_resp.keys,user_resp.rt,trials.thisRepN,trials.thisTrialN,trials.thisN,trials.thisIndex,trials.ran,image_1_text,image_2_text,database,image,number,age,worker_ID,date,expName,psychopyVersion,OS,frameRate,hitId,workerId,assignmentId,a,tp_a,b,tp_b,c,tp_c,catch_same_resp.keys,catch_same_resp.rt,image_1_text_catch_same,image_2_text_catch_same,image_catch_same,catch_different_resp.keys,catch_different_resp.rt,image_1_text_catch_different,image_2_text_catch_different,image_catch_different
space,4.843,space,6.748,4,22.57,0,0,0,1042,1,a fitting area in a clothing store with mirrors along the wall and a clothes rack with two jackets hanging,a fitting area in a clothing store with mirrors along the wall and a clothes rack with one jacket hanging,wolfe2,107_R_shirts,3,35,A2BABL5AHUOYC7,2021-01-24_11h14.31.002,MetaAwareness,2020.1.2,Win32,60,368IUKXGA6BY46F8NWZS3N4SC5IP62,A2BABL5AHUOYC7,3EF8EXOTT2YAXT97CFNTZEMNL8P1J3,TEFE6,TEFE6,3EF8EXOTT2YAXT97CFNTZEMNL8P1J3,3EF8EXOTT2YAXT97CFNTZEMNL8P1J3,271016,271016,,,,,,,,,,
,,,,4,20.034,0,1,1,545,1,a library with several bookcases and the second bookcase on the left has no waste basket on the side of it,a library with several bookcases and the second bookcase on the left has a waste basket to the side of it,wolfe2,057_L_bin,1,35,A2BABL5AHUOYC7,2021-01-24_11h14.31.002,MetaAwareness,2020.1.2,Win32,60,368IUKXGA6BY46F8NWZS3N4SC5IP62,A2BABL5AHUOYC7,3EF8EXOTT2YAXT97CFNTZEMNL8P1J3,TEFE6,TEFE6,3EF8EXOTT2YAXT97CFNTZEMNL8P1J3,3EF8EXOTT2YAXT97CFNTZEMNL8P1J3,271016,271016,,,,,,,,,,
,,,,2,16.875,0,2,2,902,1,a living room seating area with a large mirror and a fireplace holding two candles,a living room seating area with a large mirror and an empty fireplace,wolfe2,092_R_candles,4,35,A2BABL5AHUOYC7,2021-01-24_11h14.31.002,MetaAwareness,2020.1.2,Win32,60,368IUKXGA6BY46F8NWZS3N4SC5IP62,A2BABL5AHUOYC7,3EF8EXOTT2YAXT97CFNTZEMNL8P1J3,TEFE6,TEFE6,3EF8EXOTT2YAXT97CFNTZEMNL8P1J3,3EF8EXOTT2YAXT97CFNTZEMNL8P1J3,271016,271016,,,,,,,,,,
,,,,4,8.002,0,3,3,780,1,a full stocked kitchen with white and black furniture and a tall black shelf,"a fully stocked kitchen with white and black furniture and a tall black shelf, and a plant",wolfe2,080_R_plant,4,35,A2BABL5AHUOYC7,2021-01-24_11h14.31.002,MetaAwareness,2020.1.2,Win32,60,368IUKXGA6BY46F8NWZS3N4SC5IP62,A2BABL5AHUOYC7,3EF8EXOTT2YAXT97CFNTZEMNL8P1J3,TEFE6,TEFE6,3EF8EXOTT2YAXT97CFNTZEMNL8P1J3,3EF8EXOTT2YAXT97CFNTZEMNL8P1J3,271016,271016,,,,,,,,,,
,,,,4,9.227,0,4,4,570,1,neutral colored living room with 3 beige pillows on the couch and one black,neutral colored living room with 3 beige pillows on the couch and two black pillows,wolfe2,060_L_pillow,1,35,A2BABL5AHUOYC7,2021-01-24_11h14.31.002,MetaAwareness,2020.1.2,Win32,60,368IUKXGA6BY46F8NWZS3N4SC5IP62,A2BABL5AHUOYC7,3EF8EXOTT2YAXT97CFNTZEMNL8P1J3,TEFE6,TEFE6,3EF8EXOTT2YAXT97CFNTZEMNL8P1J3,3EF8EXOTT2YAXT97CFNTZEMNL8P1J3,271016,271016,,,,,,,,,,
,,,,4,3.694,0,5,5,109,1,a modern style bathroom,a modern style bathroom with a soap bottle added,wolfe2,011_R_parfum,2,35,A2BABL5AHUOYC7,2021-01-24_11h14.31.002,MetaAwareness,2020.1.2,Win32,60,368IUKXGA6BY46F8NWZS3N4SC5IP62,A2BABL5AHUOYC7,3EF8EXOTT2YAXT97CFNTZEMNL8P1J3,TEFE6,TEFE6,3EF8EXOTT2YAXT97CFNTZEMNL8P1J3,3EF8EXOTT2YAXT97CFNTZEMNL8P1J3,271016,271016,,,,,,,,,,
,,,,2,7.418,0,6,6,823,1,a classy vacation beach house space with open door,fresh air in the beach house,wolfe2,084_R_light,7,35,A2BABL5AHUOYC7,2021-01-24_11h14.31.002,MetaAwareness,2020.1.2,Win32,60,368IUKXGA6BY46F8NWZS3N4SC5IP62,A2BABL5AHUOYC7,3EF8EXOTT2YAXT97CFNTZEMNL8P1J3,TEFE6,TEFE6,3EF8EXOTT2YAXT97CFNTZEMNL8P1J3,3EF8EXOTT2YAXT97CFNTZEMNL8P1J3,271016,271016,,,,,,,,,,
,,,,3,6.065,0,7,7,674,1,an upscale living room that has a nude color scheme and one light feature on the wall,an upscale living room that has a nude color scheme and 2 light features on the wall,wolfe2,070_L_lamp,3,35,A2BABL5AHUOYC7,2021-01-24_11h14.31.002,MetaAwareness,2020.1.2,Win32,60,368IUKXGA6BY46F8NWZS3N4SC5IP62,A2BABL5AHUOYC7,3EF8EXOTT2YAXT97CFNTZEMNL8P1J3,TEFE6,TEFE6,3EF8EXOTT2YAXT97CFNTZEMNL8P1J3,3EF8EXOTT2YAXT97CFNTZEMNL8P1J3,271016,271016,,,,,,,,,,
,,,,1,7.254,0,8,8,834,1,a bathroom with an electric outlet near the sink,a bathroom that doesn't have an extra outlet by the sink,wolfe2,085_R_switchboard,5,35,A2BABL5AHUOYC7,2021-01-24_11h14.31.002,MetaAwareness,2020.1.2,Win32,60,368IUKXGA6BY46F8NWZS3N4SC5IP62,A2BABL5AHUOYC7,3EF8EXOTT2YAXT97CFNTZEMNL8P1J3,TEFE6,TEFE6,3EF8EXOTT2YAXT97CFNTZEMNL8P1J3,3EF8EXOTT2YAXT97CFNTZEMNL8P1J3,271016,271016,,,,,,,,,,
,,,,1,3.06,0,9,9,833,1,there is a light switch,the light switch is missing,wolfe2,085_R_switchboard,4,35,A2BABL5AHUOYC7,2021-01-24_11h14.31.002,MetaAwareness,2020.1.2,Win32,60,368IUKXGA6BY46F8NWZS3N4SC5IP62,A2BABL5AHUOYC7,3EF8EXOTT2YAXT97CFNTZEMNL8P1J3,TEFE6,TEFE6,3EF8EXOTT2YAXT97CFNTZEMNL8P1J3,3EF8EXOTT2YAXT97CFNTZEMNL8P1J3,271016,271016,,,,,,,,,,
,,,,4,6.575,0,10,10,581,1,a dining room with a missing wine glass,a dining room with a wine glass at every setting,wolfe2,061_L_glass,4,35,A2BABL5AHUOYC7,2021-01-24_11h14.31.002,MetaAwareness,2020.1.2,Win32,60,368IUKXGA6BY46F8NWZS3N4SC5IP62,A2BABL5AHUOYC7,3EF8EXOTT2YAXT97CFNTZEMNL8P1J3,TEFE6,TEFE6,3EF8EXOTT2YAXT97CFNTZEMNL8P1J3,3EF8EXOTT2YAXT97CFNTZEMNL8P1J3,271016,271016,,,,,,,,,,
,,,,4,8.674,0,11,11,414,1,a clean living room with a shelving unit to the left of the tv that has the largest shelf empty,a clean living room with a shelving unit to the left of the tv that has a clock in the largest shelf,wolfe2,043_R_clock,3,35,A2BABL5AHUOYC7,2021-01-24_11h14.31.002,MetaAwareness,2020.1.2,Win32,60,368IUKXGA6BY46F8NWZS3N4SC5IP62,A2BABL5AHUOYC7,3EF8EXOTT2YAXT97CFNTZEMNL8P1J3,TEFE6,TEFE6,3EF8EXOTT2YAXT97CFNTZEMNL8P1J3,3EF8EXOTT2YAXT97CFNTZEMNL8P1J3,271016,271016,,,,,,,,,,
,,,,3,4.212,0,12,12,442,1,"a dimly-lit hotel room with a couch, 3 lamps, and a coffee table with a small object on it.","a dimly-lit hotel room with a couch, 3 lamps, and a coffee table with a small, dark object on it.",wolfe2,046_R_remote,1,35,A2BABL5AHUOYC7,2021-01-24_11h14.31.002,MetaAwareness,2020.1.2,Win32,60,368IUKXGA6BY46F8NWZS3N4SC5IP62,A2BABL5AHUOYC7,3EF8EXOTT2YAXT97CFNTZEMNL8P1J3,TEFE6,TEFE6,3EF8EXOTT2YAXT97CFNTZEMNL8P1J3,3EF8EXOTT2YAXT97CFNTZEMNL8P1J3,271016,271016,,,,,,,,,,
,,,,3,4.92,0,13,13,486,1,a white mantle with 4 decorations sitting on it,a white mantle with 5 decorations sitting on it,wolfe2,051_L_owl,4,35,A2BABL5AHUOYC7,2021-01-24_11h14.31.002,MetaAwareness,2020.1.2,Win32,60,368IUKXGA6BY46F8NWZS3N4SC5IP62,A2BABL5AHUOYC7,3EF8EXOTT2YAXT97CFNTZEMNL8P1J3,TEFE6,TEFE6,3EF8EXOTT2YAXT97CFNTZEMNL8P1J3,3EF8EXOTT2YAXT97CFNTZEMNL8P1J3,271016,271016,,,,,,,,,,
,,,,4,7.238,0,14,14,135,1,a meeting area with a wooden table with a hanging light above it,a meeting area with a wooden table with two hanging lights above it,wolfe2,013_R_lamp,6,35,A2BABL5AHUOYC7,2021-01-24_11h14.31.002,MetaAwareness,2020.1.2,Win32,60,368IUKXGA6BY46F8NWZS3N4SC5IP62,A2BABL5AHUOYC7,3EF8EXOTT2YAXT97CFNTZEMNL8P1J3,TEFE6,TEFE6,3EF8EXOTT2YAXT97CFNTZEMNL8P1J3,3EF8EXOTT2YAXT97CFNTZEMNL8P1J3,271016,271016,,,,,,,,,,
,,,,4,10.853,0,15,15,796,1,it is a picture of a bedroom with a bed side table to the side of the bed.,it is a picture of a bedroom with a bed side table to the side of the bed with a dish or maybe a jewelry holder under the top shelf on top of the drawer. ,wolfe2,082_R_bowl,2,35,A2BABL5AHUOYC7,2021-01-24_11h14.31.002,MetaAwareness,2020.1.2,Win32,60,368IUKXGA6BY46F8NWZS3N4SC5IP62,A2BABL5AHUOYC7,3EF8EXOTT2YAXT97CFNTZEMNL8P1J3,TEFE6,TEFE6,3EF8EXOTT2YAXT97CFNTZEMNL8P1J3,3EF8EXOTT2YAXT97CFNTZEMNL8P1J3,271016,271016,,,,,,,,,,
,,,,4,7.499,0,16,16,251,1,"a modern living room with a view of a park, white couches, and two pointy art pieces on a built-in wood shelving system","a modern living room with a view of a park, white couches, and three pointy art pieces on a built-in wood shelving system",wolfe2,025_R_vase,5,35,A2BABL5AHUOYC7,2021-01-24_11h14.31.002,MetaAwareness,2020.1.2,Win32,60,368IUKXGA6BY46F8NWZS3N4SC5IP62,A2BABL5AHUOYC7,3EF8EXOTT2YAXT97CFNTZEMNL8P1J3,TEFE6,TEFE6,3EF8EXOTT2YAXT97CFNTZEMNL8P1J3,3EF8EXOTT2YAXT97CFNTZEMNL8P1J3,271016,271016,,,,,,,,,,
,,,,1,5.091,0,17,17,22,1,no body swim in the lake,three person are swim in the lake,wolfe2,003_R_ducks,1,35,A2BABL5AHUOYC7,2021-01-24_11h14.31.002,MetaAwareness,2020.1.2,Win32,60,368IUKXGA6BY46F8NWZS3N4SC5IP62,A2BABL5AHUOYC7,3EF8EXOTT2YAXT97CFNTZEMNL8P1J3,TEFE6,TEFE6,3EF8EXOTT2YAXT97CFNTZEMNL8P1J3,3EF8EXOTT2YAXT97CFNTZEMNL8P1J3,271016,271016,,,,,,,,,,
,,,,4,6.174,0,18,18,358,1,a bathroom area with two brown towels,a bathroom area with three brown towels,wolfe2,037_R_towel,2,35,A2BABL5AHUOYC7,2021-01-24_11h14.31.002,MetaAwareness,2020.1.2,Win32,60,368IUKXGA6BY46F8NWZS3N4SC5IP62,A2BABL5AHUOYC7,3EF8EXOTT2YAXT97CFNTZEMNL8P1J3,TEFE6,TEFE6,3EF8EXOTT2YAXT97CFNTZEMNL8P1J3,3EF8EXOTT2YAXT97CFNTZEMNL8P1J3,271016,271016,,,,,,,,,,
,,,,4,7.847,0,19,19,494,1,a fancy white room with four items on the fireplace mantle,a fancy white room with five items on the fireplace mantle,wolfe2,051_R_owl,5,35,A2BABL5AHUOYC7,2021-01-24_11h14.31.002,MetaAwareness,2020.1.2,Win32,60,368IUKXGA6BY46F8NWZS3N4SC5IP62,A2BABL5AHUOYC7,3EF8EXOTT2YAXT97CFNTZEMNL8P1J3,TEFE6,TEFE6,3EF8EXOTT2YAXT97CFNTZEMNL8P1J3,3EF8EXOTT2YAXT97CFNTZEMNL8P1J3,271016,271016,,,,,,,,,,
,,,,4,9.277,0,20,20,0,1,"a bedroom with green panels on the walls, one of which has been left unadorned","a bedroom with green panels on the walls, one of which contains a small black-bordered mirror",wolfe2,001_L_mirror,1,35,A2BABL5AHUOYC7,2021-01-24_11h14.31.002,MetaAwareness,2020.1.2,Win32,60,368IUKXGA6BY46F8NWZS3N4SC5IP62,A2BABL5AHUOYC7,3EF8EXOTT2YAXT97CFNTZEMNL8P1J3,TEFE6,TEFE6,3EF8EXOTT2YAXT97CFNTZEMNL8P1J3,3EF8EXOTT2YAXT97CFNTZEMNL8P1J3,271016,271016,,,,,,,,,,
,,,,3,3.619,0,21,21,769,1,a kitchen with white cabentry and black countertops and white shelfs that are all filled with diningware except for the top shelf directly to the right of the stove.,a kitchen with white cabintry and black countertops and white shelfs that are filled with diningware.,wolfe2,079_R_bowl,1,35,A2BABL5AHUOYC7,2021-01-24_11h14.31.002,MetaAwareness,2020.1.2,Win32,60,368IUKXGA6BY46F8NWZS3N4SC5IP62,A2BABL5AHUOYC7,3EF8EXOTT2YAXT97CFNTZEMNL8P1J3,TEFE6,TEFE6,3EF8EXOTT2YAXT97CFNTZEMNL8P1J3,3EF8EXOTT2YAXT97CFNTZEMNL8P1J3,271016,271016,,,,,,,,,,
,,,,3,15.775,0,22,22,856,1,an empy hair salon with lots of charis and a security camera in the corner.,an empty hair salon with lots of empty chairs but no security camera in the corner,wolfe2,088_L_clock,1,35,A2BABL5AHUOYC7,2021-01-24_11h14.31.002,MetaAwareness,2020.1.2,Win32,60,368IUKXGA6BY46F8NWZS3N4SC5IP62,A2BABL5AHUOYC7,3EF8EXOTT2YAXT97CFNTZEMNL8P1J3,TEFE6,TEFE6,3EF8EXOTT2YAXT97CFNTZEMNL8P1J3,3EF8EXOTT2YAXT97CFNTZEMNL8P1J3,271016,271016,,,,,,,,,,
,,,,3,4.785,0,23,23,392,1,a kitchen with an empty blue bowl.,a kitchen with a bowl filled with food.,wolfe2,041_R_fruit,2,35,A2BABL5AHUOYC7,2021-01-24_11h14.31.002,MetaAwareness,2020.1.2,Win32,60,368IUKXGA6BY46F8NWZS3N4SC5IP62,A2BABL5AHUOYC7,3EF8EXOTT2YAXT97CFNTZEMNL8P1J3,TEFE6,TEFE6,3EF8EXOTT2YAXT97CFNTZEMNL8P1J3,3EF8EXOTT2YAXT97CFNTZEMNL8P1J3,271016,271016,,,,,,,,,,
,,,,4,6.665,0,24,24,752,1,a light green themed bathroom missing a handle on the faucet,a light green themed bathroom with both faucet handles present,wolfe2,078_L_faucet,1,35,A2BABL5AHUOYC7,2021-01-24_11h14.31.002,MetaAwareness,2020.1.2,Win32,60,368IUKXGA6BY46F8NWZS3N4SC5IP62,A2BABL5AHUOYC7,3EF8EXOTT2YAXT97CFNTZEMNL8P1J3,TEFE6,TEFE6,3EF8EXOTT2YAXT97CFNTZEMNL8P1J3,3EF8EXOTT2YAXT97CFNTZEMNL8P1J3,271016,271016,,,,,,,,,,
,,,,3,6.259,0,25,25,949,1,modern white bedroom with grey object on floor in front of chair.,modern white bedroom with nothing on floor in front of chair.,wolfe2,098_L_slippers,4,35,A2BABL5AHUOYC7,2021-01-24_11h14.31.002,MetaAwareness,2020.1.2,Win32,60,368IUKXGA6BY46F8NWZS3N4SC5IP62,A2BABL5AHUOYC7,3EF8EXOTT2YAXT97CFNTZEMNL8P1J3,TEFE6,TEFE6,3EF8EXOTT2YAXT97CFNTZEMNL8P1J3,3EF8EXOTT2YAXT97CFNTZEMNL8P1J3,271016,271016,,,,,,,,,,
,,,,3,2.567,0,26,26,1075,1,"a glass-enclosed sunroom with plants, a couch, a coffee table, and pottery on the floor","a glass-enclosed sunroom with a couch, a coffee table, a chair, and a potted plant on the floor",wolfe2,111_R_pot,2,35,A2BABL5AHUOYC7,2021-01-24_11h14.31.002,MetaAwareness,2020.1.2,Win32,60,368IUKXGA6BY46F8NWZS3N4SC5IP62,A2BABL5AHUOYC7,3EF8EXOTT2YAXT97CFNTZEMNL8P1J3,TEFE6,TEFE6,3EF8EXOTT2YAXT97CFNTZEMNL8P1J3,3EF8EXOTT2YAXT97CFNTZEMNL8P1J3,271016,271016,,,,,,,,,,
,,,,4,1.868,0,27,27,214,1,a modern kitchen with an island in the middle and two glass bulbous looking lights above it,a modern kitchen with an island in he middle and three glass bulbous looking lights above it,wolfe2,022_R_lamp,1,35,A2BABL5AHUOYC7,2021-01-24_11h14.31.002,MetaAwareness,2020.1.2,Win32,60,368IUKXGA6BY46F8NWZS3N4SC5IP62,A2BABL5AHUOYC7,3EF8EXOTT2YAXT97CFNTZEMNL8P1J3,TEFE6,TEFE6,3EF8EXOTT2YAXT97CFNTZEMNL8P1J3,3EF8EXOTT2YAXT97CFNTZEMNL8P1J3,271016,271016,,,,,,,,,,
,,,,4,2.97,0,28,28,83,1,"a very modern bedroom with glass walls, white floors and brown accents","a very modern bedroom with glass walls, white floors, and brown accents with a small rug under one corner of the bed",wolfe2,009_L_carpet,1,35,A2BABL5AHUOYC7,2021-01-24_11h14.31.002,MetaAwareness,2020.1.2,Win32,60,368IUKXGA6BY46F8NWZS3N4SC5IP62,A2BABL5AHUOYC7,3EF8EXOTT2YAXT97CFNTZEMNL8P1J3,TEFE6,TEFE6,3EF8EXOTT2YAXT97CFNTZEMNL8P1J3,3EF8EXOTT2YAXT97CFNTZEMNL8P1J3,271016,271016,,,,,,,,,,
,,,,3,5.48,0,29,29,1165,1,a modern bedroom with a remote on the nighstand,a modern bedroom with an empty nightstand,wolfe2,121_R_car,1,35,A2BABL5AHUOYC7,2021-01-24_11h14.31.002,MetaAwareness,2020.1.2,Win32,60,368IUKXGA6BY46F8NWZS3N4SC5IP62,A2BABL5AHUOYC7,3EF8EXOTT2YAXT97CFNTZEMNL8P1J3,TEFE6,TEFE6,3EF8EXOTT2YAXT97CFNTZEMNL8P1J3,3EF8EXOTT2YAXT97CFNTZEMNL8P1J3,271016,271016,,,,,,,,,,
,,,,,,,,,,,,,,,,35,A2BABL5AHUOYC7,2021-01-24_11h14.31.002,MetaAwareness,2020.1.2,Win32,60,368IUKXGA6BY46F8NWZS3N4SC5IP62,A2BABL5AHUOYC7,3EF8EXOTT2YAXT97CFNTZEMNL8P1J3,TEFE6,TEFE6,3EF8EXOTT2YAXT97CFNTZEMNL8P1J3,3EF8EXOTT2YAXT97CFNTZEMNL8P1J3,271016,271016,6,5.882,someone laying underneath a blue beach umbrella on a crowded beach,someone laying underneath a blue beach umbrella on a crowded beach,same,1,4.456,members of a marching band crossing a track that all have feather plumes at the front of their hats,a cluttered and rustic looking cafe with 10 hanging lights,different
