consent_response.keys,consent_response.rt,key_resp_2.keys,key_resp_2.rt,user_resp.keys,user_resp.rt,trials.thisRepN,trials.thisTrialN,trials.thisN,trials.thisIndex,trials.ran,image_1_text,image_2_text,database,image,number,age,worker_ID,date,expName,psychopyVersion,OS,frameRate,hitId,workerId,assignmentId,a,tp_a,b,tp_b,c,tp_c,catch_same_resp.keys,catch_same_resp.rt,image_1_text_catch_same,image_2_text_catch_same,image_catch_same,catch_different_resp.keys,catch_different_resp.rt,image_1_text_catch_different,image_2_text_catch_different,image_catch_different
space,36.384,space,51.619,2,5.989,0,0,0,497,1,a living room with couches facing a flat screen tv,a living room with courches facing a flat screen tv and three speakers,wolfe2,052_L_speaker,1,27,A2OD2CFXV8WT53,2021-01-24_06h36.21.811,MetaAwareness,2020.1.2,Win32,60,39O0SQZVJOA2KJ9SJY89EW438YP7RA,A2OD2CFXV8WT53,3AAJC4I4FHV7SPUFKQWLR86ZYNWZJK,4CAA6,4CAA6,3AAJC4I4FHV7SPUFKQWLR86ZYNWZJK,3AAJC4I4FHV7SPUFKQWLR86ZYNWZJK,271016,271016,,,,,,,,,,
,,,,5,9.769,0,1,1,427,1,a blue and white bathroom with a glass shower and a large jacuzzi tub that does not have any lights on the front right side,a blue and white bathroom with a glass shower and a large jacuzzitub that has a light on the front right side,wolfe2,044_R_light,4,27,A2OD2CFXV8WT53,2021-01-24_06h36.21.811,MetaAwareness,2020.1.2,Win32,60,39O0SQZVJOA2KJ9SJY89EW438YP7RA,A2OD2CFXV8WT53,3AAJC4I4FHV7SPUFKQWLR86ZYNWZJK,4CAA6,4CAA6,3AAJC4I4FHV7SPUFKQWLR86ZYNWZJK,3AAJC4I4FHV7SPUFKQWLR86ZYNWZJK,271016,271016,,,,,,,,,,
,,,,3,25.823,0,2,2,523,1,"a bed room, several thinks in cupboard , no things in the box","a bed room,several things in cupboared, a blue colr pillow inside the box",wolfe2,055_L_carpet,1,27,A2OD2CFXV8WT53,2021-01-24_06h36.21.811,MetaAwareness,2020.1.2,Win32,60,39O0SQZVJOA2KJ9SJY89EW438YP7RA,A2OD2CFXV8WT53,3AAJC4I4FHV7SPUFKQWLR86ZYNWZJK,4CAA6,4CAA6,3AAJC4I4FHV7SPUFKQWLR86ZYNWZJK,3AAJC4I4FHV7SPUFKQWLR86ZYNWZJK,271016,271016,,,,,,,,,,
,,,,4,1.975,0,3,3,914,1,"a hotel room with two beds and a painting hanging on the wall, with a wall switch on the wall between the beds","a hotel room with two beds and a painting hanging on the wall, with no wall switch on the wall between the beds",wolfe2,093_R_switch,2,27,A2OD2CFXV8WT53,2021-01-24_06h36.21.811,MetaAwareness,2020.1.2,Win32,60,39O0SQZVJOA2KJ9SJY89EW438YP7RA,A2OD2CFXV8WT53,3AAJC4I4FHV7SPUFKQWLR86ZYNWZJK,4CAA6,4CAA6,3AAJC4I4FHV7SPUFKQWLR86ZYNWZJK,3AAJC4I4FHV7SPUFKQWLR86ZYNWZJK,271016,271016,,,,,,,,,,
,,,,5,2.08,0,4,4,85,1,a bedroom without an area rug,a bedroom with an area rug,wolfe2,009_L_carpet,3,27,A2OD2CFXV8WT53,2021-01-24_06h36.21.811,MetaAwareness,2020.1.2,Win32,60,39O0SQZVJOA2KJ9SJY89EW438YP7RA,A2OD2CFXV8WT53,3AAJC4I4FHV7SPUFKQWLR86ZYNWZJK,4CAA6,4CAA6,3AAJC4I4FHV7SPUFKQWLR86ZYNWZJK,3AAJC4I4FHV7SPUFKQWLR86ZYNWZJK,271016,271016,,,,,,,,,,
,,,,4,1.765,0,5,5,1092,1,"a furnished country club lounge, the back right corner has a potted plant",a furnished country club lounge,wolfe2,113_R_plant,2,27,A2OD2CFXV8WT53,2021-01-24_06h36.21.811,MetaAwareness,2020.1.2,Win32,60,39O0SQZVJOA2KJ9SJY89EW438YP7RA,A2OD2CFXV8WT53,3AAJC4I4FHV7SPUFKQWLR86ZYNWZJK,4CAA6,4CAA6,3AAJC4I4FHV7SPUFKQWLR86ZYNWZJK,3AAJC4I4FHV7SPUFKQWLR86ZYNWZJK,271016,271016,,,,,,,,,,
,,,,3,2.637,0,6,6,282,1,a nice bathroom with two sinks and two red cups sitting on a shelf,a nice bathroom with two sinks and three red cups sitting on a shelf.,wolfe2,029_R_glass,1,27,A2OD2CFXV8WT53,2021-01-24_06h36.21.811,MetaAwareness,2020.1.2,Win32,60,39O0SQZVJOA2KJ9SJY89EW438YP7RA,A2OD2CFXV8WT53,3AAJC4I4FHV7SPUFKQWLR86ZYNWZJK,4CAA6,4CAA6,3AAJC4I4FHV7SPUFKQWLR86ZYNWZJK,3AAJC4I4FHV7SPUFKQWLR86ZYNWZJK,271016,271016,,,,,,,,,,
,,,,4,2.258,0,7,7,810,1,"a child's bedroom with a bunkbed, small green chair, square white table, shelves, and a chest of drawers including two blue drawers, one of which is missing a knob","a child's bedroom with a bunkbed, small green chair, square white table, shelves, and a chest of drawers including two blue drawers that both have knobs",wolfe2,083_R_knob,3,27,A2OD2CFXV8WT53,2021-01-24_06h36.21.811,MetaAwareness,2020.1.2,Win32,60,39O0SQZVJOA2KJ9SJY89EW438YP7RA,A2OD2CFXV8WT53,3AAJC4I4FHV7SPUFKQWLR86ZYNWZJK,4CAA6,4CAA6,3AAJC4I4FHV7SPUFKQWLR86ZYNWZJK,3AAJC4I4FHV7SPUFKQWLR86ZYNWZJK,271016,271016,,,,,,,,,,
,,,,3,2.211,0,8,8,417,1,a living room with a nothing inside a case on the wall,a living room with an object inside a cabinet,wolfe2,043_R_clock,6,27,A2OD2CFXV8WT53,2021-01-24_06h36.21.811,MetaAwareness,2020.1.2,Win32,60,39O0SQZVJOA2KJ9SJY89EW438YP7RA,A2OD2CFXV8WT53,3AAJC4I4FHV7SPUFKQWLR86ZYNWZJK,4CAA6,4CAA6,3AAJC4I4FHV7SPUFKQWLR86ZYNWZJK,3AAJC4I4FHV7SPUFKQWLR86ZYNWZJK,271016,271016,,,,,,,,,,
,,,,5,2.165,0,9,9,101,1,a fancy hotel room with dim lights,the relax area of professionals,wolfe2,010_R_candle,6,27,A2OD2CFXV8WT53,2021-01-24_06h36.21.811,MetaAwareness,2020.1.2,Win32,60,39O0SQZVJOA2KJ9SJY89EW438YP7RA,A2OD2CFXV8WT53,3AAJC4I4FHV7SPUFKQWLR86ZYNWZJK,4CAA6,4CAA6,3AAJC4I4FHV7SPUFKQWLR86ZYNWZJK,3AAJC4I4FHV7SPUFKQWLR86ZYNWZJK,271016,271016,,,,,,,,,,
,,,,6,1.947,0,10,10,1074,1,a room with windows for walls. lots of plants.f,a room with windows for walls that has a vase on the floor by one of the potted plants.,wolfe2,111_R_pot,1,27,A2OD2CFXV8WT53,2021-01-24_06h36.21.811,MetaAwareness,2020.1.2,Win32,60,39O0SQZVJOA2KJ9SJY89EW438YP7RA,A2OD2CFXV8WT53,3AAJC4I4FHV7SPUFKQWLR86ZYNWZJK,4CAA6,4CAA6,3AAJC4I4FHV7SPUFKQWLR86ZYNWZJK,3AAJC4I4FHV7SPUFKQWLR86ZYNWZJK,271016,271016,,,,,,,,,,
,,,,3,1.736,0,11,11,942,1,a small light on the wall of the bedroom,a bedroom with no light on the wall,wolfe2,097_R_light,2,27,A2OD2CFXV8WT53,2021-01-24_06h36.21.811,MetaAwareness,2020.1.2,Win32,60,39O0SQZVJOA2KJ9SJY89EW438YP7RA,A2OD2CFXV8WT53,3AAJC4I4FHV7SPUFKQWLR86ZYNWZJK,4CAA6,4CAA6,3AAJC4I4FHV7SPUFKQWLR86ZYNWZJK,3AAJC4I4FHV7SPUFKQWLR86ZYNWZJK,271016,271016,,,,,,,,,,
,,,,4,1.665,0,12,12,1125,1,a room with double glass doors and windows down one side with a house plant sitting on a small table just inside the door.,a room with double glass doors and windows down one side with a small table just inside the door,wolfe2,117_L_plant_sized,4,27,A2OD2CFXV8WT53,2021-01-24_06h36.21.811,MetaAwareness,2020.1.2,Win32,60,39O0SQZVJOA2KJ9SJY89EW438YP7RA,A2OD2CFXV8WT53,3AAJC4I4FHV7SPUFKQWLR86ZYNWZJK,4CAA6,4CAA6,3AAJC4I4FHV7SPUFKQWLR86ZYNWZJK,3AAJC4I4FHV7SPUFKQWLR86ZYNWZJK,271016,271016,,,,,,,,,,
,,,,3,2.422,0,13,13,912,1,a drab hotel room with two electrical outlets.,a drab hotel room with only one electrical outlet.,wolfe2,093_L_switch,9,27,A2OD2CFXV8WT53,2021-01-24_06h36.21.811,MetaAwareness,2020.1.2,Win32,60,39O0SQZVJOA2KJ9SJY89EW438YP7RA,A2OD2CFXV8WT53,3AAJC4I4FHV7SPUFKQWLR86ZYNWZJK,4CAA6,4CAA6,3AAJC4I4FHV7SPUFKQWLR86ZYNWZJK,3AAJC4I4FHV7SPUFKQWLR86ZYNWZJK,271016,271016,,,,,,,,,,
,,,,2,1.382,0,14,14,717,1,a coffee table in middle of living room,a book is sitting on a table,wolfe2,074_R_book,7,27,A2OD2CFXV8WT53,2021-01-24_06h36.21.811,MetaAwareness,2020.1.2,Win32,60,39O0SQZVJOA2KJ9SJY89EW438YP7RA,A2OD2CFXV8WT53,3AAJC4I4FHV7SPUFKQWLR86ZYNWZJK,4CAA6,4CAA6,3AAJC4I4FHV7SPUFKQWLR86ZYNWZJK,3AAJC4I4FHV7SPUFKQWLR86ZYNWZJK,271016,271016,,,,,,,,,,
,,,,4,2.522,0,15,15,786,1,an office with a black stand shelf unit beside a credenza,an office with a black stand shelf unit beside a credenza and a soccer ball behind the shelf,wolfe2,081_L_football,5,27,A2OD2CFXV8WT53,2021-01-24_06h36.21.811,MetaAwareness,2020.1.2,Win32,60,39O0SQZVJOA2KJ9SJY89EW438YP7RA,A2OD2CFXV8WT53,3AAJC4I4FHV7SPUFKQWLR86ZYNWZJK,4CAA6,4CAA6,3AAJC4I4FHV7SPUFKQWLR86ZYNWZJK,3AAJC4I4FHV7SPUFKQWLR86ZYNWZJK,271016,271016,,,,,,,,,,
,,,,5,2.464,0,16,16,14,1,a set table that is missing one orange napkin in a dining hall,a set table with orange napkins on all settings in a dining hall,wolfe2,002_R_napkin,1,27,A2OD2CFXV8WT53,2021-01-24_06h36.21.811,MetaAwareness,2020.1.2,Win32,60,39O0SQZVJOA2KJ9SJY89EW438YP7RA,A2OD2CFXV8WT53,3AAJC4I4FHV7SPUFKQWLR86ZYNWZJK,4CAA6,4CAA6,3AAJC4I4FHV7SPUFKQWLR86ZYNWZJK,3AAJC4I4FHV7SPUFKQWLR86ZYNWZJK,271016,271016,,,,,,,,,,
,,,,4,1.973,0,17,17,1090,1,a sun room area with a plant displayed in the corner,a sun room area with a plant not displayed in the corner,wolfe2,113_L_plant,4,27,A2OD2CFXV8WT53,2021-01-24_06h36.21.811,MetaAwareness,2020.1.2,Win32,60,39O0SQZVJOA2KJ9SJY89EW438YP7RA,A2OD2CFXV8WT53,3AAJC4I4FHV7SPUFKQWLR86ZYNWZJK,4CAA6,4CAA6,3AAJC4I4FHV7SPUFKQWLR86ZYNWZJK,3AAJC4I4FHV7SPUFKQWLR86ZYNWZJK,271016,271016,,,,,,,,,,
,,,,3,1.298,0,18,18,991,1,a hook provides a place for robes and towels in a beautiful and clean bathroom.,taupe walls work perfectly in this beautiful and clean bathroom.,wolfe2,103_L_hook,1,27,A2OD2CFXV8WT53,2021-01-24_06h36.21.811,MetaAwareness,2020.1.2,Win32,60,39O0SQZVJOA2KJ9SJY89EW438YP7RA,A2OD2CFXV8WT53,3AAJC4I4FHV7SPUFKQWLR86ZYNWZJK,4CAA6,4CAA6,3AAJC4I4FHV7SPUFKQWLR86ZYNWZJK,3AAJC4I4FHV7SPUFKQWLR86ZYNWZJK,271016,271016,,,,,,,,,,
,,,,4,1.319,0,19,19,615,1,a dinnig room with large table and six chairs around. there is a mirror on the wall without bottle of wine at the desk beneath the mirror,a dinning room with large table and six chairs around. there is a mirror on the wall with bottle of wine at the dessk beneath the mirror,wolfe2,064_L_bottles,4,27,A2OD2CFXV8WT53,2021-01-24_06h36.21.811,MetaAwareness,2020.1.2,Win32,60,39O0SQZVJOA2KJ9SJY89EW438YP7RA,A2OD2CFXV8WT53,3AAJC4I4FHV7SPUFKQWLR86ZYNWZJK,4CAA6,4CAA6,3AAJC4I4FHV7SPUFKQWLR86ZYNWZJK,3AAJC4I4FHV7SPUFKQWLR86ZYNWZJK,271016,271016,,,,,,,,,,
,,,,5,1.363,0,20,20,177,1,a red chair placed on the corner with a plant next to it.,a red chair placed on the corner.,wolfe2,018_L_plant,6,27,A2OD2CFXV8WT53,2021-01-24_06h36.21.811,MetaAwareness,2020.1.2,Win32,60,39O0SQZVJOA2KJ9SJY89EW438YP7RA,A2OD2CFXV8WT53,3AAJC4I4FHV7SPUFKQWLR86ZYNWZJK,4CAA6,4CAA6,3AAJC4I4FHV7SPUFKQWLR86ZYNWZJK,3AAJC4I4FHV7SPUFKQWLR86ZYNWZJK,271016,271016,,,,,,,,,,
,,,,4,1.508,0,21,21,201,1,a home office without a keyboard,a home office with a keyboard,wolfe2,021_L_keyboard,4,27,A2OD2CFXV8WT53,2021-01-24_06h36.21.811,MetaAwareness,2020.1.2,Win32,60,39O0SQZVJOA2KJ9SJY89EW438YP7RA,A2OD2CFXV8WT53,3AAJC4I4FHV7SPUFKQWLR86ZYNWZJK,4CAA6,4CAA6,3AAJC4I4FHV7SPUFKQWLR86ZYNWZJK,3AAJC4I4FHV7SPUFKQWLR86ZYNWZJK,271016,271016,,,,,,,,,,
,,,,4,2.08,0,22,22,1082,1,old living room with a basket by small chair,old living room decorated in flower patterns,wolfe2,112_L_basket,4,27,A2OD2CFXV8WT53,2021-01-24_06h36.21.811,MetaAwareness,2020.1.2,Win32,60,39O0SQZVJOA2KJ9SJY89EW438YP7RA,A2OD2CFXV8WT53,3AAJC4I4FHV7SPUFKQWLR86ZYNWZJK,4CAA6,4CAA6,3AAJC4I4FHV7SPUFKQWLR86ZYNWZJK,3AAJC4I4FHV7SPUFKQWLR86ZYNWZJK,271016,271016,,,,,,,,,,
,,,,5,1.319,0,23,23,1006,1,a luxurious and bright sitting area decorated with drinks and candle lights,a luxurious and bright sitting area decorated with candle lights and empty tables,wolfe2,104_L_bottle,6,27,A2OD2CFXV8WT53,2021-01-24_06h36.21.811,MetaAwareness,2020.1.2,Win32,60,39O0SQZVJOA2KJ9SJY89EW438YP7RA,A2OD2CFXV8WT53,3AAJC4I4FHV7SPUFKQWLR86ZYNWZJK,4CAA6,4CAA6,3AAJC4I4FHV7SPUFKQWLR86ZYNWZJK,3AAJC4I4FHV7SPUFKQWLR86ZYNWZJK,271016,271016,,,,,,,,,,
,,,,3,1.421,0,24,24,905,1,a hotel room with two beds and a plug next to each bed.,a hotel room with two beds and a plug next to one of the beds,wolfe2,093_L_switch,2,27,A2OD2CFXV8WT53,2021-01-24_06h36.21.811,MetaAwareness,2020.1.2,Win32,60,39O0SQZVJOA2KJ9SJY89EW438YP7RA,A2OD2CFXV8WT53,3AAJC4I4FHV7SPUFKQWLR86ZYNWZJK,4CAA6,4CAA6,3AAJC4I4FHV7SPUFKQWLR86ZYNWZJK,3AAJC4I4FHV7SPUFKQWLR86ZYNWZJK,271016,271016,,,,,,,,,,
,,,,5,1.818,0,25,25,839,1,a room with a table set the joins a sitting area with a white item in the distance,a room with a table set that joins a sitting area with a dark colored item in the distance,wolfe2,086_L_book,2,27,A2OD2CFXV8WT53,2021-01-24_06h36.21.811,MetaAwareness,2020.1.2,Win32,60,39O0SQZVJOA2KJ9SJY89EW438YP7RA,A2OD2CFXV8WT53,3AAJC4I4FHV7SPUFKQWLR86ZYNWZJK,4CAA6,4CAA6,3AAJC4I4FHV7SPUFKQWLR86ZYNWZJK,3AAJC4I4FHV7SPUFKQWLR86ZYNWZJK,271016,271016,,,,,,,,,,
,,,,4,1.729,0,26,26,570,1,neutral colored living room with 3 beige pillows on the couch and one black,neutral colored living room with 3 beige pillows on the couch and two black pillows,wolfe2,060_L_pillow,1,27,A2OD2CFXV8WT53,2021-01-24_06h36.21.811,MetaAwareness,2020.1.2,Win32,60,39O0SQZVJOA2KJ9SJY89EW438YP7RA,A2OD2CFXV8WT53,3AAJC4I4FHV7SPUFKQWLR86ZYNWZJK,4CAA6,4CAA6,3AAJC4I4FHV7SPUFKQWLR86ZYNWZJK,3AAJC4I4FHV7SPUFKQWLR86ZYNWZJK,271016,271016,,,,,,,,,,
,,,,3,1.42,0,27,27,848,1,a very messy bathroom with a crowded sink area and a large ring on the wall between the sink and toilet.,a very messy bathroom with a crowded sink area and nothing hanging on the lower left wall.,wolfe2,087_L_towelhandle,1,27,A2OD2CFXV8WT53,2021-01-24_06h36.21.811,MetaAwareness,2020.1.2,Win32,60,39O0SQZVJOA2KJ9SJY89EW438YP7RA,A2OD2CFXV8WT53,3AAJC4I4FHV7SPUFKQWLR86ZYNWZJK,4CAA6,4CAA6,3AAJC4I4FHV7SPUFKQWLR86ZYNWZJK,3AAJC4I4FHV7SPUFKQWLR86ZYNWZJK,271016,271016,,,,,,,,,,
,,,,4,2.051,0,28,28,703,1,a large morden kitchen with white cabintry and a large island in the middle as well as some flowers by the appliances,a large modern kitchen with white cabintry and a large island in the middle as well as some flowers by the appliances.,wolfe2,073_R_coffeemug,1,27,A2OD2CFXV8WT53,2021-01-24_06h36.21.811,MetaAwareness,2020.1.2,Win32,60,39O0SQZVJOA2KJ9SJY89EW438YP7RA,A2OD2CFXV8WT53,3AAJC4I4FHV7SPUFKQWLR86ZYNWZJK,4CAA6,4CAA6,3AAJC4I4FHV7SPUFKQWLR86ZYNWZJK,3AAJC4I4FHV7SPUFKQWLR86ZYNWZJK,271016,271016,,,,,,,,,,
,,,,5,1.453,0,29,29,271,1,a black bathroom countertop with a metal block sitting on top,a black bathroom countertop with two metal blocks sitting on top,wolfe2,028_L_vase,3,27,A2OD2CFXV8WT53,2021-01-24_06h36.21.811,MetaAwareness,2020.1.2,Win32,60,39O0SQZVJOA2KJ9SJY89EW438YP7RA,A2OD2CFXV8WT53,3AAJC4I4FHV7SPUFKQWLR86ZYNWZJK,4CAA6,4CAA6,3AAJC4I4FHV7SPUFKQWLR86ZYNWZJK,3AAJC4I4FHV7SPUFKQWLR86ZYNWZJK,271016,271016,,,,,,,,,,
,,,,,,,,,,,,,,,,27,A2OD2CFXV8WT53,2021-01-24_06h36.21.811,MetaAwareness,2020.1.2,Win32,60,39O0SQZVJOA2KJ9SJY89EW438YP7RA,A2OD2CFXV8WT53,3AAJC4I4FHV7SPUFKQWLR86ZYNWZJK,4CAA6,4CAA6,3AAJC4I4FHV7SPUFKQWLR86ZYNWZJK,3AAJC4I4FHV7SPUFKQWLR86ZYNWZJK,271016,271016,4,1.502,someone laying underneath a blue beach umbrella on a crowded beach,someone laying underneath a blue beach umbrella on a crowded beach,same,5,1.318,members of a marching band crossing a track that all have feather plumes at the front of their hats,a cluttered and rustic looking cafe with 10 hanging lights,different
