consent_response.keys,consent_response.rt,key_resp_2.keys,key_resp_2.rt,user_resp.keys,user_resp.rt,trials.thisRepN,trials.thisTrialN,trials.thisN,trials.thisIndex,trials.ran,image_1_text,image_2_text,database,image,number,age,worker_ID,date,expName,psychopyVersion,OS,frameRate,hitId,workerId,assignmentId,a,tp_a,b,tp_b,c,tp_c,catch_same_resp.keys,catch_same_resp.rt,image_1_text_catch_same,image_2_text_catch_same,image_catch_same,catch_different_resp.keys,catch_different_resp.rt,image_1_text_catch_different,image_2_text_catch_different,image_catch_different
space,16.7191,space,33.295955,5,43.569635,0,0,0,184,1,an outside patio of a modern designed home with one outdoor light.,an outside patio of a modern designed home with two outdoor lights.,wolfe2,019_L_lamp_sized,3,60,A2TCX20FIMNWSS,2021-01-24_08h34.15.938,MetaAwareness,2020.1.2,Win32,60,39O0SQZVJOA2KJ9SJY89EW438YP7RA,A2TCX20FIMNWSS,3FE2ERCCZYBRFWJ6DUQO86L7NIZOP7,CEEF6,CEEF6,3FE2ERCCZYBRFWJ6DUQO86L7NIZOP7,3FE2ERCCZYBRFWJ6DUQO86L7NIZOP7,271016,271016,,,,,,,,,,
,,,,3,17.981275,0,1,1,614,1,dining room with 6 chairs,dining room with wine bottles on desk in the back,wolfe2,064_L_bottles,3,60,A2TCX20FIMNWSS,2021-01-24_08h34.15.938,MetaAwareness,2020.1.2,Win32,60,39O0SQZVJOA2KJ9SJY89EW438YP7RA,A2TCX20FIMNWSS,3FE2ERCCZYBRFWJ6DUQO86L7NIZOP7,CEEF6,CEEF6,3FE2ERCCZYBRFWJ6DUQO86L7NIZOP7,3FE2ERCCZYBRFWJ6DUQO86L7NIZOP7,271016,271016,,,,,,,,,,
,,,,5,26.35241,0,2,2,660,1,"a bathroom with a rectangular white sink basin, a black bathtub, two mirrors, and one faucet over the bathtub","a bathroom with a rectangular white sink basin, a black bathtub, two mirrors, and two faucets over the bathtub",wolfe2,068_R_faucet,2,60,A2TCX20FIMNWSS,2021-01-24_08h34.15.938,MetaAwareness,2020.1.2,Win32,60,39O0SQZVJOA2KJ9SJY89EW438YP7RA,A2TCX20FIMNWSS,3FE2ERCCZYBRFWJ6DUQO86L7NIZOP7,CEEF6,CEEF6,3FE2ERCCZYBRFWJ6DUQO86L7NIZOP7,3FE2ERCCZYBRFWJ6DUQO86L7NIZOP7,271016,271016,,,,,,,,,,
,,,,2,31.6598,0,3,3,324,1,the bedroom is very clean and good thedryes are missed the lock,the bedroom dryes are not missed ,wolfe2,034_L_handle,1,60,A2TCX20FIMNWSS,2021-01-24_08h34.15.938,MetaAwareness,2020.1.2,Win32,60,39O0SQZVJOA2KJ9SJY89EW438YP7RA,A2TCX20FIMNWSS,3FE2ERCCZYBRFWJ6DUQO86L7NIZOP7,CEEF6,CEEF6,3FE2ERCCZYBRFWJ6DUQO86L7NIZOP7,3FE2ERCCZYBRFWJ6DUQO86L7NIZOP7,271016,271016,,,,,,,,,,
,,,,4,26.039925,0,4,4,430,1,"a bedroom with yellow carpeting and walls, and an empty black table next to the bed","a bedroom with yellow carpeting and walls, and several electronic devices on a black table next to the bed",wolfe2,045_L_musicdock,2,60,A2TCX20FIMNWSS,2021-01-24_08h34.15.938,MetaAwareness,2020.1.2,Win32,60,39O0SQZVJOA2KJ9SJY89EW438YP7RA,A2TCX20FIMNWSS,3FE2ERCCZYBRFWJ6DUQO86L7NIZOP7,CEEF6,CEEF6,3FE2ERCCZYBRFWJ6DUQO86L7NIZOP7,3FE2ERCCZYBRFWJ6DUQO86L7NIZOP7,271016,271016,,,,,,,,,,
,,,,3,31.84361,0,5,5,843,1,a living room with a box on the table,a living room without a box on the table,wolfe2,086_R_book,1,60,A2TCX20FIMNWSS,2021-01-24_08h34.15.938,MetaAwareness,2020.1.2,Win32,60,39O0SQZVJOA2KJ9SJY89EW438YP7RA,A2TCX20FIMNWSS,3FE2ERCCZYBRFWJ6DUQO86L7NIZOP7,CEEF6,CEEF6,3FE2ERCCZYBRFWJ6DUQO86L7NIZOP7,3FE2ERCCZYBRFWJ6DUQO86L7NIZOP7,271016,271016,,,,,,,,,,
,,,,5,17.13402,0,6,6,141,1,a commercial area with tables and chairs and three lights on the walls,a commercial area with tables and chairs and four lights on the walls,wolfe2,014_R_lamp,2,60,A2TCX20FIMNWSS,2021-01-24_08h34.15.938,MetaAwareness,2020.1.2,Win32,60,39O0SQZVJOA2KJ9SJY89EW438YP7RA,A2TCX20FIMNWSS,3FE2ERCCZYBRFWJ6DUQO86L7NIZOP7,CEEF6,CEEF6,3FE2ERCCZYBRFWJ6DUQO86L7NIZOP7,3FE2ERCCZYBRFWJ6DUQO86L7NIZOP7,271016,271016,,,,,,,,,,
,,,,5,25.888575,0,7,7,1062,1,"a sitting room located adjacent to a large pool containing many windows and two houseplants, one on the floor and the other on the coffee table",a sitting room located adjacent to a large pool containing many windows and one houseplant on the coffee table,wolfe2,110_L_plant,3,60,A2TCX20FIMNWSS,2021-01-24_08h34.15.938,MetaAwareness,2020.1.2,Win32,60,39O0SQZVJOA2KJ9SJY89EW438YP7RA,A2TCX20FIMNWSS,3FE2ERCCZYBRFWJ6DUQO86L7NIZOP7,CEEF6,CEEF6,3FE2ERCCZYBRFWJ6DUQO86L7NIZOP7,3FE2ERCCZYBRFWJ6DUQO86L7NIZOP7,271016,271016,,,,,,,,,,
,,,,5,19.57307,0,8,8,769,1,a kitchen with white cabentry and black countertops and white shelfs that are all filled with diningware except for the top shelf directly to the right of the stove.,a kitchen with white cabintry and black countertops and white shelfs that are filled with diningware.,wolfe2,079_R_bowl,1,60,A2TCX20FIMNWSS,2021-01-24_08h34.15.938,MetaAwareness,2020.1.2,Win32,60,39O0SQZVJOA2KJ9SJY89EW438YP7RA,A2TCX20FIMNWSS,3FE2ERCCZYBRFWJ6DUQO86L7NIZOP7,CEEF6,CEEF6,3FE2ERCCZYBRFWJ6DUQO86L7NIZOP7,3FE2ERCCZYBRFWJ6DUQO86L7NIZOP7,271016,271016,,,,,,,,,,
,,,,6,6.14283,0,9,9,445,1,mini pot has,mini pot has,wolfe2,046_R_remote,4,60,A2TCX20FIMNWSS,2021-01-24_08h34.15.938,MetaAwareness,2020.1.2,Win32,60,39O0SQZVJOA2KJ9SJY89EW438YP7RA,A2TCX20FIMNWSS,3FE2ERCCZYBRFWJ6DUQO86L7NIZOP7,CEEF6,CEEF6,3FE2ERCCZYBRFWJ6DUQO86L7NIZOP7,3FE2ERCCZYBRFWJ6DUQO86L7NIZOP7,271016,271016,,,,,,,,,,
,,,,6,12.144,0,10,10,792,1,bed room with hot and pillow.  a light and class is present .  there is a televison present in the box,"a bed room with hot  and pillow, a light and class is present.  there is a television is present in the box",wolfe2,082_L_bowl,2,60,A2TCX20FIMNWSS,2021-01-24_08h34.15.938,MetaAwareness,2020.1.2,Win32,60,39O0SQZVJOA2KJ9SJY89EW438YP7RA,A2TCX20FIMNWSS,3FE2ERCCZYBRFWJ6DUQO86L7NIZOP7,CEEF6,CEEF6,3FE2ERCCZYBRFWJ6DUQO86L7NIZOP7,3FE2ERCCZYBRFWJ6DUQO86L7NIZOP7,271016,271016,,,,,,,,,,
,,,,5,13.33005,0,11,11,1044,1,a walk in closet with a lot of clothing and a dresser off to the side. ,a walk in closer with a lot of clothing and a dresser off to the side with a little blue ball on it,wolfe2,108_L_boa,1,60,A2TCX20FIMNWSS,2021-01-24_08h34.15.938,MetaAwareness,2020.1.2,Win32,60,39O0SQZVJOA2KJ9SJY89EW438YP7RA,A2TCX20FIMNWSS,3FE2ERCCZYBRFWJ6DUQO86L7NIZOP7,CEEF6,CEEF6,3FE2ERCCZYBRFWJ6DUQO86L7NIZOP7,3FE2ERCCZYBRFWJ6DUQO86L7NIZOP7,271016,271016,,,,,,,,,,
,,,,4,18.752295,0,12,12,435,1,a modern bedroom with an empty nightstand,a modern bedroom with a phone on the nightstand,wolfe2,045_R_musicdock,2,60,A2TCX20FIMNWSS,2021-01-24_08h34.15.938,MetaAwareness,2020.1.2,Win32,60,39O0SQZVJOA2KJ9SJY89EW438YP7RA,A2TCX20FIMNWSS,3FE2ERCCZYBRFWJ6DUQO86L7NIZOP7,CEEF6,CEEF6,3FE2ERCCZYBRFWJ6DUQO86L7NIZOP7,3FE2ERCCZYBRFWJ6DUQO86L7NIZOP7,271016,271016,,,,,,,,,,
,,,,4,12.243885,0,13,13,463,1,a fancy bedroom with a short glass sculpture to the right of the mirror,a fancy bedroom with a tall glass sculpture to the right of the mirror,wolfe2,048_R_art,2,60,A2TCX20FIMNWSS,2021-01-24_08h34.15.938,MetaAwareness,2020.1.2,Win32,60,39O0SQZVJOA2KJ9SJY89EW438YP7RA,A2TCX20FIMNWSS,3FE2ERCCZYBRFWJ6DUQO86L7NIZOP7,CEEF6,CEEF6,3FE2ERCCZYBRFWJ6DUQO86L7NIZOP7,3FE2ERCCZYBRFWJ6DUQO86L7NIZOP7,271016,271016,,,,,,,,,,
,,,,3,9.575635,0,14,14,1233,1,a home office with a plant on the desk,a home office without a plant on the desk,wolfe2,128_L_pot,4,60,A2TCX20FIMNWSS,2021-01-24_08h34.15.938,MetaAwareness,2020.1.2,Win32,60,39O0SQZVJOA2KJ9SJY89EW438YP7RA,A2TCX20FIMNWSS,3FE2ERCCZYBRFWJ6DUQO86L7NIZOP7,CEEF6,CEEF6,3FE2ERCCZYBRFWJ6DUQO86L7NIZOP7,3FE2ERCCZYBRFWJ6DUQO86L7NIZOP7,271016,271016,,,,,,,,,,
,,,,5,13.616605,0,15,15,343,1,"a bedroom with some tables and a couple of lamps, and a long table with two vases on it","a bedroom with some tables and a couple of lamps, and a long table with two vases and a small art object on it",wolfe2,035_R_fruit,4,60,A2TCX20FIMNWSS,2021-01-24_08h34.15.938,MetaAwareness,2020.1.2,Win32,60,39O0SQZVJOA2KJ9SJY89EW438YP7RA,A2TCX20FIMNWSS,3FE2ERCCZYBRFWJ6DUQO86L7NIZOP7,CEEF6,CEEF6,3FE2ERCCZYBRFWJ6DUQO86L7NIZOP7,3FE2ERCCZYBRFWJ6DUQO86L7NIZOP7,271016,271016,,,,,,,,,,
,,,,2,13.522235,0,16,16,761,1,there is no water handle,a water handle is installed,wolfe2,078_R_faucet,4,60,A2TCX20FIMNWSS,2021-01-24_08h34.15.938,MetaAwareness,2020.1.2,Win32,60,39O0SQZVJOA2KJ9SJY89EW438YP7RA,A2TCX20FIMNWSS,3FE2ERCCZYBRFWJ6DUQO86L7NIZOP7,CEEF6,CEEF6,3FE2ERCCZYBRFWJ6DUQO86L7NIZOP7,3FE2ERCCZYBRFWJ6DUQO86L7NIZOP7,271016,271016,,,,,,,,,,
,,,,5,10.835835,0,17,17,438,1,"a dingy yellowish hotel room with sofa, chairs, three lamps and a glass coffee table.","a dingy yellowish hotel room with sofa, chairs, three lamps and a glass coffee table with a wine glass on top.",wolfe2,046_L_remote,1,60,A2TCX20FIMNWSS,2021-01-24_08h34.15.938,MetaAwareness,2020.1.2,Win32,60,39O0SQZVJOA2KJ9SJY89EW438YP7RA,A2TCX20FIMNWSS,3FE2ERCCZYBRFWJ6DUQO86L7NIZOP7,CEEF6,CEEF6,3FE2ERCCZYBRFWJ6DUQO86L7NIZOP7,3FE2ERCCZYBRFWJ6DUQO86L7NIZOP7,271016,271016,,,,,,,,,,
,,,,5,11.830155,0,18,18,1132,1,a rustic looking living room area that looks outside onto a patio with a pair of shoes in front of the planter,a rustic looking living room area that looks outside onto a patio,wolfe2,118_L_shoes,2,60,A2TCX20FIMNWSS,2021-01-24_08h34.15.938,MetaAwareness,2020.1.2,Win32,60,39O0SQZVJOA2KJ9SJY89EW438YP7RA,A2TCX20FIMNWSS,3FE2ERCCZYBRFWJ6DUQO86L7NIZOP7,CEEF6,CEEF6,3FE2ERCCZYBRFWJ6DUQO86L7NIZOP7,3FE2ERCCZYBRFWJ6DUQO86L7NIZOP7,271016,271016,,,,,,,,,,
,,,,5,12.963485,0,19,19,1094,1,an open lounge with a small tree near large windows,an open lounge with large windows,wolfe2,113_R_plant,4,60,A2TCX20FIMNWSS,2021-01-24_08h34.15.938,MetaAwareness,2020.1.2,Win32,60,39O0SQZVJOA2KJ9SJY89EW438YP7RA,A2TCX20FIMNWSS,3FE2ERCCZYBRFWJ6DUQO86L7NIZOP7,CEEF6,CEEF6,3FE2ERCCZYBRFWJ6DUQO86L7NIZOP7,3FE2ERCCZYBRFWJ6DUQO86L7NIZOP7,271016,271016,,,,,,,,,,
,,,,2,8.62832,0,20,20,380,1,a clear wall,a picture hang on the wall,wolfe2,040_L_painting,3,60,A2TCX20FIMNWSS,2021-01-24_08h34.15.938,MetaAwareness,2020.1.2,Win32,60,39O0SQZVJOA2KJ9SJY89EW438YP7RA,A2TCX20FIMNWSS,3FE2ERCCZYBRFWJ6DUQO86L7NIZOP7,CEEF6,CEEF6,3FE2ERCCZYBRFWJ6DUQO86L7NIZOP7,3FE2ERCCZYBRFWJ6DUQO86L7NIZOP7,271016,271016,,,,,,,,,,
,,,,4,13.06327,0,21,21,1192,1,meeting room with window wall and white chairs and white vase on floor,"meeting room with window wall, white furtniture, and blue rug",wolfe2,124_L_vase,3,60,A2TCX20FIMNWSS,2021-01-24_08h34.15.938,MetaAwareness,2020.1.2,Win32,60,39O0SQZVJOA2KJ9SJY89EW438YP7RA,A2TCX20FIMNWSS,3FE2ERCCZYBRFWJ6DUQO86L7NIZOP7,CEEF6,CEEF6,3FE2ERCCZYBRFWJ6DUQO86L7NIZOP7,3FE2ERCCZYBRFWJ6DUQO86L7NIZOP7,271016,271016,,,,,,,,,,
,,,,4,24.37949,0,22,22,455,1,there is a desk in a well-appointed guest room.,a missing drawer-pull is added to a desk in the well-appointed guest room.,wolfe2,047_R_handle,5,60,A2TCX20FIMNWSS,2021-01-24_08h34.15.938,MetaAwareness,2020.1.2,Win32,60,39O0SQZVJOA2KJ9SJY89EW438YP7RA,A2TCX20FIMNWSS,3FE2ERCCZYBRFWJ6DUQO86L7NIZOP7,CEEF6,CEEF6,3FE2ERCCZYBRFWJ6DUQO86L7NIZOP7,3FE2ERCCZYBRFWJ6DUQO86L7NIZOP7,271016,271016,,,,,,,,,,
,,,,3,18.912945,0,23,23,1025,1,a restroom with two wide mirros and one paper towel dispenser on the wall next to the door,a restroom with two wide mirrors and without one paper towel dispenser on the wall next to the door,wolfe2,106_L_toweldispenser,6,60,A2TCX20FIMNWSS,2021-01-24_08h34.15.938,MetaAwareness,2020.1.2,Win32,60,39O0SQZVJOA2KJ9SJY89EW438YP7RA,A2TCX20FIMNWSS,3FE2ERCCZYBRFWJ6DUQO86L7NIZOP7,CEEF6,CEEF6,3FE2ERCCZYBRFWJ6DUQO86L7NIZOP7,3FE2ERCCZYBRFWJ6DUQO86L7NIZOP7,271016,271016,,,,,,,,,,
,,,,5,12.997555,0,24,24,319,1,"a living room with a modern and minimalistic feel, that includes a shelf with a lamp and a book","a living room with a modern and minimalistic feel, that includes a shelf with a lamp, a clear vase, and a book",wolfe2,033_L_vase,4,60,A2TCX20FIMNWSS,2021-01-24_08h34.15.938,MetaAwareness,2020.1.2,Win32,60,39O0SQZVJOA2KJ9SJY89EW438YP7RA,A2TCX20FIMNWSS,3FE2ERCCZYBRFWJ6DUQO86L7NIZOP7,CEEF6,CEEF6,3FE2ERCCZYBRFWJ6DUQO86L7NIZOP7,3FE2ERCCZYBRFWJ6DUQO86L7NIZOP7,271016,271016,,,,,,,,,,
,,,,5,34.278515,0,25,25,985,1,a brightly lit sitting room decorated in white with a small white and brown side table beside a bag on the floor,a brightly lit sitting room decorated in white with a bag on the floor,wolfe2,102_L_shoppingbag,3,60,A2TCX20FIMNWSS,2021-01-24_08h34.15.938,MetaAwareness,2020.1.2,Win32,60,39O0SQZVJOA2KJ9SJY89EW438YP7RA,A2TCX20FIMNWSS,3FE2ERCCZYBRFWJ6DUQO86L7NIZOP7,CEEF6,CEEF6,3FE2ERCCZYBRFWJ6DUQO86L7NIZOP7,3FE2ERCCZYBRFWJ6DUQO86L7NIZOP7,271016,271016,,,,,,,,,,
,,,,5,10.60925,0,26,26,1154,1,a living room with trees outside the window with a fireplace that has a mantle with flowers in the middle and 2 decorative pieces on either size,a living room with trees outside the window with a fireplace that has a mantle with flowers in the middle and 1 decorative piece on the right side,wolfe2,120_L_art,3,60,A2TCX20FIMNWSS,2021-01-24_08h34.15.938,MetaAwareness,2020.1.2,Win32,60,39O0SQZVJOA2KJ9SJY89EW438YP7RA,A2TCX20FIMNWSS,3FE2ERCCZYBRFWJ6DUQO86L7NIZOP7,CEEF6,CEEF6,3FE2ERCCZYBRFWJ6DUQO86L7NIZOP7,3FE2ERCCZYBRFWJ6DUQO86L7NIZOP7,271016,271016,,,,,,,,,,
,,,,5,9.23768,0,27,27,847,1,a large open dining room and living room with a light colored rolled up towel on a table,a large open dining room and living room with a dark colored rolled up towel on a table,wolfe2,086_R_book,5,60,A2TCX20FIMNWSS,2021-01-24_08h34.15.938,MetaAwareness,2020.1.2,Win32,60,39O0SQZVJOA2KJ9SJY89EW438YP7RA,A2TCX20FIMNWSS,3FE2ERCCZYBRFWJ6DUQO86L7NIZOP7,CEEF6,CEEF6,3FE2ERCCZYBRFWJ6DUQO86L7NIZOP7,3FE2ERCCZYBRFWJ6DUQO86L7NIZOP7,271016,271016,,,,,,,,,,
,,,,4,10.068345,0,28,28,1205,1,a large open living room with lots of seating and a small end table by a couch,a large open living room with lots of seating,wolfe2,125_L_sofa,6,60,A2TCX20FIMNWSS,2021-01-24_08h34.15.938,MetaAwareness,2020.1.2,Win32,60,39O0SQZVJOA2KJ9SJY89EW438YP7RA,A2TCX20FIMNWSS,3FE2ERCCZYBRFWJ6DUQO86L7NIZOP7,CEEF6,CEEF6,3FE2ERCCZYBRFWJ6DUQO86L7NIZOP7,3FE2ERCCZYBRFWJ6DUQO86L7NIZOP7,271016,271016,,,,,,,,,,
,,,,3,21.516505,0,29,29,645,1,an empty board room decorated well with 10 chairs but missing a framed picture on the table. ,"and empty board room decorated well with 10 chairs, with a framed picture on the table",wolfe2,067_L_painting,2,60,A2TCX20FIMNWSS,2021-01-24_08h34.15.938,MetaAwareness,2020.1.2,Win32,60,39O0SQZVJOA2KJ9SJY89EW438YP7RA,A2TCX20FIMNWSS,3FE2ERCCZYBRFWJ6DUQO86L7NIZOP7,CEEF6,CEEF6,3FE2ERCCZYBRFWJ6DUQO86L7NIZOP7,3FE2ERCCZYBRFWJ6DUQO86L7NIZOP7,271016,271016,,,,,,,,,,
,,,,,,,,,,,,,,,,60,A2TCX20FIMNWSS,2021-01-24_08h34.15.938,MetaAwareness,2020.1.2,Win32,60,39O0SQZVJOA2KJ9SJY89EW438YP7RA,A2TCX20FIMNWSS,3FE2ERCCZYBRFWJ6DUQO86L7NIZOP7,CEEF6,CEEF6,3FE2ERCCZYBRFWJ6DUQO86L7NIZOP7,3FE2ERCCZYBRFWJ6DUQO86L7NIZOP7,271016,271016,6,14.2361,someone laying underneath a blue beach umbrella on a crowded beach,someone laying underneath a blue beach umbrella on a crowded beach,same,1,9.207115,members of a marching band crossing a track that all have feather plumes at the front of their hats,a cluttered and rustic looking cafe with 10 hanging lights,different
