consent_response.keys,consent_response.rt,key_resp_2.keys,key_resp_2.rt,user_resp.keys,user_resp.rt,trials.thisRepN,trials.thisTrialN,trials.thisN,trials.thisIndex,trials.ran,image_1_text,image_2_text,database,image,number,age,worker_ID,date,expName,psychopyVersion,OS,frameRate,hitId,workerId,assignmentId,a,tp_a,b,tp_b,c,tp_c,catch_same_resp.keys,catch_same_resp.rt,image_1_text_catch_same,image_2_text_catch_same,image_catch_same,catch_different_resp.keys,catch_different_resp.rt,image_1_text_catch_different,image_2_text_catch_different,image_catch_different
space,7.70464,space,46.803595,2,7.60483,0,0,0,739,1,the wall is bare in this spacious bathroom,there is a towel hook on the wall in this spacious bathroom,wolfe2,076_R_hook,3,36,A2VA0NCPWJ8XZG,2021-01-24_11h23.05.669,MetaAwareness,2020.1.2,Win32,60,3ZQA3IO31CULCK2A2QAWJR8LUP81O1,A2VA0NCPWJ8XZG,3OVHNO1VE74UP3UNAUAAOABMT37DZS,VNVO6,VNVO6,3OVHNO1VE74UP3UNAUAAOABMT37DZS,3OVHNO1VE74UP3UNAUAAOABMT37DZS,271016,271016,,,,,,,,,,
,,,,4,5.69603,0,1,1,1216,1,"a living room with a l shaped couch, automan, mounted tv and shelves.  the shelf has a candle under the tv","a living room with a l shaped couch, automan, mounted tv and shelves. ",wolfe2,126_R_candles,3,36,A2VA0NCPWJ8XZG,2021-01-24_11h23.05.669,MetaAwareness,2020.1.2,Win32,60,3ZQA3IO31CULCK2A2QAWJR8LUP81O1,A2VA0NCPWJ8XZG,3OVHNO1VE74UP3UNAUAAOABMT37DZS,VNVO6,VNVO6,3OVHNO1VE74UP3UNAUAAOABMT37DZS,3OVHNO1VE74UP3UNAUAAOABMT37DZS,271016,271016,,,,,,,,,,
,,,,5,10.141835,0,2,2,189,1,there is white side panelling on the side of a modern house.,there is a streetlight on the white panelling on the side of a modern house.,wolfe2,019_R_lamp_sized,4,36,A2VA0NCPWJ8XZG,2021-01-24_11h23.05.669,MetaAwareness,2020.1.2,Win32,60,3ZQA3IO31CULCK2A2QAWJR8LUP81O1,A2VA0NCPWJ8XZG,3OVHNO1VE74UP3UNAUAAOABMT37DZS,VNVO6,VNVO6,3OVHNO1VE74UP3UNAUAAOABMT37DZS,3OVHNO1VE74UP3UNAUAAOABMT37DZS,271016,271016,,,,,,,,,,
,,,,1,5.38835,0,3,3,331,1,push and puller not  in this,push and puller has available,wolfe2,034_R_handle,3,36,A2VA0NCPWJ8XZG,2021-01-24_11h23.05.669,MetaAwareness,2020.1.2,Win32,60,3ZQA3IO31CULCK2A2QAWJR8LUP81O1,A2VA0NCPWJ8XZG,3OVHNO1VE74UP3UNAUAAOABMT37DZS,VNVO6,VNVO6,3OVHNO1VE74UP3UNAUAAOABMT37DZS,3OVHNO1VE74UP3UNAUAAOABMT37DZS,271016,271016,,,,,,,,,,
,,,,5,7.16572,0,4,4,37,1,"a modern living area overlooking a city with a sofa, chair and desk","a modern living area overlooking a city with a sofa with a mirror above it, chair and desk",wolfe2,005_L_mirror,3,36,A2VA0NCPWJ8XZG,2021-01-24_11h23.05.669,MetaAwareness,2020.1.2,Win32,60,3ZQA3IO31CULCK2A2QAWJR8LUP81O1,A2VA0NCPWJ8XZG,3OVHNO1VE74UP3UNAUAAOABMT37DZS,VNVO6,VNVO6,3OVHNO1VE74UP3UNAUAAOABMT37DZS,3OVHNO1VE74UP3UNAUAAOABMT37DZS,271016,271016,,,,,,,,,,
,,,,5,4.120515,0,5,5,15,1,a table in an upscale dining room with 7 place settings,a table in an upscale dining room with 8 place settings.,wolfe2,002_R_napkin,2,36,A2VA0NCPWJ8XZG,2021-01-24_11h23.05.669,MetaAwareness,2020.1.2,Win32,60,3ZQA3IO31CULCK2A2QAWJR8LUP81O1,A2VA0NCPWJ8XZG,3OVHNO1VE74UP3UNAUAAOABMT37DZS,VNVO6,VNVO6,3OVHNO1VE74UP3UNAUAAOABMT37DZS,3OVHNO1VE74UP3UNAUAAOABMT37DZS,271016,271016,,,,,,,,,,
,,,,5,9.61834,0,6,6,1127,1,a clean traditional living room with a plant on a small table by the door leading outside,a clean traditional living room with nothing on the table by the door leading outside,wolfe2,117_R_plant_sized,1,36,A2VA0NCPWJ8XZG,2021-01-24_11h23.05.669,MetaAwareness,2020.1.2,Win32,60,3ZQA3IO31CULCK2A2QAWJR8LUP81O1,A2VA0NCPWJ8XZG,3OVHNO1VE74UP3UNAUAAOABMT37DZS,VNVO6,VNVO6,3OVHNO1VE74UP3UNAUAAOABMT37DZS,3OVHNO1VE74UP3UNAUAAOABMT37DZS,271016,271016,,,,,,,,,,
,,,,5,6.661265,0,7,7,87,1,"a bedroom with a stool, blanket and book.","a bedroom with a stool, blanket, book and rug underneath.",wolfe2,009_R_carpet,1,36,A2VA0NCPWJ8XZG,2021-01-24_11h23.05.669,MetaAwareness,2020.1.2,Win32,60,3ZQA3IO31CULCK2A2QAWJR8LUP81O1,A2VA0NCPWJ8XZG,3OVHNO1VE74UP3UNAUAAOABMT37DZS,VNVO6,VNVO6,3OVHNO1VE74UP3UNAUAAOABMT37DZS,3OVHNO1VE74UP3UNAUAAOABMT37DZS,271016,271016,,,,,,,,,,
,,,,5,4.49384,0,8,8,418,1,a very modern bathroom with a large white marble tub,a very modern bathroom with a large white marble tub with lights,wolfe2,044_L_light,1,36,A2VA0NCPWJ8XZG,2021-01-24_11h23.05.669,MetaAwareness,2020.1.2,Win32,60,3ZQA3IO31CULCK2A2QAWJR8LUP81O1,A2VA0NCPWJ8XZG,3OVHNO1VE74UP3UNAUAAOABMT37DZS,VNVO6,VNVO6,3OVHNO1VE74UP3UNAUAAOABMT37DZS,3OVHNO1VE74UP3UNAUAAOABMT37DZS,271016,271016,,,,,,,,,,
,,,,1,4.522595,0,9,9,314,1,modern bathtub future pad,cicle drawers in cool bathroom,wolfe2,032_R_bottle,5,36,A2VA0NCPWJ8XZG,2021-01-24_11h23.05.669,MetaAwareness,2020.1.2,Win32,60,3ZQA3IO31CULCK2A2QAWJR8LUP81O1,A2VA0NCPWJ8XZG,3OVHNO1VE74UP3UNAUAAOABMT37DZS,VNVO6,VNVO6,3OVHNO1VE74UP3UNAUAAOABMT37DZS,3OVHNO1VE74UP3UNAUAAOABMT37DZS,271016,271016,,,,,,,,,,
,,,,3,10.026125,0,10,10,1223,1,a huge living room with two lights on the walls,a huge living room with only one wall light on the right pillar,wolfe2,127_L_light,5,36,A2VA0NCPWJ8XZG,2021-01-24_11h23.05.669,MetaAwareness,2020.1.2,Win32,60,3ZQA3IO31CULCK2A2QAWJR8LUP81O1,A2VA0NCPWJ8XZG,3OVHNO1VE74UP3UNAUAAOABMT37DZS,VNVO6,VNVO6,3OVHNO1VE74UP3UNAUAAOABMT37DZS,3OVHNO1VE74UP3UNAUAAOABMT37DZS,271016,271016,,,,,,,,,,
,,,,5,5.90781,0,11,11,1073,1,a sun porch with many plants in front of a window and an empty vase beside them,a sun porch with many plants in front of a window,wolfe2,111_L_pot,5,36,A2VA0NCPWJ8XZG,2021-01-24_11h23.05.669,MetaAwareness,2020.1.2,Win32,60,3ZQA3IO31CULCK2A2QAWJR8LUP81O1,A2VA0NCPWJ8XZG,3OVHNO1VE74UP3UNAUAAOABMT37DZS,VNVO6,VNVO6,3OVHNO1VE74UP3UNAUAAOABMT37DZS,3OVHNO1VE74UP3UNAUAAOABMT37DZS,271016,271016,,,,,,,,,,
,,,,5,3.865475,0,12,12,611,1,a very modern living room with a desk with nothing on it,a very modern living room with a desk with a notebook on it,wolfe2,063_R_laptop,4,36,A2VA0NCPWJ8XZG,2021-01-24_11h23.05.669,MetaAwareness,2020.1.2,Win32,60,3ZQA3IO31CULCK2A2QAWJR8LUP81O1,A2VA0NCPWJ8XZG,3OVHNO1VE74UP3UNAUAAOABMT37DZS,VNVO6,VNVO6,3OVHNO1VE74UP3UNAUAAOABMT37DZS,3OVHNO1VE74UP3UNAUAAOABMT37DZS,271016,271016,,,,,,,,,,
,,,,5,5.44597,0,13,13,1140,1,a living room with shoes near the door,a living room with no shoes near the door,wolfe2,118_R_shoes,4,36,A2VA0NCPWJ8XZG,2021-01-24_11h23.05.669,MetaAwareness,2020.1.2,Win32,60,3ZQA3IO31CULCK2A2QAWJR8LUP81O1,A2VA0NCPWJ8XZG,3OVHNO1VE74UP3UNAUAAOABMT37DZS,VNVO6,VNVO6,3OVHNO1VE74UP3UNAUAAOABMT37DZS,3OVHNO1VE74UP3UNAUAAOABMT37DZS,271016,271016,,,,,,,,,,
,,,,5,4.72657,0,14,14,462,1,grey bedroom with grey striped wallpaper,grey bedroom with grey striped wallpaper and tall glass vase,wolfe2,048_R_art,1,36,A2VA0NCPWJ8XZG,2021-01-24_11h23.05.669,MetaAwareness,2020.1.2,Win32,60,3ZQA3IO31CULCK2A2QAWJR8LUP81O1,A2VA0NCPWJ8XZG,3OVHNO1VE74UP3UNAUAAOABMT37DZS,VNVO6,VNVO6,3OVHNO1VE74UP3UNAUAAOABMT37DZS,3OVHNO1VE74UP3UNAUAAOABMT37DZS,271016,271016,,,,,,,,,,
,,,,5,13.98769,0,15,15,1113,1,a wooden dining room with a wire basket located behind a white planter.,a wooden dining room with a white planter with nothing between it and the wall.,wolfe2,116_L_basket,1,36,A2VA0NCPWJ8XZG,2021-01-24_11h23.05.669,MetaAwareness,2020.1.2,Win32,60,3ZQA3IO31CULCK2A2QAWJR8LUP81O1,A2VA0NCPWJ8XZG,3OVHNO1VE74UP3UNAUAAOABMT37DZS,VNVO6,VNVO6,3OVHNO1VE74UP3UNAUAAOABMT37DZS,3OVHNO1VE74UP3UNAUAAOABMT37DZS,271016,271016,,,,,,,,,,
,,,,5,4.187,0,16,16,789,1,a spare bedroom,a spare bedroom with an object missing,wolfe2,081_R_football,3,36,A2VA0NCPWJ8XZG,2021-01-24_11h23.05.669,MetaAwareness,2020.1.2,Win32,60,3ZQA3IO31CULCK2A2QAWJR8LUP81O1,A2VA0NCPWJ8XZG,3OVHNO1VE74UP3UNAUAAOABMT37DZS,VNVO6,VNVO6,3OVHNO1VE74UP3UNAUAAOABMT37DZS,3OVHNO1VE74UP3UNAUAAOABMT37DZS,271016,271016,,,,,,,,,,
,,,,5,6.49723,0,17,17,76,1,a clean and orderly blue bathroom with a large mirror and one bottle on the window sill,a clean and orderly blue bathroom with a large mirror and two bottles on the window sill,wolfe2,008_R_bottle,2,36,A2VA0NCPWJ8XZG,2021-01-24_11h23.05.669,MetaAwareness,2020.1.2,Win32,60,3ZQA3IO31CULCK2A2QAWJR8LUP81O1,A2VA0NCPWJ8XZG,3OVHNO1VE74UP3UNAUAAOABMT37DZS,VNVO6,VNVO6,3OVHNO1VE74UP3UNAUAAOABMT37DZS,3OVHNO1VE74UP3UNAUAAOABMT37DZS,271016,271016,,,,,,,,,,
,,,,4,5.009115,0,18,18,525,1,an office space with black and red circle mats,"an office space with black, red and blue mats",wolfe2,055_L_carpet,3,36,A2VA0NCPWJ8XZG,2021-01-24_11h23.05.669,MetaAwareness,2020.1.2,Win32,60,3ZQA3IO31CULCK2A2QAWJR8LUP81O1,A2VA0NCPWJ8XZG,3OVHNO1VE74UP3UNAUAAOABMT37DZS,VNVO6,VNVO6,3OVHNO1VE74UP3UNAUAAOABMT37DZS,3OVHNO1VE74UP3UNAUAAOABMT37DZS,271016,271016,,,,,,,,,,
,,,,5,7.377625,0,19,19,257,1,a well lit bathroom with a white and brown theme,a well lit bathroom with a white a brown theme that is missing a shelf,wolfe2,026_R_rack,2,36,A2VA0NCPWJ8XZG,2021-01-24_11h23.05.669,MetaAwareness,2020.1.2,Win32,60,3ZQA3IO31CULCK2A2QAWJR8LUP81O1,A2VA0NCPWJ8XZG,3OVHNO1VE74UP3UNAUAAOABMT37DZS,VNVO6,VNVO6,3OVHNO1VE74UP3UNAUAAOABMT37DZS,3OVHNO1VE74UP3UNAUAAOABMT37DZS,271016,271016,,,,,,,,,,
,,,,5,8.745935,0,20,20,119,1,"a large, open bathroom overlooking a beautiful yard. the bathroom includes a soaking tub that has no drain","a large, open bathroom overlooking a beautiful yard. the bathroom includes a soaking tub with a drain at the top",wolfe2,012_R_tubaccesory,4,36,A2VA0NCPWJ8XZG,2021-01-24_11h23.05.669,MetaAwareness,2020.1.2,Win32,60,3ZQA3IO31CULCK2A2QAWJR8LUP81O1,A2VA0NCPWJ8XZG,3OVHNO1VE74UP3UNAUAAOABMT37DZS,VNVO6,VNVO6,3OVHNO1VE74UP3UNAUAAOABMT37DZS,3OVHNO1VE74UP3UNAUAAOABMT37DZS,271016,271016,,,,,,,,,,
,,,,5,5.19637,0,21,21,907,1,a bedroom with two beds with yellow bedding and two lightswitch panels on the wall,a bedroom with two beds with yellow bedding and one lightswitch panel on the wall,wolfe2,093_L_switch,4,36,A2VA0NCPWJ8XZG,2021-01-24_11h23.05.669,MetaAwareness,2020.1.2,Win32,60,3ZQA3IO31CULCK2A2QAWJR8LUP81O1,A2VA0NCPWJ8XZG,3OVHNO1VE74UP3UNAUAAOABMT37DZS,VNVO6,VNVO6,3OVHNO1VE74UP3UNAUAAOABMT37DZS,3OVHNO1VE74UP3UNAUAAOABMT37DZS,271016,271016,,,,,,,,,,
,,,,5,5.66568,0,22,22,520,1,"a living room containing a sofa, book shelves, and an empty fireplace ","a living room containing a sofa, book shelves, and logs in a fireplace",wolfe2,054_R_firewood,3,36,A2VA0NCPWJ8XZG,2021-01-24_11h23.05.669,MetaAwareness,2020.1.2,Win32,60,3ZQA3IO31CULCK2A2QAWJR8LUP81O1,A2VA0NCPWJ8XZG,3OVHNO1VE74UP3UNAUAAOABMT37DZS,VNVO6,VNVO6,3OVHNO1VE74UP3UNAUAAOABMT37DZS,3OVHNO1VE74UP3UNAUAAOABMT37DZS,271016,271016,,,,,,,,,,
,,,,5,7.089605,0,23,23,949,1,modern white bedroom with grey object on floor in front of chair.,modern white bedroom with nothing on floor in front of chair.,wolfe2,098_L_slippers,4,36,A2VA0NCPWJ8XZG,2021-01-24_11h23.05.669,MetaAwareness,2020.1.2,Win32,60,3ZQA3IO31CULCK2A2QAWJR8LUP81O1,A2VA0NCPWJ8XZG,3OVHNO1VE74UP3UNAUAAOABMT37DZS,VNVO6,VNVO6,3OVHNO1VE74UP3UNAUAAOABMT37DZS,3OVHNO1VE74UP3UNAUAAOABMT37DZS,271016,271016,,,,,,,,,,
,,,,6,6.923225,0,24,24,641,1,"a living room painted black and white with white and black chair, as well as some black, white and red decorations.","a living room painted black and white, with a white and black chair, as well as  some black, white and red decorations.",wolfe2,066_R_vase,2,36,A2VA0NCPWJ8XZG,2021-01-24_11h23.05.669,MetaAwareness,2020.1.2,Win32,60,3ZQA3IO31CULCK2A2QAWJR8LUP81O1,A2VA0NCPWJ8XZG,3OVHNO1VE74UP3UNAUAAOABMT37DZS,VNVO6,VNVO6,3OVHNO1VE74UP3UNAUAAOABMT37DZS,3OVHNO1VE74UP3UNAUAAOABMT37DZS,271016,271016,,,,,,,,,,
,,,,5,4.154465,0,25,25,546,1,an empty library with a clear walk way,an empty library with a trash can in the walk way,wolfe2,057_L_bin,2,36,A2VA0NCPWJ8XZG,2021-01-24_11h23.05.669,MetaAwareness,2020.1.2,Win32,60,3ZQA3IO31CULCK2A2QAWJR8LUP81O1,A2VA0NCPWJ8XZG,3OVHNO1VE74UP3UNAUAAOABMT37DZS,VNVO6,VNVO6,3OVHNO1VE74UP3UNAUAAOABMT37DZS,3OVHNO1VE74UP3UNAUAAOABMT37DZS,271016,271016,,,,,,,,,,
,,,,5,6.672225,0,26,26,84,1,a bedroom with a sitting area near the bed,a bedroom with a sitting area on top of a circular rug,wolfe2,009_L_carpet,2,36,A2VA0NCPWJ8XZG,2021-01-24_11h23.05.669,MetaAwareness,2020.1.2,Win32,60,3ZQA3IO31CULCK2A2QAWJR8LUP81O1,A2VA0NCPWJ8XZG,3OVHNO1VE74UP3UNAUAAOABMT37DZS,VNVO6,VNVO6,3OVHNO1VE74UP3UNAUAAOABMT37DZS,3OVHNO1VE74UP3UNAUAAOABMT37DZS,271016,271016,,,,,,,,,,
,,,,3,6.513765,0,27,27,996,1,design tiles on the kitchen,the tiles has been missing on kitchen,wolfe2,103_R_hook,1,36,A2VA0NCPWJ8XZG,2021-01-24_11h23.05.669,MetaAwareness,2020.1.2,Win32,60,3ZQA3IO31CULCK2A2QAWJR8LUP81O1,A2VA0NCPWJ8XZG,3OVHNO1VE74UP3UNAUAAOABMT37DZS,VNVO6,VNVO6,3OVHNO1VE74UP3UNAUAAOABMT37DZS,3OVHNO1VE74UP3UNAUAAOABMT37DZS,271016,271016,,,,,,,,,,
,,,,5,4.472165,0,28,28,235,1,an open room with two stacks of towels under the sink,an open room with three stacks of towels under the sink,wolfe2,024_L_towels,4,36,A2VA0NCPWJ8XZG,2021-01-24_11h23.05.669,MetaAwareness,2020.1.2,Win32,60,3ZQA3IO31CULCK2A2QAWJR8LUP81O1,A2VA0NCPWJ8XZG,3OVHNO1VE74UP3UNAUAAOABMT37DZS,VNVO6,VNVO6,3OVHNO1VE74UP3UNAUAAOABMT37DZS,3OVHNO1VE74UP3UNAUAAOABMT37DZS,271016,271016,,,,,,,,,,
,,,,3,7.39613,0,29,29,215,1,hanging bulp has,hanging bulp has no available,wolfe2,022_R_lamp,2,36,A2VA0NCPWJ8XZG,2021-01-24_11h23.05.669,MetaAwareness,2020.1.2,Win32,60,3ZQA3IO31CULCK2A2QAWJR8LUP81O1,A2VA0NCPWJ8XZG,3OVHNO1VE74UP3UNAUAAOABMT37DZS,VNVO6,VNVO6,3OVHNO1VE74UP3UNAUAAOABMT37DZS,3OVHNO1VE74UP3UNAUAAOABMT37DZS,271016,271016,,,,,,,,,,
,,,,,,,,,,,,,,,,36,A2VA0NCPWJ8XZG,2021-01-24_11h23.05.669,MetaAwareness,2020.1.2,Win32,60,3ZQA3IO31CULCK2A2QAWJR8LUP81O1,A2VA0NCPWJ8XZG,3OVHNO1VE74UP3UNAUAAOABMT37DZS,VNVO6,VNVO6,3OVHNO1VE74UP3UNAUAAOABMT37DZS,3OVHNO1VE74UP3UNAUAAOABMT37DZS,271016,271016,6,6.72871,someone laying underneath a blue beach umbrella on a crowded beach,someone laying underneath a blue beach umbrella on a crowded beach,same,1,4.921965,members of a marching band crossing a track that all have feather plumes at the front of their hats,a cluttered and rustic looking cafe with 10 hanging lights,different
