consent_response.keys,consent_response.rt,key_resp_2.keys,key_resp_2.rt,user_resp.keys,user_resp.rt,trials.thisRepN,trials.thisTrialN,trials.thisN,trials.thisIndex,trials.ran,image_1_text,image_2_text,database,image,number,age,worker_ID,date,expName,psychopyVersion,OS,frameRate,hitId,workerId,assignmentId,a,tp_a,b,tp_b,c,tp_c,catch_same_resp.keys,catch_same_resp.rt,image_1_text_catch_same,image_2_text_catch_same,image_catch_same,catch_different_resp.keys,catch_different_resp.rt,image_1_text_catch_different,image_2_text_catch_different,image_catch_different
space,33.806,space,0.227,5,22.286,0,0,0,663,1,a bathroom with a black bathtub with a missing panel near the faucet,a athroom with a black bathtub with two panels near the faucet.,wolfe2,068_R_faucet,5,26,A31QBYB6WFWAXV,2021-01-24_11h04.51.947,MetaAwareness,2020.1.2,Win32,60,3ZQA3IO31CULCK2A2QAWJR8LUP81O1,A31QBYB6WFWAXV,3M81GAB8A1MSWEVC920R2RBILFAQB4,8G8M6,8G8M6,3M81GAB8A1MSWEVC920R2RBILFAQB4,3M81GAB8A1MSWEVC920R2RBILFAQB4,271016,271016,,,,,,,,,,
,,,,5,0.161,0,1,1,68,1,"a bathroom with two sinks, a mirror, multi-colored towels, and a soap dish on one of the sinks","a bathroom with two sinks, a mirror, multi-colored towels, and a soap dish for each sink",wolfe2,007_R_soap,4,26,A31QBYB6WFWAXV,2021-01-24_11h04.51.947,MetaAwareness,2020.1.2,Win32,60,3ZQA3IO31CULCK2A2QAWJR8LUP81O1,A31QBYB6WFWAXV,3M81GAB8A1MSWEVC920R2RBILFAQB4,8G8M6,8G8M6,3M81GAB8A1MSWEVC920R2RBILFAQB4,3M81GAB8A1MSWEVC920R2RBILFAQB4,271016,271016,,,,,,,,,,
,,,,5,0.312,0,2,2,153,1,"a view of a modern family room with wood floors, gray walls, a large television, and two recessed lights in the ceiling","a view of a modern family room with wood floors, gray walls, a large television, and three recessed lights in the ceiling",wolfe2,015_R_ceilinglight,4,26,A31QBYB6WFWAXV,2021-01-24_11h04.51.947,MetaAwareness,2020.1.2,Win32,60,3ZQA3IO31CULCK2A2QAWJR8LUP81O1,A31QBYB6WFWAXV,3M81GAB8A1MSWEVC920R2RBILFAQB4,8G8M6,8G8M6,3M81GAB8A1MSWEVC920R2RBILFAQB4,3M81GAB8A1MSWEVC920R2RBILFAQB4,271016,271016,,,,,,,,,,
,,,,5,4.437,0,3,3,817,1,beach home with beige walls,beach home with beige wall and latern type lighting,wolfe2,084_R_light,1,26,A31QBYB6WFWAXV,2021-01-24_11h04.51.947,MetaAwareness,2020.1.2,Win32,60,3ZQA3IO31CULCK2A2QAWJR8LUP81O1,A31QBYB6WFWAXV,3M81GAB8A1MSWEVC920R2RBILFAQB4,8G8M6,8G8M6,3M81GAB8A1MSWEVC920R2RBILFAQB4,3M81GAB8A1MSWEVC920R2RBILFAQB4,271016,271016,,,,,,,,,,
,,,,4,2.793,0,4,4,721,1,"a kitchen ornately decorated with wood cabinets, with recessed lights in the ceiling that only cover one side of the room","a kitchen ornately decorated with wood cabinets, and with recessed lights along the edges of the ceiling",wolfe2,075_L_light,3,26,A31QBYB6WFWAXV,2021-01-24_11h04.51.947,MetaAwareness,2020.1.2,Win32,60,3ZQA3IO31CULCK2A2QAWJR8LUP81O1,A31QBYB6WFWAXV,3M81GAB8A1MSWEVC920R2RBILFAQB4,8G8M6,8G8M6,3M81GAB8A1MSWEVC920R2RBILFAQB4,3M81GAB8A1MSWEVC920R2RBILFAQB4,271016,271016,,,,,,,,,,
,,,,6,1.99,0,5,5,1044,1,a walk in closet with a lot of clothing and a dresser off to the side. ,a walk in closer with a lot of clothing and a dresser off to the side with a little blue ball on it,wolfe2,108_L_boa,1,26,A31QBYB6WFWAXV,2021-01-24_11h04.51.947,MetaAwareness,2020.1.2,Win32,60,3ZQA3IO31CULCK2A2QAWJR8LUP81O1,A31QBYB6WFWAXV,3M81GAB8A1MSWEVC920R2RBILFAQB4,8G8M6,8G8M6,3M81GAB8A1MSWEVC920R2RBILFAQB4,3M81GAB8A1MSWEVC920R2RBILFAQB4,271016,271016,,,,,,,,,,
,,,,5,2.96,0,6,6,800,1,a fully furnished bedroom with an enclosed dresser,a full furnished bedroom with an enclosed dressed with a dishsitting upon itnum_enter,wolfe2,082_R_bowl,6,26,A31QBYB6WFWAXV,2021-01-24_11h04.51.947,MetaAwareness,2020.1.2,Win32,60,3ZQA3IO31CULCK2A2QAWJR8LUP81O1,A31QBYB6WFWAXV,3M81GAB8A1MSWEVC920R2RBILFAQB4,8G8M6,8G8M6,3M81GAB8A1MSWEVC920R2RBILFAQB4,3M81GAB8A1MSWEVC920R2RBILFAQB4,271016,271016,,,,,,,,,,
,,,,4,1.422,0,7,7,895,1, a living room with a giant mirror on the wall with a white couch and fireplace with 2 candles in it,a living room with a giant mirror on the wall with a white couch and fireplace,wolfe2,092_L_candles,1,26,A31QBYB6WFWAXV,2021-01-24_11h04.51.947,MetaAwareness,2020.1.2,Win32,60,3ZQA3IO31CULCK2A2QAWJR8LUP81O1,A31QBYB6WFWAXV,3M81GAB8A1MSWEVC920R2RBILFAQB4,8G8M6,8G8M6,3M81GAB8A1MSWEVC920R2RBILFAQB4,3M81GAB8A1MSWEVC920R2RBILFAQB4,271016,271016,,,,,,,,,,
,,,,6,1.673,0,8,8,1094,1,an open lounge with a small tree near large windows,an open lounge with large windows,wolfe2,113_R_plant,4,26,A31QBYB6WFWAXV,2021-01-24_11h04.51.947,MetaAwareness,2020.1.2,Win32,60,3ZQA3IO31CULCK2A2QAWJR8LUP81O1,A31QBYB6WFWAXV,3M81GAB8A1MSWEVC920R2RBILFAQB4,8G8M6,8G8M6,3M81GAB8A1MSWEVC920R2RBILFAQB4,3M81GAB8A1MSWEVC920R2RBILFAQB4,271016,271016,,,,,,,,,,
,,,,5,1.344,0,9,9,425,1,"shiny, bright and clean washroom","shiny, bright and clean washroom with a light inside a brown square",wolfe2,044_R_light,2,26,A31QBYB6WFWAXV,2021-01-24_11h04.51.947,MetaAwareness,2020.1.2,Win32,60,3ZQA3IO31CULCK2A2QAWJR8LUP81O1,A31QBYB6WFWAXV,3M81GAB8A1MSWEVC920R2RBILFAQB4,8G8M6,8G8M6,3M81GAB8A1MSWEVC920R2RBILFAQB4,3M81GAB8A1MSWEVC920R2RBILFAQB4,271016,271016,,,,,,,,,,
,,,,3,1.656,0,10,10,783,1,a play area without a toy next to shelves,a play area with a toy next to the shelves,wolfe2,081_L_football,2,26,A31QBYB6WFWAXV,2021-01-24_11h04.51.947,MetaAwareness,2020.1.2,Win32,60,3ZQA3IO31CULCK2A2QAWJR8LUP81O1,A31QBYB6WFWAXV,3M81GAB8A1MSWEVC920R2RBILFAQB4,8G8M6,8G8M6,3M81GAB8A1MSWEVC920R2RBILFAQB4,3M81GAB8A1MSWEVC920R2RBILFAQB4,271016,271016,,,,,,,,,,
,,,,5,1.739,0,11,11,861,1,wal l light has been installe on the top  of the picture,the wall light has been missing top of the picturenum,wolfe2,088_R_clock,2,26,A31QBYB6WFWAXV,2021-01-24_11h04.51.947,MetaAwareness,2020.1.2,Win32,60,3ZQA3IO31CULCK2A2QAWJR8LUP81O1,A31QBYB6WFWAXV,3M81GAB8A1MSWEVC920R2RBILFAQB4,8G8M6,8G8M6,3M81GAB8A1MSWEVC920R2RBILFAQB4,3M81GAB8A1MSWEVC920R2RBILFAQB4,271016,271016,,,,,,,,,,
,,,,4,1.658,0,12,12,402,1,"a luxurious bathroom with two vessel sinks and mirrors, but one of the sinks has no faucet","a luxurious bathroom with two vessel sinks and mirrors, and both sinks have faucets",wolfe2,042_R_tap,1,26,A31QBYB6WFWAXV,2021-01-24_11h04.51.947,MetaAwareness,2020.1.2,Win32,60,3ZQA3IO31CULCK2A2QAWJR8LUP81O1,A31QBYB6WFWAXV,3M81GAB8A1MSWEVC920R2RBILFAQB4,8G8M6,8G8M6,3M81GAB8A1MSWEVC920R2RBILFAQB4,3M81GAB8A1MSWEVC920R2RBILFAQB4,271016,271016,,,,,,,,,,
,,,,5,3.982,0,13,13,156,1,a beautiful living with nice white couch and chic coffee table and beautiful view outside,a beautiful living room with nice white couch and chic coffee table and beautiful scenery outside and a small sculpture on the left pillar.,wolfe2,016_L_art,3,26,A31QBYB6WFWAXV,2021-01-24_11h04.51.947,MetaAwareness,2020.1.2,Win32,60,3ZQA3IO31CULCK2A2QAWJR8LUP81O1,A31QBYB6WFWAXV,3M81GAB8A1MSWEVC920R2RBILFAQB4,8G8M6,8G8M6,3M81GAB8A1MSWEVC920R2RBILFAQB4,3M81GAB8A1MSWEVC920R2RBILFAQB4,271016,271016,,,,,,,,,,
,,,,4,3.803,0,14,14,675,1,living room with a large mirror on the middle of the wall with only one lamp mount on the wall on the right hand side,living room with a large mirror o the middle of the wall with two lamps mount on the wall on the both sides,wolfe2,070_L_lamp,4,26,A31QBYB6WFWAXV,2021-01-24_11h04.51.947,MetaAwareness,2020.1.2,Win32,60,3ZQA3IO31CULCK2A2QAWJR8LUP81O1,A31QBYB6WFWAXV,3M81GAB8A1MSWEVC920R2RBILFAQB4,8G8M6,8G8M6,3M81GAB8A1MSWEVC920R2RBILFAQB4,3M81GAB8A1MSWEVC920R2RBILFAQB4,271016,271016,,,,,,,,,,
,,,,5,4.174,0,15,15,681,1,a sitting room crowded with furniture and an empty spot to the right of one of the lamps.,a sitting room crowded with furniture and a vase next to one of the lamps.,wolfe2,071_L_art,1,26,A31QBYB6WFWAXV,2021-01-24_11h04.51.947,MetaAwareness,2020.1.2,Win32,60,3ZQA3IO31CULCK2A2QAWJR8LUP81O1,A31QBYB6WFWAXV,3M81GAB8A1MSWEVC920R2RBILFAQB4,8G8M6,8G8M6,3M81GAB8A1MSWEVC920R2RBILFAQB4,3M81GAB8A1MSWEVC920R2RBILFAQB4,271016,271016,,,,,,,,,,
,,,,5,3.613,0,16,16,406,1,a very stylish and contemporary looking bathroom that has a lot of tan and brown coloring and two sinks and one faucet,a very stylish and contemporary looking bathroom that has a lot of tan and brown coloring and two sinks and two faucets,wolfe2,042_R_tap,5,26,A31QBYB6WFWAXV,2021-01-24_11h04.51.947,MetaAwareness,2020.1.2,Win32,60,3ZQA3IO31CULCK2A2QAWJR8LUP81O1,A31QBYB6WFWAXV,3M81GAB8A1MSWEVC920R2RBILFAQB4,8G8M6,8G8M6,3M81GAB8A1MSWEVC920R2RBILFAQB4,3M81GAB8A1MSWEVC920R2RBILFAQB4,271016,271016,,,,,,,,,,
,,,,4,4.712,0,17,17,516,1,theres a fireplace in the living room with nothing in it,theres a fireplace in the living room with wood in it,wolfe2,054_L_firewood,3,26,A31QBYB6WFWAXV,2021-01-24_11h04.51.947,MetaAwareness,2020.1.2,Win32,60,3ZQA3IO31CULCK2A2QAWJR8LUP81O1,A31QBYB6WFWAXV,3M81GAB8A1MSWEVC920R2RBILFAQB4,8G8M6,8G8M6,3M81GAB8A1MSWEVC920R2RBILFAQB4,3M81GAB8A1MSWEVC920R2RBILFAQB4,271016,271016,,,,,,,,,,
,,,,5,2.595,0,18,18,747,1,a luxurious and modern kitchen with bar stools,a luxious and modern kitchen with bar stools and foot support,wolfe2,077_L_footrest,7,26,A31QBYB6WFWAXV,2021-01-24_11h04.51.947,MetaAwareness,2020.1.2,Win32,60,3ZQA3IO31CULCK2A2QAWJR8LUP81O1,A31QBYB6WFWAXV,3M81GAB8A1MSWEVC920R2RBILFAQB4,8G8M6,8G8M6,3M81GAB8A1MSWEVC920R2RBILFAQB4,3M81GAB8A1MSWEVC920R2RBILFAQB4,271016,271016,,,,,,,,,,
,,,,4,2.072,0,19,19,300,1,an open living room with beige couch and one visible roof beam,an open living room with beige couch and two visible roof beams,wolfe2,031_L_log,4,26,A31QBYB6WFWAXV,2021-01-24_11h04.51.947,MetaAwareness,2020.1.2,Win32,60,3ZQA3IO31CULCK2A2QAWJR8LUP81O1,A31QBYB6WFWAXV,3M81GAB8A1MSWEVC920R2RBILFAQB4,8G8M6,8G8M6,3M81GAB8A1MSWEVC920R2RBILFAQB4,3M81GAB8A1MSWEVC920R2RBILFAQB4,271016,271016,,,,,,,,,,
,,,,5,3.479,0,20,20,1196,1,"a sunroom with large windows, white chairs, a blue and white rug, and a white table","a sunroom with large windows, white table and chairs, a blue and white rug, and ",wolfe2,124_R_vase,1,26,A31QBYB6WFWAXV,2021-01-24_11h04.51.947,MetaAwareness,2020.1.2,Win32,60,3ZQA3IO31CULCK2A2QAWJR8LUP81O1,A31QBYB6WFWAXV,3M81GAB8A1MSWEVC920R2RBILFAQB4,8G8M6,8G8M6,3M81GAB8A1MSWEVC920R2RBILFAQB4,3M81GAB8A1MSWEVC920R2RBILFAQB4,271016,271016,,,,,,,,,,
,,,,5,2.106,0,21,21,917,1,this object shows a person beauitful and the white bottle,the object shows a person beauitful and the white bottle is missing,wolfe2,095_L_candle,1,26,A31QBYB6WFWAXV,2021-01-24_11h04.51.947,MetaAwareness,2020.1.2,Win32,60,3ZQA3IO31CULCK2A2QAWJR8LUP81O1,A31QBYB6WFWAXV,3M81GAB8A1MSWEVC920R2RBILFAQB4,8G8M6,8G8M6,3M81GAB8A1MSWEVC920R2RBILFAQB4,3M81GAB8A1MSWEVC920R2RBILFAQB4,271016,271016,,,,,,,,,,
,,,,4,1.869,0,22,22,24,1,a lakeside view from a large multi-panel window,a lakeside view from a large multi-panel window that shows three ducks swimming,wolfe2,003_R_ducks,3,26,A31QBYB6WFWAXV,2021-01-24_11h04.51.947,MetaAwareness,2020.1.2,Win32,60,3ZQA3IO31CULCK2A2QAWJR8LUP81O1,A31QBYB6WFWAXV,3M81GAB8A1MSWEVC920R2RBILFAQB4,8G8M6,8G8M6,3M81GAB8A1MSWEVC920R2RBILFAQB4,3M81GAB8A1MSWEVC920R2RBILFAQB4,271016,271016,,,,,,,,,,
,,,,5,1.388,0,23,23,786,1,an office with a black stand shelf unit beside a credenza,an office with a black stand shelf unit beside a credenza and a soccer ball behind the shelf,wolfe2,081_L_football,5,26,A31QBYB6WFWAXV,2021-01-24_11h04.51.947,MetaAwareness,2020.1.2,Win32,60,3ZQA3IO31CULCK2A2QAWJR8LUP81O1,A31QBYB6WFWAXV,3M81GAB8A1MSWEVC920R2RBILFAQB4,8G8M6,8G8M6,3M81GAB8A1MSWEVC920R2RBILFAQB4,3M81GAB8A1MSWEVC920R2RBILFAQB4,271016,271016,,,,,,,,,,
,,,,4,1.829,0,24,24,1079,1,flowery couch and chair with basket,flowery couch and chair,wolfe2,112_L_basket,1,26,A31QBYB6WFWAXV,2021-01-24_11h04.51.947,MetaAwareness,2020.1.2,Win32,60,3ZQA3IO31CULCK2A2QAWJR8LUP81O1,A31QBYB6WFWAXV,3M81GAB8A1MSWEVC920R2RBILFAQB4,8G8M6,8G8M6,3M81GAB8A1MSWEVC920R2RBILFAQB4,3M81GAB8A1MSWEVC920R2RBILFAQB4,271016,271016,,,,,,,,,,
,,,,3,1.704,0,25,25,673,1,a comfortable living area with a large mirror above the fireplace and a light sconce on the right side of the mirror,a comfortable living area with a large mirror above the fireplace and a set of light sconces on either side of the mirror,wolfe2,070_L_lamp,2,26,A31QBYB6WFWAXV,2021-01-24_11h04.51.947,MetaAwareness,2020.1.2,Win32,60,3ZQA3IO31CULCK2A2QAWJR8LUP81O1,A31QBYB6WFWAXV,3M81GAB8A1MSWEVC920R2RBILFAQB4,8G8M6,8G8M6,3M81GAB8A1MSWEVC920R2RBILFAQB4,3M81GAB8A1MSWEVC920R2RBILFAQB4,271016,271016,,,,,,,,,,
,,,,4,2.768,0,26,26,114,1,a modern bath with free-standing tub underneath a three pane window to the back yard.,a modern bath with free-standing tub underneath a three pane window to the back yard. the tub drain switch is clearly visible.,wolfe2,012_L_tubaccesory,3,26,A31QBYB6WFWAXV,2021-01-24_11h04.51.947,MetaAwareness,2020.1.2,Win32,60,3ZQA3IO31CULCK2A2QAWJR8LUP81O1,A31QBYB6WFWAXV,3M81GAB8A1MSWEVC920R2RBILFAQB4,8G8M6,8G8M6,3M81GAB8A1MSWEVC920R2RBILFAQB4,3M81GAB8A1MSWEVC920R2RBILFAQB4,271016,271016,,,,,,,,,,
,,,,5,2.162,0,27,27,1144,1,there is a frame,there is an empty wall,wolfe2,119_L_painting,2,26,A31QBYB6WFWAXV,2021-01-24_11h04.51.947,MetaAwareness,2020.1.2,Win32,60,3ZQA3IO31CULCK2A2QAWJR8LUP81O1,A31QBYB6WFWAXV,3M81GAB8A1MSWEVC920R2RBILFAQB4,8G8M6,8G8M6,3M81GAB8A1MSWEVC920R2RBILFAQB4,3M81GAB8A1MSWEVC920R2RBILFAQB4,271016,271016,,,,,,,,,,
,,,,4,2.791,0,28,28,602,1,a fireplace with no wood in it,a fireplace with wood in it,wolfe2,062_R_flowers,6,26,A31QBYB6WFWAXV,2021-01-24_11h04.51.947,MetaAwareness,2020.1.2,Win32,60,3ZQA3IO31CULCK2A2QAWJR8LUP81O1,A31QBYB6WFWAXV,3M81GAB8A1MSWEVC920R2RBILFAQB4,8G8M6,8G8M6,3M81GAB8A1MSWEVC920R2RBILFAQB4,3M81GAB8A1MSWEVC920R2RBILFAQB4,271016,271016,,,,,,,,,,
,,,,5,2.322,0,29,29,130,1,there is only one chanlier  in the room,there is two chanlier in the room,wolfe2,013_R_lamp,1,26,A31QBYB6WFWAXV,2021-01-24_11h04.51.947,MetaAwareness,2020.1.2,Win32,60,3ZQA3IO31CULCK2A2QAWJR8LUP81O1,A31QBYB6WFWAXV,3M81GAB8A1MSWEVC920R2RBILFAQB4,8G8M6,8G8M6,3M81GAB8A1MSWEVC920R2RBILFAQB4,3M81GAB8A1MSWEVC920R2RBILFAQB4,271016,271016,,,,,,,,,,
,,,,,,,,,,,,,,,,26,A31QBYB6WFWAXV,2021-01-24_11h04.51.947,MetaAwareness,2020.1.2,Win32,60,3ZQA3IO31CULCK2A2QAWJR8LUP81O1,A31QBYB6WFWAXV,3M81GAB8A1MSWEVC920R2RBILFAQB4,8G8M6,8G8M6,3M81GAB8A1MSWEVC920R2RBILFAQB4,3M81GAB8A1MSWEVC920R2RBILFAQB4,271016,271016,5,3.488,someone laying underneath a blue beach umbrella on a crowded beach,someone laying underneath a blue beach umbrella on a crowded beach,same,5,3.889,members of a marching band crossing a track that all have feather plumes at the front of their hats,a cluttered and rustic looking cafe with 10 hanging lights,different
