consent_response.keys,consent_response.rt,key_resp_2.keys,key_resp_2.rt,user_resp.keys,user_resp.rt,trials.thisRepN,trials.thisTrialN,trials.thisN,trials.thisIndex,trials.ran,image_1_text,image_2_text,database,image,number,age,worker_ID,date,expName,psychopyVersion,OS,frameRate,hitId,workerId,assignmentId,a,tp_a,b,tp_b,c,tp_c,catch_same_resp.keys,catch_same_resp.rt,image_1_text_catch_same,image_2_text_catch_same,image_catch_same,catch_different_resp.keys,catch_different_resp.rt,image_1_text_catch_different,image_2_text_catch_different,image_catch_different
space,4.053735,space,11.40357,5,22.69832,0,0,0,1238,1,"a home office with built in desk and book shelves, the desk has computer equipment and a plant on it","a home office with built in desk and book shelves, the desk has computer equipment on it",wolfe2,128_R_pot,4,41,A379F1RR5E3SVU,2021-01-24_12h52.59.473,MetaAwareness,2020.1.2,Win32,60,3TZDZ3Y0JT9I5XY401REM1DWZQN19O,A379F1RR5E3SVU,37Z929RLGAB45G461SGHXLW59AXTSO,L2Z76,L2Z76,37Z929RLGAB45G461SGHXLW59AXTSO,37Z929RLGAB45G461SGHXLW59AXTSO,271016,271016,,,,,,,,,,
,,,,4,8.15657,0,1,1,29,1,a view of the city from a hotel window,a view of the city from a hotel window where a cell tower can be seen,wolfe2,004_L_electricalgrid,4,41,A379F1RR5E3SVU,2021-01-24_12h52.59.473,MetaAwareness,2020.1.2,Win32,60,3TZDZ3Y0JT9I5XY401REM1DWZQN19O,A379F1RR5E3SVU,37Z929RLGAB45G461SGHXLW59AXTSO,L2Z76,L2Z76,37Z929RLGAB45G461SGHXLW59AXTSO,37Z929RLGAB45G461SGHXLW59AXTSO,271016,271016,,,,,,,,,,
,,,,5,14.25426,0,2,2,436,1,"a bedroom with a large window, mustard-yellow accents, and a dark bedside table","a bedroom with a large window, mustard-yellow accents, and a dark bedside tablewith and electronic device on it.",wolfe2,045_R_musicdock,3,41,A379F1RR5E3SVU,2021-01-24_12h52.59.473,MetaAwareness,2020.1.2,Win32,60,3TZDZ3Y0JT9I5XY401REM1DWZQN19O,A379F1RR5E3SVU,37Z929RLGAB45G461SGHXLW59AXTSO,L2Z76,L2Z76,37Z929RLGAB45G461SGHXLW59AXTSO,37Z929RLGAB45G461SGHXLW59AXTSO,271016,271016,,,,,,,,,,
,,,,5,9.86856,0,3,3,573,1,a cozy room featuring a beige couch with tan accent pillows,a cozy room featuring a beige couch with tan and black accent pillows,wolfe2,060_L_pillow,4,41,A379F1RR5E3SVU,2021-01-24_12h52.59.473,MetaAwareness,2020.1.2,Win32,60,3TZDZ3Y0JT9I5XY401REM1DWZQN19O,A379F1RR5E3SVU,37Z929RLGAB45G461SGHXLW59AXTSO,L2Z76,L2Z76,37Z929RLGAB45G461SGHXLW59AXTSO,37Z929RLGAB45G461SGHXLW59AXTSO,271016,271016,,,,,,,,,,
,,,,5,9.95907,0,4,4,647,1,very modern dining room with large window and no picture on side table,"very modern dining room with large window and small, white frame with a picture on side table",wolfe2,067_L_painting,4,41,A379F1RR5E3SVU,2021-01-24_12h52.59.473,MetaAwareness,2020.1.2,Win32,60,3TZDZ3Y0JT9I5XY401REM1DWZQN19O,A379F1RR5E3SVU,37Z929RLGAB45G461SGHXLW59AXTSO,L2Z76,L2Z76,37Z929RLGAB45G461SGHXLW59AXTSO,37Z929RLGAB45G461SGHXLW59AXTSO,271016,271016,,,,,,,,,,
,,,,5,7.104045,0,5,5,1018,1,a bedroom with laundry and a hat on the bed,a bedroom with laundry on the bed,wolfe2,105_R_hat,3,41,A379F1RR5E3SVU,2021-01-24_12h52.59.473,MetaAwareness,2020.1.2,Win32,60,3TZDZ3Y0JT9I5XY401REM1DWZQN19O,A379F1RR5E3SVU,37Z929RLGAB45G461SGHXLW59AXTSO,L2Z76,L2Z76,37Z929RLGAB45G461SGHXLW59AXTSO,37Z929RLGAB45G461SGHXLW59AXTSO,271016,271016,,,,,,,,,,
,,,,4,15.86492,0,6,6,122,1,modernistic living and dining combination with single hanging white light over the dining table,modernistic living and dining combination with double hanging white lights over the dining table,wolfe2,013_L_lamp,2,41,A379F1RR5E3SVU,2021-01-24_12h52.59.473,MetaAwareness,2020.1.2,Win32,60,3TZDZ3Y0JT9I5XY401REM1DWZQN19O,A379F1RR5E3SVU,37Z929RLGAB45G461SGHXLW59AXTSO,L2Z76,L2Z76,37Z929RLGAB45G461SGHXLW59AXTSO,37Z929RLGAB45G461SGHXLW59AXTSO,271016,271016,,,,,,,,,,
,,,,5,8.755385,0,7,7,616,1,a large dining room with a lot of natural light and a bottle of alcohol on the side table,a large dining room with a lot of natural light and a few bottles of alcohol on the side table,wolfe2,064_L_bottles,5,41,A379F1RR5E3SVU,2021-01-24_12h52.59.473,MetaAwareness,2020.1.2,Win32,60,3TZDZ3Y0JT9I5XY401REM1DWZQN19O,A379F1RR5E3SVU,37Z929RLGAB45G461SGHXLW59AXTSO,L2Z76,L2Z76,37Z929RLGAB45G461SGHXLW59AXTSO,37Z929RLGAB45G461SGHXLW59AXTSO,271016,271016,,,,,,,,,,
,,,,5,9.367815,0,8,8,272,1,a modern bathroom with a tub filling with water and a hand towel or a vase on the vanity,a modern bathroom with a tub filling with water and two hand towels or vases on the vanity,wolfe2,028_L_vase,4,41,A379F1RR5E3SVU,2021-01-24_12h52.59.473,MetaAwareness,2020.1.2,Win32,60,3TZDZ3Y0JT9I5XY401REM1DWZQN19O,A379F1RR5E3SVU,37Z929RLGAB45G461SGHXLW59AXTSO,L2Z76,L2Z76,37Z929RLGAB45G461SGHXLW59AXTSO,37Z929RLGAB45G461SGHXLW59AXTSO,271016,271016,,,,,,,,,,
,,,,5,5.358675,0,9,9,238,1,a beautiful open air bathroom complete with 2 stacks of towels,a beautiful open air bathroom complete with 3 stacks of towels,wolfe2,024_L_towels,7,41,A379F1RR5E3SVU,2021-01-24_12h52.59.473,MetaAwareness,2020.1.2,Win32,60,3TZDZ3Y0JT9I5XY401REM1DWZQN19O,A379F1RR5E3SVU,37Z929RLGAB45G461SGHXLW59AXTSO,L2Z76,L2Z76,37Z929RLGAB45G461SGHXLW59AXTSO,37Z929RLGAB45G461SGHXLW59AXTSO,271016,271016,,,,,,,,,,
,,,,4,8.30959,0,10,10,99,1,in a well designed bedroom a set of candlesticks appears.one candle is missing.,a set of candlesticks appears on the side table of a bedroom.,wolfe2,010_R_candle,4,41,A379F1RR5E3SVU,2021-01-24_12h52.59.473,MetaAwareness,2020.1.2,Win32,60,3TZDZ3Y0JT9I5XY401REM1DWZQN19O,A379F1RR5E3SVU,37Z929RLGAB45G461SGHXLW59AXTSO,L2Z76,L2Z76,37Z929RLGAB45G461SGHXLW59AXTSO,37Z929RLGAB45G461SGHXLW59AXTSO,271016,271016,,,,,,,,,,
,,,,4,9.84228,0,11,11,1147,1,it is a picture of a grand room with art photos to the left and right of the glass door.,it is a picture of a grand room with an art photo to the left of the glass doors.,wolfe2,119_R_painting,1,41,A379F1RR5E3SVU,2021-01-24_12h52.59.473,MetaAwareness,2020.1.2,Win32,60,3TZDZ3Y0JT9I5XY401REM1DWZQN19O,A379F1RR5E3SVU,37Z929RLGAB45G461SGHXLW59AXTSO,L2Z76,L2Z76,37Z929RLGAB45G461SGHXLW59AXTSO,37Z929RLGAB45G461SGHXLW59AXTSO,271016,271016,,,,,,,,,,
,,,,3,11.5465,0,12,12,885,1,a clean and red-themed bedroom with a vase in the corner,a clean and red-themed bedroom with no vase in the corner,wolfe2,090_R_lamp,5,41,A379F1RR5E3SVU,2021-01-24_12h52.59.473,MetaAwareness,2020.1.2,Win32,60,3TZDZ3Y0JT9I5XY401REM1DWZQN19O,A379F1RR5E3SVU,37Z929RLGAB45G461SGHXLW59AXTSO,L2Z76,L2Z76,37Z929RLGAB45G461SGHXLW59AXTSO,37Z929RLGAB45G461SGHXLW59AXTSO,271016,271016,,,,,,,,,,
,,,,4,13.496345,0,13,13,1217,1,a cozy living room setting with decorative vases on the wall shelves,a cozy living room setting with some wall shelves,wolfe2,126_R_candles,4,41,A379F1RR5E3SVU,2021-01-24_12h52.59.473,MetaAwareness,2020.1.2,Win32,60,3TZDZ3Y0JT9I5XY401REM1DWZQN19O,A379F1RR5E3SVU,37Z929RLGAB45G461SGHXLW59AXTSO,L2Z76,L2Z76,37Z929RLGAB45G461SGHXLW59AXTSO,37Z929RLGAB45G461SGHXLW59AXTSO,271016,271016,,,,,,,,,,
,,,,2,10.64414,0,14,14,443,1,a nice looking hotel room with a television remote on a glass table.,a nice looking hotel room with a bowl sitting on a glass table.,wolfe2,046_R_remote,2,41,A379F1RR5E3SVU,2021-01-24_12h52.59.473,MetaAwareness,2020.1.2,Win32,60,3TZDZ3Y0JT9I5XY401REM1DWZQN19O,A379F1RR5E3SVU,37Z929RLGAB45G461SGHXLW59AXTSO,L2Z76,L2Z76,37Z929RLGAB45G461SGHXLW59AXTSO,37Z929RLGAB45G461SGHXLW59AXTSO,271016,271016,,,,,,,,,,
,,,,4,14.84153,0,15,15,62,1,double sink in a bathroom with large mirror. the right sink has a soap dish with yellow soap.,double sink in a bathroom with large mirror. the sinks each have a soap dish with yellow soap.,wolfe2,007_L_soap,3,41,A379F1RR5E3SVU,2021-01-24_12h52.59.473,MetaAwareness,2020.1.2,Win32,60,3TZDZ3Y0JT9I5XY401REM1DWZQN19O,A379F1RR5E3SVU,37Z929RLGAB45G461SGHXLW59AXTSO,L2Z76,L2Z76,37Z929RLGAB45G461SGHXLW59AXTSO,37Z929RLGAB45G461SGHXLW59AXTSO,271016,271016,,,,,,,,,,
,,,,4,5.12867,0,16,16,38,1,a living room with a red chair,a living room with a red chair and art on a wall,wolfe2,005_L_mirror,4,41,A379F1RR5E3SVU,2021-01-24_12h52.59.473,MetaAwareness,2020.1.2,Win32,60,3TZDZ3Y0JT9I5XY401REM1DWZQN19O,A379F1RR5E3SVU,37Z929RLGAB45G461SGHXLW59AXTSO,L2Z76,L2Z76,37Z929RLGAB45G461SGHXLW59AXTSO,37Z929RLGAB45G461SGHXLW59AXTSO,271016,271016,,,,,,,,,,
,,,,5,13.31793,0,17,17,131,1,a living space with hardwood floors and one light over a wooden table towards the right.,a living space with hardwood floors and two lights over a wodden table towards the right.,wolfe2,013_R_lamp,2,41,A379F1RR5E3SVU,2021-01-24_12h52.59.473,MetaAwareness,2020.1.2,Win32,60,3TZDZ3Y0JT9I5XY401REM1DWZQN19O,A379F1RR5E3SVU,37Z929RLGAB45G461SGHXLW59AXTSO,L2Z76,L2Z76,37Z929RLGAB45G461SGHXLW59AXTSO,37Z929RLGAB45G461SGHXLW59AXTSO,271016,271016,,,,,,,,,,
,,,,5,13.61091,0,18,18,1042,1,a fitting area in a clothing store with mirrors along the wall and a clothes rack with two jackets hanging,a fitting area in a clothing store with mirrors along the wall and a clothes rack with one jacket hanging,wolfe2,107_R_shirts,3,41,A379F1RR5E3SVU,2021-01-24_12h52.59.473,MetaAwareness,2020.1.2,Win32,60,3TZDZ3Y0JT9I5XY401REM1DWZQN19O,A379F1RR5E3SVU,37Z929RLGAB45G461SGHXLW59AXTSO,L2Z76,L2Z76,37Z929RLGAB45G461SGHXLW59AXTSO,37Z929RLGAB45G461SGHXLW59AXTSO,271016,271016,,,,,,,,,,
,,,,3,11.794805,0,19,19,897,1,a living room  with huge sofasets and a fireplace that has containers,a living room with huge sofasets and a fireplace without containers,wolfe2,092_L_candles,3,41,A379F1RR5E3SVU,2021-01-24_12h52.59.473,MetaAwareness,2020.1.2,Win32,60,3TZDZ3Y0JT9I5XY401REM1DWZQN19O,A379F1RR5E3SVU,37Z929RLGAB45G461SGHXLW59AXTSO,L2Z76,L2Z76,37Z929RLGAB45G461SGHXLW59AXTSO,37Z929RLGAB45G461SGHXLW59AXTSO,271016,271016,,,,,,,,,,
,,,,5,14.12741,0,20,20,214,1,a modern kitchen with an island in the middle and two glass bulbous looking lights above it,a modern kitchen with an island in he middle and three glass bulbous looking lights above it,wolfe2,022_R_lamp,1,41,A379F1RR5E3SVU,2021-01-24_12h52.59.473,MetaAwareness,2020.1.2,Win32,60,3TZDZ3Y0JT9I5XY401REM1DWZQN19O,A379F1RR5E3SVU,37Z929RLGAB45G461SGHXLW59AXTSO,L2Z76,L2Z76,37Z929RLGAB45G461SGHXLW59AXTSO,37Z929RLGAB45G461SGHXLW59AXTSO,271016,271016,,,,,,,,,,
,,,,3,15.595055,0,21,21,671,1,a living room with a lot of wood detailing and a built in bookshelf with an empty space on the top,a living room with a lot of wood detailing and a built in bookshelf with a set of candles on the top shelf,wolfe2,069_R_things,4,41,A379F1RR5E3SVU,2021-01-24_12h52.59.473,MetaAwareness,2020.1.2,Win32,60,3TZDZ3Y0JT9I5XY401REM1DWZQN19O,A379F1RR5E3SVU,37Z929RLGAB45G461SGHXLW59AXTSO,L2Z76,L2Z76,37Z929RLGAB45G461SGHXLW59AXTSO,37Z929RLGAB45G461SGHXLW59AXTSO,271016,271016,,,,,,,,,,
,,,,2,7.05699,0,22,22,1213,1,a living room with candles under the tv,a living rooom without any candles near the tv,wolfe2,126_L_candles,4,41,A379F1RR5E3SVU,2021-01-24_12h52.59.473,MetaAwareness,2020.1.2,Win32,60,3TZDZ3Y0JT9I5XY401REM1DWZQN19O,A379F1RR5E3SVU,37Z929RLGAB45G461SGHXLW59AXTSO,L2Z76,L2Z76,37Z929RLGAB45G461SGHXLW59AXTSO,37Z929RLGAB45G461SGHXLW59AXTSO,271016,271016,,,,,,,,,,
,,,,3,6.60902,0,23,23,518,1,a room with bookshelves and an empty box.,a room with bookshelves and a boxed in area filled with wood.,wolfe2,054_R_firewood,1,41,A379F1RR5E3SVU,2021-01-24_12h52.59.473,MetaAwareness,2020.1.2,Win32,60,3TZDZ3Y0JT9I5XY401REM1DWZQN19O,A379F1RR5E3SVU,37Z929RLGAB45G461SGHXLW59AXTSO,L2Z76,L2Z76,37Z929RLGAB45G461SGHXLW59AXTSO,37Z929RLGAB45G461SGHXLW59AXTSO,271016,271016,,,,,,,,,,
,,,,5,15.278915,0,24,24,1101,1,"with open doors, the living room has a small bird decor on the coffee table with 3 other knicknacks","with open doors, the living room has 3 knicknacks on the coffee table",wolfe2,114_R_bird,3,41,A379F1RR5E3SVU,2021-01-24_12h52.59.473,MetaAwareness,2020.1.2,Win32,60,3TZDZ3Y0JT9I5XY401REM1DWZQN19O,A379F1RR5E3SVU,37Z929RLGAB45G461SGHXLW59AXTSO,L2Z76,L2Z76,37Z929RLGAB45G461SGHXLW59AXTSO,37Z929RLGAB45G461SGHXLW59AXTSO,271016,271016,,,,,,,,,,
,,,,3,13.16759,0,25,25,848,1,a very messy bathroom with a crowded sink area and a large ring on the wall between the sink and toilet.,a very messy bathroom with a crowded sink area and nothing hanging on the lower left wall.,wolfe2,087_L_towelhandle,1,41,A379F1RR5E3SVU,2021-01-24_12h52.59.473,MetaAwareness,2020.1.2,Win32,60,3TZDZ3Y0JT9I5XY401REM1DWZQN19O,A379F1RR5E3SVU,37Z929RLGAB45G461SGHXLW59AXTSO,L2Z76,L2Z76,37Z929RLGAB45G461SGHXLW59AXTSO,37Z929RLGAB45G461SGHXLW59AXTSO,271016,271016,,,,,,,,,,
,,,,3,21.1462,0,26,26,1060,1,a small green plant in the corner of the room draws your eye to the view through the wall length windows overlooking the pool.,a carpeted room provides a wonderful view of the pool through many wall length windows and sliding door.,wolfe2,110_L_plant,1,41,A379F1RR5E3SVU,2021-01-24_12h52.59.473,MetaAwareness,2020.1.2,Win32,60,3TZDZ3Y0JT9I5XY401REM1DWZQN19O,A379F1RR5E3SVU,37Z929RLGAB45G461SGHXLW59AXTSO,L2Z76,L2Z76,37Z929RLGAB45G461SGHXLW59AXTSO,37Z929RLGAB45G461SGHXLW59AXTSO,271016,271016,,,,,,,,,,
,,,,3,7.23627,0,27,27,734,1,bathroom with big mirror,bathroom with big mirror and hook for hand towels above the sink,wolfe2,076_L_hook,4,41,A379F1RR5E3SVU,2021-01-24_12h52.59.473,MetaAwareness,2020.1.2,Win32,60,3TZDZ3Y0JT9I5XY401REM1DWZQN19O,A379F1RR5E3SVU,37Z929RLGAB45G461SGHXLW59AXTSO,L2Z76,L2Z76,37Z929RLGAB45G461SGHXLW59AXTSO,37Z929RLGAB45G461SGHXLW59AXTSO,271016,271016,,,,,,,,,,
,,,,3,7.5307,0,28,28,841,1,a stylish apartment with a table holding a book.,a stylish apartment with a table without a book.,wolfe2,086_L_book,4,41,A379F1RR5E3SVU,2021-01-24_12h52.59.473,MetaAwareness,2020.1.2,Win32,60,3TZDZ3Y0JT9I5XY401REM1DWZQN19O,A379F1RR5E3SVU,37Z929RLGAB45G461SGHXLW59AXTSO,L2Z76,L2Z76,37Z929RLGAB45G461SGHXLW59AXTSO,37Z929RLGAB45G461SGHXLW59AXTSO,271016,271016,,,,,,,,,,
,,,,4,9.458075,0,29,29,707,1,a spacious sitting room with a table that has two plants sitting in the middle of it.,a spacious sitting room with a table that has two plants and a book sitting in the middle of it.,wolfe2,074_L_book,1,41,A379F1RR5E3SVU,2021-01-24_12h52.59.473,MetaAwareness,2020.1.2,Win32,60,3TZDZ3Y0JT9I5XY401REM1DWZQN19O,A379F1RR5E3SVU,37Z929RLGAB45G461SGHXLW59AXTSO,L2Z76,L2Z76,37Z929RLGAB45G461SGHXLW59AXTSO,37Z929RLGAB45G461SGHXLW59AXTSO,271016,271016,,,,,,,,,,
,,,,,,,,,,,,,,,,41,A379F1RR5E3SVU,2021-01-24_12h52.59.473,MetaAwareness,2020.1.2,Win32,60,3TZDZ3Y0JT9I5XY401REM1DWZQN19O,A379F1RR5E3SVU,37Z929RLGAB45G461SGHXLW59AXTSO,L2Z76,L2Z76,37Z929RLGAB45G461SGHXLW59AXTSO,37Z929RLGAB45G461SGHXLW59AXTSO,271016,271016,6,13.356185,someone laying underneath a blue beach umbrella on a crowded beach,someone laying underneath a blue beach umbrella on a crowded beach,same,1,12.345745,members of a marching band crossing a track that all have feather plumes at the front of their hats,a cluttered and rustic looking cafe with 10 hanging lights,different
