consent_response.keys,consent_response.rt,key_resp_2.keys,key_resp_2.rt,user_resp.keys,user_resp.rt,trials.thisRepN,trials.thisTrialN,trials.thisN,trials.thisIndex,trials.ran,image_1_text,image_2_text,database,image,number,age,worker_ID,date,expName,psychopyVersion,OS,frameRate,hitId,workerId,assignmentId,a,tp_a,b,tp_b,c,tp_c,catch_same_resp.keys,catch_same_resp.rt,image_1_text_catch_same,image_2_text_catch_same,image_catch_same,catch_different_resp.keys,catch_different_resp.rt,image_1_text_catch_different,image_2_text_catch_different,image_catch_different
space,6.22436,space,22.488305,3,15.9439,0,0,0,320,1,a bedroom with a vase on the shelf,a bedroom without a vase on the shelf,wolfe2,033_R_vase,1,33,A37PUSY6CJ7TQ0,2021-01-24_11h00.02.992,MetaAwareness,2020.1.2,Win32,60,3TZDZ3Y0JT9I5XY401REM1DWZQN19O,A37PUSY6CJ7TQ0,3G5F9DBFOQ0USZUFVT4XUPDOXKWHV7,F95G6,F95G6,3G5F9DBFOQ0USZUFVT4XUPDOXKWHV7,3G5F9DBFOQ0USZUFVT4XUPDOXKWHV7,271016,271016,,,,,,,,,,
,,,,3,17.726035,0,1,1,615,1,a dinnig room with large table and six chairs around. there is a mirror on the wall without bottle of wine at the desk beneath the mirror,a dinning room with large table and six chairs around. there is a mirror on the wall with bottle of wine at the dessk beneath the mirror,wolfe2,064_L_bottles,4,33,A37PUSY6CJ7TQ0,2021-01-24_11h00.02.992,MetaAwareness,2020.1.2,Win32,60,3TZDZ3Y0JT9I5XY401REM1DWZQN19O,A37PUSY6CJ7TQ0,3G5F9DBFOQ0USZUFVT4XUPDOXKWHV7,F95G6,F95G6,3G5F9DBFOQ0USZUFVT4XUPDOXKWHV7,3G5F9DBFOQ0USZUFVT4XUPDOXKWHV7,271016,271016,,,,,,,,,,
,,,,5,12.493165,0,2,2,32,1,a hotel room with a view of the city.,a hotel room with a view of the city that has a tower in the background.,wolfe2,004_R_electricalgrid,2,33,A37PUSY6CJ7TQ0,2021-01-24_11h00.02.992,MetaAwareness,2020.1.2,Win32,60,3TZDZ3Y0JT9I5XY401REM1DWZQN19O,A37PUSY6CJ7TQ0,3G5F9DBFOQ0USZUFVT4XUPDOXKWHV7,F95G6,F95G6,3G5F9DBFOQ0USZUFVT4XUPDOXKWHV7,3G5F9DBFOQ0USZUFVT4XUPDOXKWHV7,271016,271016,,,,,,,,,,
,,,,2,6.133085,0,3,3,1215,1,a living room with a decorative piece of art below the tv.,a living room with no items underneath the tv.,wolfe2,126_R_candles,2,33,A37PUSY6CJ7TQ0,2021-01-24_11h00.02.992,MetaAwareness,2020.1.2,Win32,60,3TZDZ3Y0JT9I5XY401REM1DWZQN19O,A37PUSY6CJ7TQ0,3G5F9DBFOQ0USZUFVT4XUPDOXKWHV7,F95G6,F95G6,3G5F9DBFOQ0USZUFVT4XUPDOXKWHV7,3G5F9DBFOQ0USZUFVT4XUPDOXKWHV7,271016,271016,,,,,,,,,,
,,,,5,6.10611,0,4,4,1122,1,a living room with glass windows and a plant,a living room with glass windows,wolfe2,117_L_plant_sized,1,33,A37PUSY6CJ7TQ0,2021-01-24_11h00.02.992,MetaAwareness,2020.1.2,Win32,60,3TZDZ3Y0JT9I5XY401REM1DWZQN19O,A37PUSY6CJ7TQ0,3G5F9DBFOQ0USZUFVT4XUPDOXKWHV7,F95G6,F95G6,3G5F9DBFOQ0USZUFVT4XUPDOXKWHV7,3G5F9DBFOQ0USZUFVT4XUPDOXKWHV7,271016,271016,,,,,,,,,,
,,,,4,22.186535,0,5,5,1231,1,a hope office that has a white desk with a flower in a pot on the desk,a home office with a white desk with a printer and a laptop on it,wolfe2,128_L_pot,2,33,A37PUSY6CJ7TQ0,2021-01-24_11h00.02.992,MetaAwareness,2020.1.2,Win32,60,3TZDZ3Y0JT9I5XY401REM1DWZQN19O,A37PUSY6CJ7TQ0,3G5F9DBFOQ0USZUFVT4XUPDOXKWHV7,F95G6,F95G6,3G5F9DBFOQ0USZUFVT4XUPDOXKWHV7,3G5F9DBFOQ0USZUFVT4XUPDOXKWHV7,271016,271016,,,,,,,,,,
,,,,3,12.88085,0,6,6,507,1,a bathroom with a wardrobe that contains one drawer,a bathroom with a wardrobe that contains two drawers,wolfe2,053_L_handle,3,33,A37PUSY6CJ7TQ0,2021-01-24_11h00.02.992,MetaAwareness,2020.1.2,Win32,60,3TZDZ3Y0JT9I5XY401REM1DWZQN19O,A37PUSY6CJ7TQ0,3G5F9DBFOQ0USZUFVT4XUPDOXKWHV7,F95G6,F95G6,3G5F9DBFOQ0USZUFVT4XUPDOXKWHV7,3G5F9DBFOQ0USZUFVT4XUPDOXKWHV7,271016,271016,,,,,,,,,,
,,,,4,22.58506,0,7,7,593,1,"a living room decorated in white and red, and with an empty fireplace to one side.","a living room decorated in white and red, and with a portrait in front of the fireplace to one side.",wolfe2,062_L_flowers,1,33,A37PUSY6CJ7TQ0,2021-01-24_11h00.02.992,MetaAwareness,2020.1.2,Win32,60,3TZDZ3Y0JT9I5XY401REM1DWZQN19O,A37PUSY6CJ7TQ0,3G5F9DBFOQ0USZUFVT4XUPDOXKWHV7,F95G6,F95G6,3G5F9DBFOQ0USZUFVT4XUPDOXKWHV7,3G5F9DBFOQ0USZUFVT4XUPDOXKWHV7,271016,271016,,,,,,,,,,
,,,,3,11.576885,0,8,8,663,1,a bathroom with a black bathtub with a missing panel near the faucet,a athroom with a black bathtub with two panels near the faucet.,wolfe2,068_R_faucet,5,33,A37PUSY6CJ7TQ0,2021-01-24_11h00.02.992,MetaAwareness,2020.1.2,Win32,60,3TZDZ3Y0JT9I5XY401REM1DWZQN19O,A37PUSY6CJ7TQ0,3G5F9DBFOQ0USZUFVT4XUPDOXKWHV7,F95G6,F95G6,3G5F9DBFOQ0USZUFVT4XUPDOXKWHV7,3G5F9DBFOQ0USZUFVT4XUPDOXKWHV7,271016,271016,,,,,,,,,,
,,,,5,19.309915,0,9,9,97,1,a bedroom with an accent wall of mirrors and a nightstand with two candle holders - only one containing a candle.,a bedroom with an accent wall of mirrors and a nightstand with two candle holders which both contain candles.,wolfe2,010_R_candle,2,33,A37PUSY6CJ7TQ0,2021-01-24_11h00.02.992,MetaAwareness,2020.1.2,Win32,60,3TZDZ3Y0JT9I5XY401REM1DWZQN19O,A37PUSY6CJ7TQ0,3G5F9DBFOQ0USZUFVT4XUPDOXKWHV7,F95G6,F95G6,3G5F9DBFOQ0USZUFVT4XUPDOXKWHV7,3G5F9DBFOQ0USZUFVT4XUPDOXKWHV7,271016,271016,,,,,,,,,,
,,,,3,11.32925,0,10,10,1051,1,it is a picture of a closet and there is a dresser inside the closet with a blue item on top of the dresser. ,"it is a picture of a closet and there is a dresser inside the closet with several items on top, but no blue items.",wolfe2,108_R_boa,4,33,A37PUSY6CJ7TQ0,2021-01-24_11h00.02.992,MetaAwareness,2020.1.2,Win32,60,3TZDZ3Y0JT9I5XY401REM1DWZQN19O,A37PUSY6CJ7TQ0,3G5F9DBFOQ0USZUFVT4XUPDOXKWHV7,F95G6,F95G6,3G5F9DBFOQ0USZUFVT4XUPDOXKWHV7,3G5F9DBFOQ0USZUFVT4XUPDOXKWHV7,271016,271016,,,,,,,,,,
,,,,4,10.76849,0,11,11,826,1,a bathroom with a big mirror over a sink. there is an outlet on both sides of the mirror.,a bathroom with a big mirror over a sink. there is an outlet on the one side of the mirror near a towel.,wolfe2,085_L_switchboard,1,33,A37PUSY6CJ7TQ0,2021-01-24_11h00.02.992,MetaAwareness,2020.1.2,Win32,60,3TZDZ3Y0JT9I5XY401REM1DWZQN19O,A37PUSY6CJ7TQ0,3G5F9DBFOQ0USZUFVT4XUPDOXKWHV7,F95G6,F95G6,3G5F9DBFOQ0USZUFVT4XUPDOXKWHV7,3G5F9DBFOQ0USZUFVT4XUPDOXKWHV7,271016,271016,,,,,,,,,,
,,,,2,8.120205,0,12,12,1089,1,a plant in the corner of  hotel,a corner with no plant,wolfe2,113_L_plant,3,33,A37PUSY6CJ7TQ0,2021-01-24_11h00.02.992,MetaAwareness,2020.1.2,Win32,60,3TZDZ3Y0JT9I5XY401REM1DWZQN19O,A37PUSY6CJ7TQ0,3G5F9DBFOQ0USZUFVT4XUPDOXKWHV7,F95G6,F95G6,3G5F9DBFOQ0USZUFVT4XUPDOXKWHV7,3G5F9DBFOQ0USZUFVT4XUPDOXKWHV7,271016,271016,,,,,,,,,,
,,,,5,19.943755,0,13,13,1087,1,"a large seating area in a wood paneled room, with a tree behind a plant in the far corner.","a large seating area in a wood paneled room, with a plant in the far corner.",wolfe2,113_L_plant,1,33,A37PUSY6CJ7TQ0,2021-01-24_11h00.02.992,MetaAwareness,2020.1.2,Win32,60,3TZDZ3Y0JT9I5XY401REM1DWZQN19O,A37PUSY6CJ7TQ0,3G5F9DBFOQ0USZUFVT4XUPDOXKWHV7,F95G6,F95G6,3G5F9DBFOQ0USZUFVT4XUPDOXKWHV7,3G5F9DBFOQ0USZUFVT4XUPDOXKWHV7,271016,271016,,,,,,,,,,
,,,,2,9.962565,0,14,14,726,1,there is no light on the ceiling,there is a light in the cielin,wolfe2,075_R_light,4,33,A37PUSY6CJ7TQ0,2021-01-24_11h00.02.992,MetaAwareness,2020.1.2,Win32,60,3TZDZ3Y0JT9I5XY401REM1DWZQN19O,A37PUSY6CJ7TQ0,3G5F9DBFOQ0USZUFVT4XUPDOXKWHV7,F95G6,F95G6,3G5F9DBFOQ0USZUFVT4XUPDOXKWHV7,3G5F9DBFOQ0USZUFVT4XUPDOXKWHV7,271016,271016,,,,,,,,,,
,,,,4,7.90022,0,15,15,383,1," a modern dining room with dark wood furniture, a tan rug, and two pieces of art on the wall","a modern dining room with dark wood furniture, a tan rug, and three pieces of art on the wall",wolfe2,040_R_painting,2,33,A37PUSY6CJ7TQ0,2021-01-24_11h00.02.992,MetaAwareness,2020.1.2,Win32,60,3TZDZ3Y0JT9I5XY401REM1DWZQN19O,A37PUSY6CJ7TQ0,3G5F9DBFOQ0USZUFVT4XUPDOXKWHV7,F95G6,F95G6,3G5F9DBFOQ0USZUFVT4XUPDOXKWHV7,3G5F9DBFOQ0USZUFVT4XUPDOXKWHV7,271016,271016,,,,,,,,,,
,,,,2,13.10306,0,16,16,312,1,bathroom cleaner only one has,bathroom cleaner has two pieces,wolfe2,032_R_bottle,3,33,A37PUSY6CJ7TQ0,2021-01-24_11h00.02.992,MetaAwareness,2020.1.2,Win32,60,3TZDZ3Y0JT9I5XY401REM1DWZQN19O,A37PUSY6CJ7TQ0,3G5F9DBFOQ0USZUFVT4XUPDOXKWHV7,F95G6,F95G6,3G5F9DBFOQ0USZUFVT4XUPDOXKWHV7,3G5F9DBFOQ0USZUFVT4XUPDOXKWHV7,271016,271016,,,,,,,,,,
,,,,5,7.35588,0,17,17,505,1,a large bathroom lined in stone with a cabinet containing one drawer on the bottom.,a large bathroom lined in stone with a cabinet containing two drawers on the bottom.,wolfe2,053_L_handle,1,33,A37PUSY6CJ7TQ0,2021-01-24_11h00.02.992,MetaAwareness,2020.1.2,Win32,60,3TZDZ3Y0JT9I5XY401REM1DWZQN19O,A37PUSY6CJ7TQ0,3G5F9DBFOQ0USZUFVT4XUPDOXKWHV7,F95G6,F95G6,3G5F9DBFOQ0USZUFVT4XUPDOXKWHV7,3G5F9DBFOQ0USZUFVT4XUPDOXKWHV7,271016,271016,,,,,,,,,,
,,,,6,12.600275,0,18,18,606,1,"a common living space type room that blends natural and man-made elements, one of which is a wooden desk","a common living space type room that blends natural and man-made elements, one of which is a wooden desk with a book on top of it.",wolfe2,063_L_laptop,3,33,A37PUSY6CJ7TQ0,2021-01-24_11h00.02.992,MetaAwareness,2020.1.2,Win32,60,3TZDZ3Y0JT9I5XY401REM1DWZQN19O,A37PUSY6CJ7TQ0,3G5F9DBFOQ0USZUFVT4XUPDOXKWHV7,F95G6,F95G6,3G5F9DBFOQ0USZUFVT4XUPDOXKWHV7,3G5F9DBFOQ0USZUFVT4XUPDOXKWHV7,271016,271016,,,,,,,,,,
,,,,1,5.548525,0,19,19,413,1,one of the shelves on the bookcase is empty and has no decorations.,the bookcase has every shelf full of items.,wolfe2,043_R_clock,2,33,A37PUSY6CJ7TQ0,2021-01-24_11h00.02.992,MetaAwareness,2020.1.2,Win32,60,3TZDZ3Y0JT9I5XY401REM1DWZQN19O,A37PUSY6CJ7TQ0,3G5F9DBFOQ0USZUFVT4XUPDOXKWHV7,F95G6,F95G6,3G5F9DBFOQ0USZUFVT4XUPDOXKWHV7,3G5F9DBFOQ0USZUFVT4XUPDOXKWHV7,271016,271016,,,,,,,,,,
,,,,5,13.51639,0,20,20,625,1,"a youth bedroom in tan tones. there's a bed, a desk, and a shelf for media. there are three stacks on the longer shelf.","a youth bedroom in tan tones. there's a bed, a desk, and a shelf for media.  there are four stacks on the longer shelf.",wolfe2,065_L_cd,3,33,A37PUSY6CJ7TQ0,2021-01-24_11h00.02.992,MetaAwareness,2020.1.2,Win32,60,3TZDZ3Y0JT9I5XY401REM1DWZQN19O,A37PUSY6CJ7TQ0,3G5F9DBFOQ0USZUFVT4XUPDOXKWHV7,F95G6,F95G6,3G5F9DBFOQ0USZUFVT4XUPDOXKWHV7,3G5F9DBFOQ0USZUFVT4XUPDOXKWHV7,271016,271016,,,,,,,,,,
,,,,5,8.418715,0,21,21,447,1,a beautiful makeup table with a dark top and bottom and a white center sits in a bedroom,a beautiful makeup table with a dark top and bottom and a white center with some accents sits in a bedroom.,wolfe2,047_L_handle,2,33,A37PUSY6CJ7TQ0,2021-01-24_11h00.02.992,MetaAwareness,2020.1.2,Win32,60,3TZDZ3Y0JT9I5XY401REM1DWZQN19O,A37PUSY6CJ7TQ0,3G5F9DBFOQ0USZUFVT4XUPDOXKWHV7,F95G6,F95G6,3G5F9DBFOQ0USZUFVT4XUPDOXKWHV7,3G5F9DBFOQ0USZUFVT4XUPDOXKWHV7,271016,271016,,,,,,,,,,
,,,,2,6.09659,0,22,22,138,1,a clear wall,a lamp on a wall,wolfe2,014_L_lamp,3,33,A37PUSY6CJ7TQ0,2021-01-24_11h00.02.992,MetaAwareness,2020.1.2,Win32,60,3TZDZ3Y0JT9I5XY401REM1DWZQN19O,A37PUSY6CJ7TQ0,3G5F9DBFOQ0USZUFVT4XUPDOXKWHV7,F95G6,F95G6,3G5F9DBFOQ0USZUFVT4XUPDOXKWHV7,3G5F9DBFOQ0USZUFVT4XUPDOXKWHV7,271016,271016,,,,,,,,,,
,,,,5,13.07019,0,23,23,108,1,a cluttered bathroom with white tiles that has a double sink with a pink soap bottle by the left sink.,a cluttered bathroom with white tiles that has a double sink with a pink soap bottle by the left sink and a brown soap bottle by the right sink.,wolfe2,011_R_parfum,1,33,A37PUSY6CJ7TQ0,2021-01-24_11h00.02.992,MetaAwareness,2020.1.2,Win32,60,3TZDZ3Y0JT9I5XY401REM1DWZQN19O,A37PUSY6CJ7TQ0,3G5F9DBFOQ0USZUFVT4XUPDOXKWHV7,F95G6,F95G6,3G5F9DBFOQ0USZUFVT4XUPDOXKWHV7,3G5F9DBFOQ0USZUFVT4XUPDOXKWHV7,271016,271016,,,,,,,,,,
,,,,2,7.15797,0,24,24,1008,1,there is an object sitting atop a table in this small cafe,there is a table and chairs in this small cafe,wolfe2,104_R_bottle,2,33,A37PUSY6CJ7TQ0,2021-01-24_11h00.02.992,MetaAwareness,2020.1.2,Win32,60,3TZDZ3Y0JT9I5XY401REM1DWZQN19O,A37PUSY6CJ7TQ0,3G5F9DBFOQ0USZUFVT4XUPDOXKWHV7,F95G6,F95G6,3G5F9DBFOQ0USZUFVT4XUPDOXKWHV7,3G5F9DBFOQ0USZUFVT4XUPDOXKWHV7,271016,271016,,,,,,,,,,
,,,,2,12.69651,0,25,25,224,1,there is a tv in this outdoor living space but the tv is missing a remote.,this outdoor living space is complete with everything it needs to function well.,wolfe2,023_L_remote,5,33,A37PUSY6CJ7TQ0,2021-01-24_11h00.02.992,MetaAwareness,2020.1.2,Win32,60,3TZDZ3Y0JT9I5XY401REM1DWZQN19O,A37PUSY6CJ7TQ0,3G5F9DBFOQ0USZUFVT4XUPDOXKWHV7,F95G6,F95G6,3G5F9DBFOQ0USZUFVT4XUPDOXKWHV7,3G5F9DBFOQ0USZUFVT4XUPDOXKWHV7,271016,271016,,,,,,,,,,
,,,,4,11.0587,0,26,26,404,1,a bathroom without tap under the mirror,a bathroom with tap onthe wall,wolfe2,042_R_tap,3,33,A37PUSY6CJ7TQ0,2021-01-24_11h00.02.992,MetaAwareness,2020.1.2,Win32,60,3TZDZ3Y0JT9I5XY401REM1DWZQN19O,A37PUSY6CJ7TQ0,3G5F9DBFOQ0USZUFVT4XUPDOXKWHV7,F95G6,F95G6,3G5F9DBFOQ0USZUFVT4XUPDOXKWHV7,3G5F9DBFOQ0USZUFVT4XUPDOXKWHV7,271016,271016,,,,,,,,,,
,,,,5,7.4872,0,27,27,1028,1,a very monotone public bathroom with a hand dryer by the door,a very monotone public bathroom,wolfe2,106_L_toweldispenser,9,33,A37PUSY6CJ7TQ0,2021-01-24_11h00.02.992,MetaAwareness,2020.1.2,Win32,60,3TZDZ3Y0JT9I5XY401REM1DWZQN19O,A37PUSY6CJ7TQ0,3G5F9DBFOQ0USZUFVT4XUPDOXKWHV7,F95G6,F95G6,3G5F9DBFOQ0USZUFVT4XUPDOXKWHV7,3G5F9DBFOQ0USZUFVT4XUPDOXKWHV7,271016,271016,,,,,,,,,,
,,,,6,11.642265,0,28,28,49,1,"bedroom with four pictures,a mirroe and bed table with lamp","bedroom with four pictures on the wall, a mirror and bed table with lampand vase",wolfe2,006_L_vase,4,33,A37PUSY6CJ7TQ0,2021-01-24_11h00.02.992,MetaAwareness,2020.1.2,Win32,60,3TZDZ3Y0JT9I5XY401REM1DWZQN19O,A37PUSY6CJ7TQ0,3G5F9DBFOQ0USZUFVT4XUPDOXKWHV7,F95G6,F95G6,3G5F9DBFOQ0USZUFVT4XUPDOXKWHV7,3G5F9DBFOQ0USZUFVT4XUPDOXKWHV7,271016,271016,,,,,,,,,,
,,,,4,5.882675,0,29,29,1165,1,a modern bedroom with a remote on the nighstand,a modern bedroom with an empty nightstand,wolfe2,121_R_car,1,33,A37PUSY6CJ7TQ0,2021-01-24_11h00.02.992,MetaAwareness,2020.1.2,Win32,60,3TZDZ3Y0JT9I5XY401REM1DWZQN19O,A37PUSY6CJ7TQ0,3G5F9DBFOQ0USZUFVT4XUPDOXKWHV7,F95G6,F95G6,3G5F9DBFOQ0USZUFVT4XUPDOXKWHV7,3G5F9DBFOQ0USZUFVT4XUPDOXKWHV7,271016,271016,,,,,,,,,,
,,,,,,,,,,,,,,,,33,A37PUSY6CJ7TQ0,2021-01-24_11h00.02.992,MetaAwareness,2020.1.2,Win32,60,3TZDZ3Y0JT9I5XY401REM1DWZQN19O,A37PUSY6CJ7TQ0,3G5F9DBFOQ0USZUFVT4XUPDOXKWHV7,F95G6,F95G6,3G5F9DBFOQ0USZUFVT4XUPDOXKWHV7,3G5F9DBFOQ0USZUFVT4XUPDOXKWHV7,271016,271016,6,10.080655,someone laying underneath a blue beach umbrella on a crowded beach,someone laying underneath a blue beach umbrella on a crowded beach,same,1,9.523125,members of a marching band crossing a track that all have feather plumes at the front of their hats,a cluttered and rustic looking cafe with 10 hanging lights,different
