consent_response.keys,consent_response.rt,key_resp_2.keys,key_resp_2.rt,user_resp.keys,user_resp.rt,trials.thisRepN,trials.thisTrialN,trials.thisN,trials.thisIndex,trials.ran,image_1_text,image_2_text,database,image,number,age,worker_ID,date,expName,psychopyVersion,OS,frameRate,hitId,workerId,assignmentId,a,tp_a,b,tp_b,c,tp_c,catch_same_resp.keys,catch_same_resp.rt,image_1_text_catch_same,image_2_text_catch_same,image_catch_same,catch_different_resp.keys,catch_different_resp.rt,image_1_text_catch_different,image_2_text_catch_different,image_catch_different
space,5.853625,space,1.97916,4,16.61444,0,0,0,1011,1,a kind of messy and cramped bedroom setting with some clothes on the bed including a hat. ,a kind of messy and cramped bedroom setting with some clothes on the bed but no hat. ,wolfe2,105_L_hat,1,67,A3RHWD4XFE8LMI,2021-01-24_11h12.45.345,MetaAwareness,2020.1.2,Win32,60,3ZQA3IO31CULCK2A2QAWJR8LUP81O1,A3RHWD4XFE8LMI,3KKG4CDWKJ12JGTHDLFI8IFN1NP94V,W4KK6,W4KK6,3KKG4CDWKJ12JGTHDLFI8IFN1NP94V,3KKG4CDWKJ12JGTHDLFI8IFN1NP94V,271016,271016,,,,,,,,,,
,,,,3,14.52334,0,1,1,756,1,a fancy home bathroom with one know for turning on water.,a fancy home bathroom with two knobs for turning on water.,wolfe2,078_L_faucet,5,67,A3RHWD4XFE8LMI,2021-01-24_11h12.45.345,MetaAwareness,2020.1.2,Win32,60,3ZQA3IO31CULCK2A2QAWJR8LUP81O1,A3RHWD4XFE8LMI,3KKG4CDWKJ12JGTHDLFI8IFN1NP94V,W4KK6,W4KK6,3KKG4CDWKJ12JGTHDLFI8IFN1NP94V,3KKG4CDWKJ12JGTHDLFI8IFN1NP94V,271016,271016,,,,,,,,,,
,,,,2,9.60968,0,2,2,1208,1,there is a box on the right side of the large living room,there is nothing on the right side of the large living room,wolfe2,125_R_sofa,3,67,A3RHWD4XFE8LMI,2021-01-24_11h12.45.345,MetaAwareness,2020.1.2,Win32,60,3ZQA3IO31CULCK2A2QAWJR8LUP81O1,A3RHWD4XFE8LMI,3KKG4CDWKJ12JGTHDLFI8IFN1NP94V,W4KK6,W4KK6,3KKG4CDWKJ12JGTHDLFI8IFN1NP94V,3KKG4CDWKJ12JGTHDLFI8IFN1NP94V,271016,271016,,,,,,,,,,
,,,,1,8.943145,0,3,3,1231,1,a hope office that has a white desk with a flower in a pot on the desk,a home office with a white desk with a printer and a laptop on it,wolfe2,128_L_pot,2,67,A3RHWD4XFE8LMI,2021-01-24_11h12.45.345,MetaAwareness,2020.1.2,Win32,60,3ZQA3IO31CULCK2A2QAWJR8LUP81O1,A3RHWD4XFE8LMI,3KKG4CDWKJ12JGTHDLFI8IFN1NP94V,W4KK6,W4KK6,3KKG4CDWKJ12JGTHDLFI8IFN1NP94V,3KKG4CDWKJ12JGTHDLFI8IFN1NP94V,271016,271016,,,,,,,,,,
,,,,4,9.313875,0,4,4,337,1,nice hotel room with pillows on the bed and two vases on the table,nice hotel room with pillows on the bed and two vases and a bowle on the table ,wolfe2,035_L_fruit,5,67,A3RHWD4XFE8LMI,2021-01-24_11h12.45.345,MetaAwareness,2020.1.2,Win32,60,3ZQA3IO31CULCK2A2QAWJR8LUP81O1,A3RHWD4XFE8LMI,3KKG4CDWKJ12JGTHDLFI8IFN1NP94V,W4KK6,W4KK6,3KKG4CDWKJ12JGTHDLFI8IFN1NP94V,3KKG4CDWKJ12JGTHDLFI8IFN1NP94V,271016,271016,,,,,,,,,,
,,,,5,8.31782,0,5,5,961,1,a modern dining room with a three candlesticks hanging off the wall,a modern dining room with two candlesticks hanging off the wall,wolfe2,099_R_sconce,1,67,A3RHWD4XFE8LMI,2021-01-24_11h12.45.345,MetaAwareness,2020.1.2,Win32,60,3ZQA3IO31CULCK2A2QAWJR8LUP81O1,A3RHWD4XFE8LMI,3KKG4CDWKJ12JGTHDLFI8IFN1NP94V,W4KK6,W4KK6,3KKG4CDWKJ12JGTHDLFI8IFN1NP94V,3KKG4CDWKJ12JGTHDLFI8IFN1NP94V,271016,271016,,,,,,,,,,
,,,,4,9.338605,0,6,6,1196,1,"a sunroom with large windows, white chairs, a blue and white rug, and a white table","a sunroom with large windows, white table and chairs, a blue and white rug, and ",wolfe2,124_R_vase,1,67,A3RHWD4XFE8LMI,2021-01-24_11h12.45.345,MetaAwareness,2020.1.2,Win32,60,3ZQA3IO31CULCK2A2QAWJR8LUP81O1,A3RHWD4XFE8LMI,3KKG4CDWKJ12JGTHDLFI8IFN1NP94V,W4KK6,W4KK6,3KKG4CDWKJ12JGTHDLFI8IFN1NP94V,3KKG4CDWKJ12JGTHDLFI8IFN1NP94V,271016,271016,,,,,,,,,,
,,,,5,6.739115,0,7,7,502,1,a furnished living room with mounted tv and speakers,"a furnished living room with mounted tv, speakers, and a sound bar",wolfe2,052_R_speaker,2,67,A3RHWD4XFE8LMI,2021-01-24_11h12.45.345,MetaAwareness,2020.1.2,Win32,60,3ZQA3IO31CULCK2A2QAWJR8LUP81O1,A3RHWD4XFE8LMI,3KKG4CDWKJ12JGTHDLFI8IFN1NP94V,W4KK6,W4KK6,3KKG4CDWKJ12JGTHDLFI8IFN1NP94V,3KKG4CDWKJ12JGTHDLFI8IFN1NP94V,271016,271016,,,,,,,,,,
,,,,4,9.81044,0,8,8,1124,1," room with four doors to the yard , a couch with pillows and a plant on a stand","room with four doors to the yard, a couch with pillows and an empty stand",wolfe2,117_L_plant_sized,3,67,A3RHWD4XFE8LMI,2021-01-24_11h12.45.345,MetaAwareness,2020.1.2,Win32,60,3ZQA3IO31CULCK2A2QAWJR8LUP81O1,A3RHWD4XFE8LMI,3KKG4CDWKJ12JGTHDLFI8IFN1NP94V,W4KK6,W4KK6,3KKG4CDWKJ12JGTHDLFI8IFN1NP94V,3KKG4CDWKJ12JGTHDLFI8IFN1NP94V,271016,271016,,,,,,,,,,
,,,,3,7.70829,0,9,9,352,1,a modern and red kitchen without any bowls on the display shelf,a modern and red kitchen that has bowls on a display shelf for easy use,wolfe2,036_R_bowl,5,67,A3RHWD4XFE8LMI,2021-01-24_11h12.45.345,MetaAwareness,2020.1.2,Win32,60,3ZQA3IO31CULCK2A2QAWJR8LUP81O1,A3RHWD4XFE8LMI,3KKG4CDWKJ12JGTHDLFI8IFN1NP94V,W4KK6,W4KK6,3KKG4CDWKJ12JGTHDLFI8IFN1NP94V,3KKG4CDWKJ12JGTHDLFI8IFN1NP94V,271016,271016,,,,,,,,,,
,,,,2,9.452955,0,10,10,702,1,aa nice kitchen with marble counter tops an island and a what looks like pasta next to a double oven,a nice well lit kitchen with hardwood floors and what looks like dry pasta next to a double oven.,wolfe2,073_L_coffeemug,4,67,A3RHWD4XFE8LMI,2021-01-24_11h12.45.345,MetaAwareness,2020.1.2,Win32,60,3ZQA3IO31CULCK2A2QAWJR8LUP81O1,A3RHWD4XFE8LMI,3KKG4CDWKJ12JGTHDLFI8IFN1NP94V,W4KK6,W4KK6,3KKG4CDWKJ12JGTHDLFI8IFN1NP94V,3KKG4CDWKJ12JGTHDLFI8IFN1NP94V,271016,271016,,,,,,,,,,
,,,,4,10.38108,0,11,11,941,1,"a large bedroom with a large bed with brown bedding and a large wall mirror, with a dimly lit sconce on the wall","a large bedroom with a large bed with brown bedding and a large wall mirror, with no wall sconce",wolfe2,097_R_light,1,67,A3RHWD4XFE8LMI,2021-01-24_11h12.45.345,MetaAwareness,2020.1.2,Win32,60,3ZQA3IO31CULCK2A2QAWJR8LUP81O1,A3RHWD4XFE8LMI,3KKG4CDWKJ12JGTHDLFI8IFN1NP94V,W4KK6,W4KK6,3KKG4CDWKJ12JGTHDLFI8IFN1NP94V,3KKG4CDWKJ12JGTHDLFI8IFN1NP94V,271016,271016,,,,,,,,,,
,,,,5,7.482395,0,12,12,105,1,"a bright, modern bathroom with 1 bottle on the counter","a bright, modern bathroom with 2 bottles on the counter",wolfe2,011_L_parfum,2,67,A3RHWD4XFE8LMI,2021-01-24_11h12.45.345,MetaAwareness,2020.1.2,Win32,60,3ZQA3IO31CULCK2A2QAWJR8LUP81O1,A3RHWD4XFE8LMI,3KKG4CDWKJ12JGTHDLFI8IFN1NP94V,W4KK6,W4KK6,3KKG4CDWKJ12JGTHDLFI8IFN1NP94V,3KKG4CDWKJ12JGTHDLFI8IFN1NP94V,271016,271016,,,,,,,,,,
,,,,2,6.183275,0,13,13,729,1,wholesome loving family kitchen,well to do family kitchen,wolfe2,075_R_light,7,67,A3RHWD4XFE8LMI,2021-01-24_11h12.45.345,MetaAwareness,2020.1.2,Win32,60,3ZQA3IO31CULCK2A2QAWJR8LUP81O1,A3RHWD4XFE8LMI,3KKG4CDWKJ12JGTHDLFI8IFN1NP94V,W4KK6,W4KK6,3KKG4CDWKJ12JGTHDLFI8IFN1NP94V,3KKG4CDWKJ12JGTHDLFI8IFN1NP94V,271016,271016,,,,,,,,,,
,,,,5,7.261495,0,14,14,401,1,tranquil and modern bathroom with one faucet and two sink bowls,tranquil and modern bathroom with two faucets and sinks,wolfe2,042_L_tap,6,67,A3RHWD4XFE8LMI,2021-01-24_11h12.45.345,MetaAwareness,2020.1.2,Win32,60,3ZQA3IO31CULCK2A2QAWJR8LUP81O1,A3RHWD4XFE8LMI,3KKG4CDWKJ12JGTHDLFI8IFN1NP94V,W4KK6,W4KK6,3KKG4CDWKJ12JGTHDLFI8IFN1NP94V,3KKG4CDWKJ12JGTHDLFI8IFN1NP94V,271016,271016,,,,,,,,,,
,,,,2,7.48298,0,15,15,1236,1,an office area with a book shelf and desk.  the desk has a lamp on the left side. ,an office area with a book shelf and desk.,wolfe2,128_R_pot,2,67,A3RHWD4XFE8LMI,2021-01-24_11h12.45.345,MetaAwareness,2020.1.2,Win32,60,3ZQA3IO31CULCK2A2QAWJR8LUP81O1,A3RHWD4XFE8LMI,3KKG4CDWKJ12JGTHDLFI8IFN1NP94V,W4KK6,W4KK6,3KKG4CDWKJ12JGTHDLFI8IFN1NP94V,3KKG4CDWKJ12JGTHDLFI8IFN1NP94V,271016,271016,,,,,,,,,,
,,,,4,10.999115,0,16,16,1137,1,"a carpeted furnished living room, there a potted plant near the sliding glass doors with shoes in front of it",a carpeted furnished living with a potted plant near the sliding glass doors,wolfe2,118_R_shoes,1,67,A3RHWD4XFE8LMI,2021-01-24_11h12.45.345,MetaAwareness,2020.1.2,Win32,60,3ZQA3IO31CULCK2A2QAWJR8LUP81O1,A3RHWD4XFE8LMI,3KKG4CDWKJ12JGTHDLFI8IFN1NP94V,W4KK6,W4KK6,3KKG4CDWKJ12JGTHDLFI8IFN1NP94V,3KKG4CDWKJ12JGTHDLFI8IFN1NP94V,271016,271016,,,,,,,,,,
,,,,3,7.426055,0,17,17,557,1,a frilly bedroom with a fur table,a frilly bedroom with a fur table with something on it,wolfe2,058_L_clutch,4,67,A3RHWD4XFE8LMI,2021-01-24_11h12.45.345,MetaAwareness,2020.1.2,Win32,60,3ZQA3IO31CULCK2A2QAWJR8LUP81O1,A3RHWD4XFE8LMI,3KKG4CDWKJ12JGTHDLFI8IFN1NP94V,W4KK6,W4KK6,3KKG4CDWKJ12JGTHDLFI8IFN1NP94V,3KKG4CDWKJ12JGTHDLFI8IFN1NP94V,271016,271016,,,,,,,,,,
,,,,2,4.983875,0,18,18,800,1,a fully furnished bedroom with an enclosed dresser,a full furnished bedroom with an enclosed dressed with a dishsitting upon itnum_enter,wolfe2,082_R_bowl,6,67,A3RHWD4XFE8LMI,2021-01-24_11h12.45.345,MetaAwareness,2020.1.2,Win32,60,3ZQA3IO31CULCK2A2QAWJR8LUP81O1,A3RHWD4XFE8LMI,3KKG4CDWKJ12JGTHDLFI8IFN1NP94V,W4KK6,W4KK6,3KKG4CDWKJ12JGTHDLFI8IFN1NP94V,3KKG4CDWKJ12JGTHDLFI8IFN1NP94V,271016,271016,,,,,,,,,,
,,,,3,5.64151,0,19,19,1122,1,a living room with glass windows and a plant,a living room with glass windows,wolfe2,117_L_plant_sized,1,67,A3RHWD4XFE8LMI,2021-01-24_11h12.45.345,MetaAwareness,2020.1.2,Win32,60,3ZQA3IO31CULCK2A2QAWJR8LUP81O1,A3RHWD4XFE8LMI,3KKG4CDWKJ12JGTHDLFI8IFN1NP94V,W4KK6,W4KK6,3KKG4CDWKJ12JGTHDLFI8IFN1NP94V,3KKG4CDWKJ12JGTHDLFI8IFN1NP94V,271016,271016,,,,,,,,,,
,,,,3,7.230405,0,20,20,739,1,the wall is bare in this spacious bathroom,there is a towel hook on the wall in this spacious bathroom,wolfe2,076_R_hook,3,67,A3RHWD4XFE8LMI,2021-01-24_11h12.45.345,MetaAwareness,2020.1.2,Win32,60,3ZQA3IO31CULCK2A2QAWJR8LUP81O1,A3RHWD4XFE8LMI,3KKG4CDWKJ12JGTHDLFI8IFN1NP94V,W4KK6,W4KK6,3KKG4CDWKJ12JGTHDLFI8IFN1NP94V,3KKG4CDWKJ12JGTHDLFI8IFN1NP94V,271016,271016,,,,,,,,,,
,,,,5,7.668175,0,21,21,142,1,a dining area froma  restaurant with three lights on the wall,a dining area from a restaurant with four lights on the wall,wolfe2,014_R_lamp,3,67,A3RHWD4XFE8LMI,2021-01-24_11h12.45.345,MetaAwareness,2020.1.2,Win32,60,3ZQA3IO31CULCK2A2QAWJR8LUP81O1,A3RHWD4XFE8LMI,3KKG4CDWKJ12JGTHDLFI8IFN1NP94V,W4KK6,W4KK6,3KKG4CDWKJ12JGTHDLFI8IFN1NP94V,3KKG4CDWKJ12JGTHDLFI8IFN1NP94V,271016,271016,,,,,,,,,,
,,,,6,9.36602,0,22,22,914,1,"a hotel room with two beds and a painting hanging on the wall, with a wall switch on the wall between the beds","a hotel room with two beds and a painting hanging on the wall, with no wall switch on the wall between the beds",wolfe2,093_R_switch,2,67,A3RHWD4XFE8LMI,2021-01-24_11h12.45.345,MetaAwareness,2020.1.2,Win32,60,3ZQA3IO31CULCK2A2QAWJR8LUP81O1,A3RHWD4XFE8LMI,3KKG4CDWKJ12JGTHDLFI8IFN1NP94V,W4KK6,W4KK6,3KKG4CDWKJ12JGTHDLFI8IFN1NP94V,3KKG4CDWKJ12JGTHDLFI8IFN1NP94V,271016,271016,,,,,,,,,,
,,,,4,9.039435,0,23,23,189,1,there is white side panelling on the side of a modern house.,there is a streetlight on the white panelling on the side of a modern house.,wolfe2,019_R_lamp_sized,4,67,A3RHWD4XFE8LMI,2021-01-24_11h12.45.345,MetaAwareness,2020.1.2,Win32,60,3ZQA3IO31CULCK2A2QAWJR8LUP81O1,A3RHWD4XFE8LMI,3KKG4CDWKJ12JGTHDLFI8IFN1NP94V,W4KK6,W4KK6,3KKG4CDWKJ12JGTHDLFI8IFN1NP94V,3KKG4CDWKJ12JGTHDLFI8IFN1NP94V,271016,271016,,,,,,,,,,
,,,,5,6.600155,0,24,24,64,1,a colorful bathroom with a empty white tray.,a colorful bathroom with a small pot on the white tray.,wolfe2,007_L_soap,5,67,A3RHWD4XFE8LMI,2021-01-24_11h12.45.345,MetaAwareness,2020.1.2,Win32,60,3ZQA3IO31CULCK2A2QAWJR8LUP81O1,A3RHWD4XFE8LMI,3KKG4CDWKJ12JGTHDLFI8IFN1NP94V,W4KK6,W4KK6,3KKG4CDWKJ12JGTHDLFI8IFN1NP94V,3KKG4CDWKJ12JGTHDLFI8IFN1NP94V,271016,271016,,,,,,,,,,
,,,,5,7.32485,0,25,25,753,1,a black bathroom vanity with one faucet handle under a white-framed mirror,a black bathroom vanity with two faucet handles under a white-framed mirror,wolfe2,078_L_faucet,2,67,A3RHWD4XFE8LMI,2021-01-24_11h12.45.345,MetaAwareness,2020.1.2,Win32,60,3ZQA3IO31CULCK2A2QAWJR8LUP81O1,A3RHWD4XFE8LMI,3KKG4CDWKJ12JGTHDLFI8IFN1NP94V,W4KK6,W4KK6,3KKG4CDWKJ12JGTHDLFI8IFN1NP94V,3KKG4CDWKJ12JGTHDLFI8IFN1NP94V,271016,271016,,,,,,,,,,
,,,,5,7.68914,0,26,26,218,1,nice kitchen with an island. the island has two hanging lights above it,nice kitchen with an island. the island has three hanging lights above it,wolfe2,022_R_lamp,5,67,A3RHWD4XFE8LMI,2021-01-24_11h12.45.345,MetaAwareness,2020.1.2,Win32,60,3ZQA3IO31CULCK2A2QAWJR8LUP81O1,A3RHWD4XFE8LMI,3KKG4CDWKJ12JGTHDLFI8IFN1NP94V,W4KK6,W4KK6,3KKG4CDWKJ12JGTHDLFI8IFN1NP94V,3KKG4CDWKJ12JGTHDLFI8IFN1NP94V,271016,271016,,,,,,,,,,
,,,,4,6.538315,0,27,27,670,1,"a small living area with brown furniture, and a brown fireplace, as well as a brown shelf",a small living area with wooden material furniture and a decorations on the brown shelf,wolfe2,069_R_things,3,67,A3RHWD4XFE8LMI,2021-01-24_11h12.45.345,MetaAwareness,2020.1.2,Win32,60,3ZQA3IO31CULCK2A2QAWJR8LUP81O1,A3RHWD4XFE8LMI,3KKG4CDWKJ12JGTHDLFI8IFN1NP94V,W4KK6,W4KK6,3KKG4CDWKJ12JGTHDLFI8IFN1NP94V,3KKG4CDWKJ12JGTHDLFI8IFN1NP94V,271016,271016,,,,,,,,,,
,,,,5,7.040505,0,28,28,429,1,hotel bedroom with yellow and black decor,hotel bedroom with yellow and black decor and clock radio,wolfe2,045_L_musicdock,1,67,A3RHWD4XFE8LMI,2021-01-24_11h12.45.345,MetaAwareness,2020.1.2,Win32,60,3ZQA3IO31CULCK2A2QAWJR8LUP81O1,A3RHWD4XFE8LMI,3KKG4CDWKJ12JGTHDLFI8IFN1NP94V,W4KK6,W4KK6,3KKG4CDWKJ12JGTHDLFI8IFN1NP94V,3KKG4CDWKJ12JGTHDLFI8IFN1NP94V,271016,271016,,,,,,,,,,
,,,,6,8.98944,0,29,29,298,1,a very nice rustic living room with one large wooden beam on the ceiling,a very nice rustic living room with large wooden beams on the celing.,wolfe2,031_L_log,2,67,A3RHWD4XFE8LMI,2021-01-24_11h12.45.345,MetaAwareness,2020.1.2,Win32,60,3ZQA3IO31CULCK2A2QAWJR8LUP81O1,A3RHWD4XFE8LMI,3KKG4CDWKJ12JGTHDLFI8IFN1NP94V,W4KK6,W4KK6,3KKG4CDWKJ12JGTHDLFI8IFN1NP94V,3KKG4CDWKJ12JGTHDLFI8IFN1NP94V,271016,271016,,,,,,,,,,
,,,,,,,,,,,,,,,,67,A3RHWD4XFE8LMI,2021-01-24_11h12.45.345,MetaAwareness,2020.1.2,Win32,60,3ZQA3IO31CULCK2A2QAWJR8LUP81O1,A3RHWD4XFE8LMI,3KKG4CDWKJ12JGTHDLFI8IFN1NP94V,W4KK6,W4KK6,3KKG4CDWKJ12JGTHDLFI8IFN1NP94V,3KKG4CDWKJ12JGTHDLFI8IFN1NP94V,271016,271016,6,5.884935,someone laying underneath a blue beach umbrella on a crowded beach,someone laying underneath a blue beach umbrella on a crowded beach,same,2,4.565605,members of a marching band crossing a track that all have feather plumes at the front of their hats,a cluttered and rustic looking cafe with 10 hanging lights,different
