consent_response.keys,consent_response.rt,key_resp_2.keys,key_resp_2.rt,user_resp.keys,user_resp.rt,trials.thisRepN,trials.thisTrialN,trials.thisN,trials.thisIndex,trials.ran,image_1_text,image_2_text,database,image,number,age,worker_ID,date,expName,psychopyVersion,OS,frameRate,hitId,workerId,assignmentId,a,tp_a,b,tp_b,c,tp_c,catch_same_resp.keys,catch_same_resp.rt,image_1_text_catch_same,image_2_text_catch_same,image_catch_same,catch_different_resp.keys,catch_different_resp.rt,image_1_text_catch_different,image_2_text_catch_different,image_catch_different
space,4.78029,space,23.807315,3,16.180085,0,0,0,979,1,a hotel room bathroom with wineglass decore,a hotel bathroom well light with somne of the orginal decor missing,wolfe2,101_R_cup,2,30,A4UIXESOEZI05,2021-01-24_09h55.47.823,MetaAwareness,2020.1.2,Win32,60,3D42WVSDH9YOWD0KFCYFAKAH99OFYP,A4UIXESOEZI05,3S3AMIZX3V8HHAJDIGQ2DCA1KLGCDN,XM3S6,XM3S6,3S3AMIZX3V8HHAJDIGQ2DCA1KLGCDN,3S3AMIZX3V8HHAJDIGQ2DCA1KLGCDN,271016,271016,,,,,,,,,,
,,,,4,9.466685,0,1,1,443,1,a nice looking hotel room with a television remote on a glass table.,a nice looking hotel room with a bowl sitting on a glass table.,wolfe2,046_R_remote,2,30,A4UIXESOEZI05,2021-01-24_09h55.47.823,MetaAwareness,2020.1.2,Win32,60,3D42WVSDH9YOWD0KFCYFAKAH99OFYP,A4UIXESOEZI05,3S3AMIZX3V8HHAJDIGQ2DCA1KLGCDN,XM3S6,XM3S6,3S3AMIZX3V8HHAJDIGQ2DCA1KLGCDN,3S3AMIZX3V8HHAJDIGQ2DCA1KLGCDN,271016,271016,,,,,,,,,,
,,,,5,11.3911,0,2,2,146,1,a quiet living room with 4 ceiling lights,a quiet living room with 6 ceiling lights,wolfe2,015_L_ceilinglight,1,30,A4UIXESOEZI05,2021-01-24_09h55.47.823,MetaAwareness,2020.1.2,Win32,60,3D42WVSDH9YOWD0KFCYFAKAH99OFYP,A4UIXESOEZI05,3S3AMIZX3V8HHAJDIGQ2DCA1KLGCDN,XM3S6,XM3S6,3S3AMIZX3V8HHAJDIGQ2DCA1KLGCDN,3S3AMIZX3V8HHAJDIGQ2DCA1KLGCDN,271016,271016,,,,,,,,,,
,,,,5,12.324465,0,3,3,33,1,"a hotel room with a large window and a dark red lounge chair, with no tower in the distant background outside","a hotel room with a large window and a dark red lounge chair, with a tower in the  distant background outside",wolfe2,004_R_electricalgrid,3,30,A4UIXESOEZI05,2021-01-24_09h55.47.823,MetaAwareness,2020.1.2,Win32,60,3D42WVSDH9YOWD0KFCYFAKAH99OFYP,A4UIXESOEZI05,3S3AMIZX3V8HHAJDIGQ2DCA1KLGCDN,XM3S6,XM3S6,3S3AMIZX3V8HHAJDIGQ2DCA1KLGCDN,3S3AMIZX3V8HHAJDIGQ2DCA1KLGCDN,271016,271016,,,,,,,,,,
,,,,5,4.99258,0,4,4,238,1,a beautiful open air bathroom complete with 2 stacks of towels,a beautiful open air bathroom complete with 3 stacks of towels,wolfe2,024_L_towels,7,30,A4UIXESOEZI05,2021-01-24_09h55.47.823,MetaAwareness,2020.1.2,Win32,60,3D42WVSDH9YOWD0KFCYFAKAH99OFYP,A4UIXESOEZI05,3S3AMIZX3V8HHAJDIGQ2DCA1KLGCDN,XM3S6,XM3S6,3S3AMIZX3V8HHAJDIGQ2DCA1KLGCDN,3S3AMIZX3V8HHAJDIGQ2DCA1KLGCDN,271016,271016,,,,,,,,,,
,,,,4,10.666365,0,5,5,983,1,a nice study room with beautiful view outside,a nice study room with beautiful view outside a small side table is missing in this image. ,wolfe2,102_L_shoppingbag,1,30,A4UIXESOEZI05,2021-01-24_09h55.47.823,MetaAwareness,2020.1.2,Win32,60,3D42WVSDH9YOWD0KFCYFAKAH99OFYP,A4UIXESOEZI05,3S3AMIZX3V8HHAJDIGQ2DCA1KLGCDN,XM3S6,XM3S6,3S3AMIZX3V8HHAJDIGQ2DCA1KLGCDN,3S3AMIZX3V8HHAJDIGQ2DCA1KLGCDN,271016,271016,,,,,,,,,,
,,,,5,7.48402,0,6,6,843,1,a living room with a box on the table,a living room without a box on the table,wolfe2,086_R_book,1,30,A4UIXESOEZI05,2021-01-24_09h55.47.823,MetaAwareness,2020.1.2,Win32,60,3D42WVSDH9YOWD0KFCYFAKAH99OFYP,A4UIXESOEZI05,3S3AMIZX3V8HHAJDIGQ2DCA1KLGCDN,XM3S6,XM3S6,3S3AMIZX3V8HHAJDIGQ2DCA1KLGCDN,3S3AMIZX3V8HHAJDIGQ2DCA1KLGCDN,271016,271016,,,,,,,,,,
,,,,4,9.0501,0,7,7,299,1, i love the room and thereis some things us missing,i love the room and there is nothing is different,wolfe2,031_L_log,3,30,A4UIXESOEZI05,2021-01-24_09h55.47.823,MetaAwareness,2020.1.2,Win32,60,3D42WVSDH9YOWD0KFCYFAKAH99OFYP,A4UIXESOEZI05,3S3AMIZX3V8HHAJDIGQ2DCA1KLGCDN,XM3S6,XM3S6,3S3AMIZX3V8HHAJDIGQ2DCA1KLGCDN,3S3AMIZX3V8HHAJDIGQ2DCA1KLGCDN,271016,271016,,,,,,,,,,
,,,,3,11.195215,0,8,8,1052,1,the room is very  nice to me and there is a beallo is on the chair,there is no beallo no the chair and i like the room,wolfe2,109_L_pillow,1,30,A4UIXESOEZI05,2021-01-24_09h55.47.823,MetaAwareness,2020.1.2,Win32,60,3D42WVSDH9YOWD0KFCYFAKAH99OFYP,A4UIXESOEZI05,3S3AMIZX3V8HHAJDIGQ2DCA1KLGCDN,XM3S6,XM3S6,3S3AMIZX3V8HHAJDIGQ2DCA1KLGCDN,3S3AMIZX3V8HHAJDIGQ2DCA1KLGCDN,271016,271016,,,,,,,,,,
,,,,4,8.283995,0,9,9,335,1,a bedroom with a nightstand table,a bedroom with a nightstand table that has fake fruits on it,wolfe2,035_L_fruit,3,30,A4UIXESOEZI05,2021-01-24_09h55.47.823,MetaAwareness,2020.1.2,Win32,60,3D42WVSDH9YOWD0KFCYFAKAH99OFYP,A4UIXESOEZI05,3S3AMIZX3V8HHAJDIGQ2DCA1KLGCDN,XM3S6,XM3S6,3S3AMIZX3V8HHAJDIGQ2DCA1KLGCDN,3S3AMIZX3V8HHAJDIGQ2DCA1KLGCDN,271016,271016,,,,,,,,,,
,,,,5,3.752085,0,10,10,723,1,a kitchen with 3 in ceiling lights.,a kitchen with 4 in ceiling lights.,wolfe2,075_R_light,1,30,A4UIXESOEZI05,2021-01-24_09h55.47.823,MetaAwareness,2020.1.2,Win32,60,3D42WVSDH9YOWD0KFCYFAKAH99OFYP,A4UIXESOEZI05,3S3AMIZX3V8HHAJDIGQ2DCA1KLGCDN,XM3S6,XM3S6,3S3AMIZX3V8HHAJDIGQ2DCA1KLGCDN,3S3AMIZX3V8HHAJDIGQ2DCA1KLGCDN,271016,271016,,,,,,,,,,
,,,,4,7.776855,0,11,11,1073,1,a sun porch with many plants in front of a window and an empty vase beside them,a sun porch with many plants in front of a window,wolfe2,111_L_pot,5,30,A4UIXESOEZI05,2021-01-24_09h55.47.823,MetaAwareness,2020.1.2,Win32,60,3D42WVSDH9YOWD0KFCYFAKAH99OFYP,A4UIXESOEZI05,3S3AMIZX3V8HHAJDIGQ2DCA1KLGCDN,XM3S6,XM3S6,3S3AMIZX3V8HHAJDIGQ2DCA1KLGCDN,3S3AMIZX3V8HHAJDIGQ2DCA1KLGCDN,271016,271016,,,,,,,,,,
,,,,5,9.003325,0,12,12,421,1,a bathroom with a glass shower and a white bathtub with one light on the side,a bathroom with a glass shower and a white bathtub with two lights on the side,wolfe2,044_L_light,4,30,A4UIXESOEZI05,2021-01-24_09h55.47.823,MetaAwareness,2020.1.2,Win32,60,3D42WVSDH9YOWD0KFCYFAKAH99OFYP,A4UIXESOEZI05,3S3AMIZX3V8HHAJDIGQ2DCA1KLGCDN,XM3S6,XM3S6,3S3AMIZX3V8HHAJDIGQ2DCA1KLGCDN,3S3AMIZX3V8HHAJDIGQ2DCA1KLGCDN,271016,271016,,,,,,,,,,
,,,,3,4.967135,0,13,13,725,1,a kitchen with three ceiling lights,a kitchen with    ,wolfe2,075_R_light,3,30,A4UIXESOEZI05,2021-01-24_09h55.47.823,MetaAwareness,2020.1.2,Win32,60,3D42WVSDH9YOWD0KFCYFAKAH99OFYP,A4UIXESOEZI05,3S3AMIZX3V8HHAJDIGQ2DCA1KLGCDN,XM3S6,XM3S6,3S3AMIZX3V8HHAJDIGQ2DCA1KLGCDN,3S3AMIZX3V8HHAJDIGQ2DCA1KLGCDN,271016,271016,,,,,,,,,,
,,,,5,10.872485,0,14,14,1096,1,a room with open patio doors and a small figurine on a table next to books and a bowl in front of a loveseat,a room with open patio doors and books and a bowl on a table in front of a loveseat,wolfe2,114_L_bird,2,30,A4UIXESOEZI05,2021-01-24_09h55.47.823,MetaAwareness,2020.1.2,Win32,60,3D42WVSDH9YOWD0KFCYFAKAH99OFYP,A4UIXESOEZI05,3S3AMIZX3V8HHAJDIGQ2DCA1KLGCDN,XM3S6,XM3S6,3S3AMIZX3V8HHAJDIGQ2DCA1KLGCDN,3S3AMIZX3V8HHAJDIGQ2DCA1KLGCDN,271016,271016,,,,,,,,,,
,,,,5,4.944565,0,15,15,420,1,a bathroom tub with one light on the side,a bathroom tub with two lights on the side,wolfe2,044_L_light,3,30,A4UIXESOEZI05,2021-01-24_09h55.47.823,MetaAwareness,2020.1.2,Win32,60,3D42WVSDH9YOWD0KFCYFAKAH99OFYP,A4UIXESOEZI05,3S3AMIZX3V8HHAJDIGQ2DCA1KLGCDN,XM3S6,XM3S6,3S3AMIZX3V8HHAJDIGQ2DCA1KLGCDN,3S3AMIZX3V8HHAJDIGQ2DCA1KLGCDN,271016,271016,,,,,,,,,,
,,,,4,9.292885,0,16,16,42,1,"a living room with a computer desk, couch, a window with a city view, and a set of three mirrors on the wall","a living room with a computer desk, couch, and a window with a city view",wolfe2,005_R_mirror,2,30,A4UIXESOEZI05,2021-01-24_09h55.47.823,MetaAwareness,2020.1.2,Win32,60,3D42WVSDH9YOWD0KFCYFAKAH99OFYP,A4UIXESOEZI05,3S3AMIZX3V8HHAJDIGQ2DCA1KLGCDN,XM3S6,XM3S6,3S3AMIZX3V8HHAJDIGQ2DCA1KLGCDN,3S3AMIZX3V8HHAJDIGQ2DCA1KLGCDN,271016,271016,,,,,,,,,,
,,,,4,7.66252,0,17,17,110,1,a bathroom with two sinks. on the left hand side there is a pink soap dispenser,a bathroom with two sinks. on the left hand side there is a pink soap dispenser and on the right hand side there is a red soap dispenser.,wolfe2,011_R_parfum,3,30,A4UIXESOEZI05,2021-01-24_09h55.47.823,MetaAwareness,2020.1.2,Win32,60,3D42WVSDH9YOWD0KFCYFAKAH99OFYP,A4UIXESOEZI05,3S3AMIZX3V8HHAJDIGQ2DCA1KLGCDN,XM3S6,XM3S6,3S3AMIZX3V8HHAJDIGQ2DCA1KLGCDN,3S3AMIZX3V8HHAJDIGQ2DCA1KLGCDN,271016,271016,,,,,,,,,,
,,,,4,5.2582,0,18,18,177,1,a red chair placed on the corner with a plant next to it.,a red chair placed on the corner.,wolfe2,018_L_plant,6,30,A4UIXESOEZI05,2021-01-24_09h55.47.823,MetaAwareness,2020.1.2,Win32,60,3D42WVSDH9YOWD0KFCYFAKAH99OFYP,A4UIXESOEZI05,3S3AMIZX3V8HHAJDIGQ2DCA1KLGCDN,XM3S6,XM3S6,3S3AMIZX3V8HHAJDIGQ2DCA1KLGCDN,3S3AMIZX3V8HHAJDIGQ2DCA1KLGCDN,271016,271016,,,,,,,,,,
,,,,5,7.48408,0,19,19,89,1,a very modern-looking bedroom with a shiny white floor and no rugs,a very modern-looking bedroom with a shiny white floor and a round beige rug,wolfe2,009_R_carpet,3,30,A4UIXESOEZI05,2021-01-24_09h55.47.823,MetaAwareness,2020.1.2,Win32,60,3D42WVSDH9YOWD0KFCYFAKAH99OFYP,A4UIXESOEZI05,3S3AMIZX3V8HHAJDIGQ2DCA1KLGCDN,XM3S6,XM3S6,3S3AMIZX3V8HHAJDIGQ2DCA1KLGCDN,3S3AMIZX3V8HHAJDIGQ2DCA1KLGCDN,271016,271016,,,,,,,,,,
,,,,5,6.831405,0,20,20,16,1,a circular restaurant table with five red napkins,a circular restaurant table with six red napkins,wolfe2,002_R_napkin,3,30,A4UIXESOEZI05,2021-01-24_09h55.47.823,MetaAwareness,2020.1.2,Win32,60,3D42WVSDH9YOWD0KFCYFAKAH99OFYP,A4UIXESOEZI05,3S3AMIZX3V8HHAJDIGQ2DCA1KLGCDN,XM3S6,XM3S6,3S3AMIZX3V8HHAJDIGQ2DCA1KLGCDN,3S3AMIZX3V8HHAJDIGQ2DCA1KLGCDN,271016,271016,,,,,,,,,,
,,,,5,4.527375,0,21,21,1097,1,"a table holding books, pot, teapot and a figure.","a table holding books, pot and teapot.",wolfe2,114_L_bird,3,30,A4UIXESOEZI05,2021-01-24_09h55.47.823,MetaAwareness,2020.1.2,Win32,60,3D42WVSDH9YOWD0KFCYFAKAH99OFYP,A4UIXESOEZI05,3S3AMIZX3V8HHAJDIGQ2DCA1KLGCDN,XM3S6,XM3S6,3S3AMIZX3V8HHAJDIGQ2DCA1KLGCDN,3S3AMIZX3V8HHAJDIGQ2DCA1KLGCDN,271016,271016,,,,,,,,,,
,,,,3,8.877695,0,22,22,919,1,a living room that has a fireplace looking thing that has candles on the shelf that are red,a living room that has a fireplace looking mantle that has white candles on the shelf,wolfe2,095_L_candle,3,30,A4UIXESOEZI05,2021-01-24_09h55.47.823,MetaAwareness,2020.1.2,Win32,60,3D42WVSDH9YOWD0KFCYFAKAH99OFYP,A4UIXESOEZI05,3S3AMIZX3V8HHAJDIGQ2DCA1KLGCDN,XM3S6,XM3S6,3S3AMIZX3V8HHAJDIGQ2DCA1KLGCDN,3S3AMIZX3V8HHAJDIGQ2DCA1KLGCDN,271016,271016,,,,,,,,,,
,,,,5,6.7572,0,23,23,720,1,a kitchen with wood floors and cabinets with 6 overhead lights,a kitchen with wood floors and cabinets with 7 overhead lights,wolfe2,075_L_light,2,30,A4UIXESOEZI05,2021-01-24_09h55.47.823,MetaAwareness,2020.1.2,Win32,60,3D42WVSDH9YOWD0KFCYFAKAH99OFYP,A4UIXESOEZI05,3S3AMIZX3V8HHAJDIGQ2DCA1KLGCDN,XM3S6,XM3S6,3S3AMIZX3V8HHAJDIGQ2DCA1KLGCDN,3S3AMIZX3V8HHAJDIGQ2DCA1KLGCDN,271016,271016,,,,,,,,,,
,,,,2,12.585915,0,24,24,400,1,"this tiled bathroom is cream in color, with brown accents set by the towels and the rug on the floor. ","this lovely tiled bathroom is cream in color, and there are two faucets on the wall, each going into it's own basin, and each has it's own mirror above it. ",wolfe2,042_L_tap,5,30,A4UIXESOEZI05,2021-01-24_09h55.47.823,MetaAwareness,2020.1.2,Win32,60,3D42WVSDH9YOWD0KFCYFAKAH99OFYP,A4UIXESOEZI05,3S3AMIZX3V8HHAJDIGQ2DCA1KLGCDN,XM3S6,XM3S6,3S3AMIZX3V8HHAJDIGQ2DCA1KLGCDN,3S3AMIZX3V8HHAJDIGQ2DCA1KLGCDN,271016,271016,,,,,,,,,,
,,,,4,7.397465,0,25,25,1004,1,a restaruaunt seating area with an extra pillow on a seat,a restaraunt seating area with a seat with only one pillow,wolfe2,104_L_bottle,4,30,A4UIXESOEZI05,2021-01-24_09h55.47.823,MetaAwareness,2020.1.2,Win32,60,3D42WVSDH9YOWD0KFCYFAKAH99OFYP,A4UIXESOEZI05,3S3AMIZX3V8HHAJDIGQ2DCA1KLGCDN,XM3S6,XM3S6,3S3AMIZX3V8HHAJDIGQ2DCA1KLGCDN,3S3AMIZX3V8HHAJDIGQ2DCA1KLGCDN,271016,271016,,,,,,,,,,
,,,,4,9.11973,0,26,26,908,1,a nice hotel room with double beds and there are wall outlets on the right side and in the middle of the beds,a nice hotel room with double beds and there is a wall outlet on the right side of the beds,wolfe2,093_L_switch,5,30,A4UIXESOEZI05,2021-01-24_09h55.47.823,MetaAwareness,2020.1.2,Win32,60,3D42WVSDH9YOWD0KFCYFAKAH99OFYP,A4UIXESOEZI05,3S3AMIZX3V8HHAJDIGQ2DCA1KLGCDN,XM3S6,XM3S6,3S3AMIZX3V8HHAJDIGQ2DCA1KLGCDN,3S3AMIZX3V8HHAJDIGQ2DCA1KLGCDN,271016,271016,,,,,,,,,,
,,,,4,7.563455,0,27,27,556,1,"a girl's bedroom with lots of white, pink, and purple furnishings, and a fluffy white rug over a table","a girl's bedroom with lots of white, pink, and purple furnishing, and some kind of dark purple item of clothing on top of a fluffy white tabletop",wolfe2,058_L_clutch,3,30,A4UIXESOEZI05,2021-01-24_09h55.47.823,MetaAwareness,2020.1.2,Win32,60,3D42WVSDH9YOWD0KFCYFAKAH99OFYP,A4UIXESOEZI05,3S3AMIZX3V8HHAJDIGQ2DCA1KLGCDN,XM3S6,XM3S6,3S3AMIZX3V8HHAJDIGQ2DCA1KLGCDN,3S3AMIZX3V8HHAJDIGQ2DCA1KLGCDN,271016,271016,,,,,,,,,,
,,,,3,8.03631,0,28,28,799,1,a long coffeetable serves as a bedside table.,more items appear on the lower shelf of the coffee table which serves as a bedside stand.,wolfe2,082_R_bowl,5,30,A4UIXESOEZI05,2021-01-24_09h55.47.823,MetaAwareness,2020.1.2,Win32,60,3D42WVSDH9YOWD0KFCYFAKAH99OFYP,A4UIXESOEZI05,3S3AMIZX3V8HHAJDIGQ2DCA1KLGCDN,XM3S6,XM3S6,3S3AMIZX3V8HHAJDIGQ2DCA1KLGCDN,3S3AMIZX3V8HHAJDIGQ2DCA1KLGCDN,271016,271016,,,,,,,,,,
,,,,4,7.695475,0,29,29,1059,1,a very modern and stylish looking room with a large number of windows and an orange pillow on the couch,a very modern and stylish looking room with a large number of windows,wolfe2,109_R_pillow,4,30,A4UIXESOEZI05,2021-01-24_09h55.47.823,MetaAwareness,2020.1.2,Win32,60,3D42WVSDH9YOWD0KFCYFAKAH99OFYP,A4UIXESOEZI05,3S3AMIZX3V8HHAJDIGQ2DCA1KLGCDN,XM3S6,XM3S6,3S3AMIZX3V8HHAJDIGQ2DCA1KLGCDN,3S3AMIZX3V8HHAJDIGQ2DCA1KLGCDN,271016,271016,,,,,,,,,,
,,,,,,,,,,,,,,,,30,A4UIXESOEZI05,2021-01-24_09h55.47.823,MetaAwareness,2020.1.2,Win32,60,3D42WVSDH9YOWD0KFCYFAKAH99OFYP,A4UIXESOEZI05,3S3AMIZX3V8HHAJDIGQ2DCA1KLGCDN,XM3S6,XM3S6,3S3AMIZX3V8HHAJDIGQ2DCA1KLGCDN,3S3AMIZX3V8HHAJDIGQ2DCA1KLGCDN,271016,271016,6,9.39251,someone laying underneath a blue beach umbrella on a crowded beach,someone laying underneath a blue beach umbrella on a crowded beach,same,1,7.341385,members of a marching band crossing a track that all have feather plumes at the front of their hats,a cluttered and rustic looking cafe with 10 hanging lights,different
