consent_response.keys,consent_response.rt,key_resp_2.keys,key_resp_2.rt,user_resp.keys,user_resp.rt,trials.thisRepN,trials.thisTrialN,trials.thisN,trials.thisIndex,trials.ran,image_1_text,image_2_text,database,image,number,age,worker_ID,date,expName,psychopyVersion,OS,frameRate,hitId,workerId,assignmentId,a,tp_a,b,tp_b,c,tp_c,catch_same_resp.keys,catch_same_resp.rt,image_1_text_catch_same,image_2_text_catch_same,image_catch_same,catch_different_resp.keys,catch_different_resp.rt,image_1_text_catch_different,image_2_text_catch_different,image_catch_different
space,6.24085,space,398.15224,5,24.193525,0,0,0,173,1,a back porch with chairs and leafy plants growing close to the ground,"a back porch with chairs, leafy plants growing close to the ground, and a tall stalk with thin spiny leaves",wolfe2,018_L_plant,2,33,A90G0G4SJ26BM,2021-01-24_09h17.53.955,MetaAwareness,2020.1.2,Win32,60,33J5JKFMK71K7ZT547GJWPII7A23Q1,A90G0G4SJ26BM,3YDTZAI2WYJKUBQM980PTCX43BV41B,2ZDY6,2ZDY6,3YDTZAI2WYJKUBQM980PTCX43BV41B,3YDTZAI2WYJKUBQM980PTCX43BV41B,271016,271016,,,,,,,,,,
,,,,4,20.049325,0,1,1,1114,1,"a pretty looking dinning area. there is a sliding door with a potted plant in front of it off to the left near the wall, with some metallic object next to it.",a pretty looking dinning area. there is a sliding door with a potted plant in front of the sliding door. the potted plant is close to the wall and has nothing beside it.,wolfe2,116_L_basket,2,33,A90G0G4SJ26BM,2021-01-24_09h17.53.955,MetaAwareness,2020.1.2,Win32,60,33J5JKFMK71K7ZT547GJWPII7A23Q1,A90G0G4SJ26BM,3YDTZAI2WYJKUBQM980PTCX43BV41B,2ZDY6,2ZDY6,3YDTZAI2WYJKUBQM980PTCX43BV41B,3YDTZAI2WYJKUBQM980PTCX43BV41B,271016,271016,,,,,,,,,,
,,,,5,48.492465,0,2,2,1073,1,a sun porch with many plants in front of a window and an empty vase beside them,a sun porch with many plants in front of a window,wolfe2,111_L_pot,5,33,A90G0G4SJ26BM,2021-01-24_09h17.53.955,MetaAwareness,2020.1.2,Win32,60,33J5JKFMK71K7ZT547GJWPII7A23Q1,A90G0G4SJ26BM,3YDTZAI2WYJKUBQM980PTCX43BV41B,2ZDY6,2ZDY6,3YDTZAI2WYJKUBQM980PTCX43BV41B,3YDTZAI2WYJKUBQM980PTCX43BV41B,271016,271016,,,,,,,,,,
,,,,5,7.63351,0,3,3,282,1,a nice bathroom with two sinks and two red cups sitting on a shelf,a nice bathroom with two sinks and three red cups sitting on a shelf.,wolfe2,029_R_glass,1,33,A90G0G4SJ26BM,2021-01-24_09h17.53.955,MetaAwareness,2020.1.2,Win32,60,33J5JKFMK71K7ZT547GJWPII7A23Q1,A90G0G4SJ26BM,3YDTZAI2WYJKUBQM980PTCX43BV41B,2ZDY6,2ZDY6,3YDTZAI2WYJKUBQM980PTCX43BV41B,3YDTZAI2WYJKUBQM980PTCX43BV41B,271016,271016,,,,,,,,,,
,,,,5,10.104535,0,4,4,39,1,modern apartment with bare wall over couch.,modern apartment with mirror over couch.,wolfe2,005_L_mirror,5,33,A90G0G4SJ26BM,2021-01-24_09h17.53.955,MetaAwareness,2020.1.2,Win32,60,33J5JKFMK71K7ZT547GJWPII7A23Q1,A90G0G4SJ26BM,3YDTZAI2WYJKUBQM980PTCX43BV41B,2ZDY6,2ZDY6,3YDTZAI2WYJKUBQM980PTCX43BV41B,3YDTZAI2WYJKUBQM980PTCX43BV41B,271016,271016,,,,,,,,,,
,,,,5,10.034055,0,5,5,945,1,a bedroom with wall light bulb,a bedroom without bulb on the wall ,wolfe2,097_R_light,5,33,A90G0G4SJ26BM,2021-01-24_09h17.53.955,MetaAwareness,2020.1.2,Win32,60,33J5JKFMK71K7ZT547GJWPII7A23Q1,A90G0G4SJ26BM,3YDTZAI2WYJKUBQM980PTCX43BV41B,2ZDY6,2ZDY6,3YDTZAI2WYJKUBQM980PTCX43BV41B,3YDTZAI2WYJKUBQM980PTCX43BV41B,271016,271016,,,,,,,,,,
,,,,3,11.66974,0,6,6,730,1,a ceiling with square designs,a recess lighting in the ceiling itself,wolfe2,075_R_light,8,33,A90G0G4SJ26BM,2021-01-24_09h17.53.955,MetaAwareness,2020.1.2,Win32,60,33J5JKFMK71K7ZT547GJWPII7A23Q1,A90G0G4SJ26BM,3YDTZAI2WYJKUBQM980PTCX43BV41B,2ZDY6,2ZDY6,3YDTZAI2WYJKUBQM980PTCX43BV41B,3YDTZAI2WYJKUBQM980PTCX43BV41B,271016,271016,,,,,,,,,,
,,,,5,6.98453,0,7,7,1138,1,a finshed basment that is well orginzed ,a finished basement that is well orginzed; with the shoes missing,wolfe2,118_R_shoes,2,33,A90G0G4SJ26BM,2021-01-24_09h17.53.955,MetaAwareness,2020.1.2,Win32,60,33J5JKFMK71K7ZT547GJWPII7A23Q1,A90G0G4SJ26BM,3YDTZAI2WYJKUBQM980PTCX43BV41B,2ZDY6,2ZDY6,3YDTZAI2WYJKUBQM980PTCX43BV41B,3YDTZAI2WYJKUBQM980PTCX43BV41B,271016,271016,,,,,,,,,,
,,,,4,32.35235,0,8,8,898,1,a nice living room with large couch and soft cusions,a nice living room with large sofa and soft cushions and missig object under the table,wolfe2,092_L_candles,4,33,A90G0G4SJ26BM,2021-01-24_09h17.53.955,MetaAwareness,2020.1.2,Win32,60,33J5JKFMK71K7ZT547GJWPII7A23Q1,A90G0G4SJ26BM,3YDTZAI2WYJKUBQM980PTCX43BV41B,2ZDY6,2ZDY6,3YDTZAI2WYJKUBQM980PTCX43BV41B,3YDTZAI2WYJKUBQM980PTCX43BV41B,271016,271016,,,,,,,,,,
,,,,5,7.05132,0,9,9,57,1,a nightstand with a lamp,a nightstand with a lamp and vase,wolfe2,006_R_vase,5,33,A90G0G4SJ26BM,2021-01-24_09h17.53.955,MetaAwareness,2020.1.2,Win32,60,33J5JKFMK71K7ZT547GJWPII7A23Q1,A90G0G4SJ26BM,3YDTZAI2WYJKUBQM980PTCX43BV41B,2ZDY6,2ZDY6,3YDTZAI2WYJKUBQM980PTCX43BV41B,3YDTZAI2WYJKUBQM980PTCX43BV41B,271016,271016,,,,,,,,,,
,,,,5,9.42781,0,10,10,468,1,a beautiful bedroom decorated in shades of brown and off white with pictures arranged above the bed,a beautiful bedroom decorated in shades of brown and off white with pictures arranged above the bed and to the right of the dresser,wolfe2,049_L_painting,3,33,A90G0G4SJ26BM,2021-01-24_09h17.53.955,MetaAwareness,2020.1.2,Win32,60,33J5JKFMK71K7ZT547GJWPII7A23Q1,A90G0G4SJ26BM,3YDTZAI2WYJKUBQM980PTCX43BV41B,2ZDY6,2ZDY6,3YDTZAI2WYJKUBQM980PTCX43BV41B,3YDTZAI2WYJKUBQM980PTCX43BV41B,271016,271016,,,,,,,,,,
,,,,5,5.79284,0,11,11,344,1,a red and white kitchen with bowls on a shelf,a red and white colored kitchen with 6 bowls on a shelf,wolfe2,036_L_bowl,1,33,A90G0G4SJ26BM,2021-01-24_09h17.53.955,MetaAwareness,2020.1.2,Win32,60,33J5JKFMK71K7ZT547GJWPII7A23Q1,A90G0G4SJ26BM,3YDTZAI2WYJKUBQM980PTCX43BV41B,2ZDY6,2ZDY6,3YDTZAI2WYJKUBQM980PTCX43BV41B,3YDTZAI2WYJKUBQM980PTCX43BV41B,271016,271016,,,,,,,,,,
,,,,5,10.958265,0,12,12,1037,1,a very clean dressing room.  there is a rack at the end that has some clothes hanging from it,a clean dressing room with a rack at the end and there are some clothes hanging from it.,wolfe2,107_L_shirts,3,33,A90G0G4SJ26BM,2021-01-24_09h17.53.955,MetaAwareness,2020.1.2,Win32,60,33J5JKFMK71K7ZT547GJWPII7A23Q1,A90G0G4SJ26BM,3YDTZAI2WYJKUBQM980PTCX43BV41B,2ZDY6,2ZDY6,3YDTZAI2WYJKUBQM980PTCX43BV41B,3YDTZAI2WYJKUBQM980PTCX43BV41B,271016,271016,,,,,,,,,,
,,,,4,14.75202,0,13,13,1060,1,a small green plant in the corner of the room draws your eye to the view through the wall length windows overlooking the pool.,a carpeted room provides a wonderful view of the pool through many wall length windows and sliding door.,wolfe2,110_L_plant,1,33,A90G0G4SJ26BM,2021-01-24_09h17.53.955,MetaAwareness,2020.1.2,Win32,60,33J5JKFMK71K7ZT547GJWPII7A23Q1,A90G0G4SJ26BM,3YDTZAI2WYJKUBQM980PTCX43BV41B,2ZDY6,2ZDY6,3YDTZAI2WYJKUBQM980PTCX43BV41B,3YDTZAI2WYJKUBQM980PTCX43BV41B,271016,271016,,,,,,,,,,
,,,,5,19.0732,0,14,14,156,1,a beautiful living with nice white couch and chic coffee table and beautiful view outside,a beautiful living room with nice white couch and chic coffee table and beautiful scenery outside and a small sculpture on the left pillar.,wolfe2,016_L_art,3,33,A90G0G4SJ26BM,2021-01-24_09h17.53.955,MetaAwareness,2020.1.2,Win32,60,33J5JKFMK71K7ZT547GJWPII7A23Q1,A90G0G4SJ26BM,3YDTZAI2WYJKUBQM980PTCX43BV41B,2ZDY6,2ZDY6,3YDTZAI2WYJKUBQM980PTCX43BV41B,3YDTZAI2WYJKUBQM980PTCX43BV41B,271016,271016,,,,,,,,,,
,,,,5,37.326915,0,15,15,488,1,a family photo with a mini clock next to it.,a family photo with a mini clock and perfume bottle next to it.,wolfe2,051_L_owl,6,33,A90G0G4SJ26BM,2021-01-24_09h17.53.955,MetaAwareness,2020.1.2,Win32,60,33J5JKFMK71K7ZT547GJWPII7A23Q1,A90G0G4SJ26BM,3YDTZAI2WYJKUBQM980PTCX43BV41B,2ZDY6,2ZDY6,3YDTZAI2WYJKUBQM980PTCX43BV41B,3YDTZAI2WYJKUBQM980PTCX43BV41B,271016,271016,,,,,,,,,,
,,,,5,13.52586,0,16,16,913,1,"this room looks comfortable and plain at the same time.  the outlet, maybe, in the middle provides a little variety.",the missing outlet would probably not be noticed by someone who wasn't expecting it.  the room is plain but the photo does help a little.,wolfe2,093_R_switch,1,33,A90G0G4SJ26BM,2021-01-24_09h17.53.955,MetaAwareness,2020.1.2,Win32,60,33J5JKFMK71K7ZT547GJWPII7A23Q1,A90G0G4SJ26BM,3YDTZAI2WYJKUBQM980PTCX43BV41B,2ZDY6,2ZDY6,3YDTZAI2WYJKUBQM980PTCX43BV41B,3YDTZAI2WYJKUBQM980PTCX43BV41B,271016,271016,,,,,,,,,,
,,,,3,6.526295,0,17,17,851,1,hotel bathroom with a towel hanger by the sink,hotel bathroom with no place to hang a hand towel,wolfe2,087_L_towelhandle,4,33,A90G0G4SJ26BM,2021-01-24_09h17.53.955,MetaAwareness,2020.1.2,Win32,60,33J5JKFMK71K7ZT547GJWPII7A23Q1,A90G0G4SJ26BM,3YDTZAI2WYJKUBQM980PTCX43BV41B,2ZDY6,2ZDY6,3YDTZAI2WYJKUBQM980PTCX43BV41B,3YDTZAI2WYJKUBQM980PTCX43BV41B,271016,271016,,,,,,,,,,
,,,,4,8.58634,0,18,18,388,1,a kitchen with a blue bowl on the counter,a kitchen with a blue bowl on the counter full of oranges,wolfe2,041_L_fruit,2,33,A90G0G4SJ26BM,2021-01-24_09h17.53.955,MetaAwareness,2020.1.2,Win32,60,33J5JKFMK71K7ZT547GJWPII7A23Q1,A90G0G4SJ26BM,3YDTZAI2WYJKUBQM980PTCX43BV41B,2ZDY6,2ZDY6,3YDTZAI2WYJKUBQM980PTCX43BV41B,3YDTZAI2WYJKUBQM980PTCX43BV41B,271016,271016,,,,,,,,,,
,,,,4,5.50191,0,19,19,791,1,a well organized bedroom with a missing silver bowl,a well organized bedroom with a silver bowl on the table,wolfe2,082_L_bowl,1,33,A90G0G4SJ26BM,2021-01-24_09h17.53.955,MetaAwareness,2020.1.2,Win32,60,33J5JKFMK71K7ZT547GJWPII7A23Q1,A90G0G4SJ26BM,3YDTZAI2WYJKUBQM980PTCX43BV41B,2ZDY6,2ZDY6,3YDTZAI2WYJKUBQM980PTCX43BV41B,3YDTZAI2WYJKUBQM980PTCX43BV41B,271016,271016,,,,,,,,,,
,,,,4,8.811015,0,20,20,682,1,a very coy old school looking living room,a very cozy old school looking living room with some flowers on one of the end tables,wolfe2,071_L_art,2,33,A90G0G4SJ26BM,2021-01-24_09h17.53.955,MetaAwareness,2020.1.2,Win32,60,33J5JKFMK71K7ZT547GJWPII7A23Q1,A90G0G4SJ26BM,3YDTZAI2WYJKUBQM980PTCX43BV41B,2ZDY6,2ZDY6,3YDTZAI2WYJKUBQM980PTCX43BV41B,3YDTZAI2WYJKUBQM980PTCX43BV41B,271016,271016,,,,,,,,,,
,,,,4,3.796725,0,21,21,1140,1,a living room with shoes near the door,a living room with no shoes near the door,wolfe2,118_R_shoes,4,33,A90G0G4SJ26BM,2021-01-24_09h17.53.955,MetaAwareness,2020.1.2,Win32,60,33J5JKFMK71K7ZT547GJWPII7A23Q1,A90G0G4SJ26BM,3YDTZAI2WYJKUBQM980PTCX43BV41B,2ZDY6,2ZDY6,3YDTZAI2WYJKUBQM980PTCX43BV41B,3YDTZAI2WYJKUBQM980PTCX43BV41B,271016,271016,,,,,,,,,,
,,,,5,8.76821,0,22,22,1118,1,a large dining room and kitchen with a large window letting light in and a plant on the floor with a pail next to it,a large dining room and kitchen with a large window letting light in and a plant on the floor with no pail next to it,wolfe2,116_R_basket,2,33,A90G0G4SJ26BM,2021-01-24_09h17.53.955,MetaAwareness,2020.1.2,Win32,60,33J5JKFMK71K7ZT547GJWPII7A23Q1,A90G0G4SJ26BM,3YDTZAI2WYJKUBQM980PTCX43BV41B,2ZDY6,2ZDY6,3YDTZAI2WYJKUBQM980PTCX43BV41B,3YDTZAI2WYJKUBQM980PTCX43BV41B,271016,271016,,,,,,,,,,
,,,,5,6.393445,0,23,23,557,1,a frilly bedroom with a fur table,a frilly bedroom with a fur table with something on it,wolfe2,058_L_clutch,4,33,A90G0G4SJ26BM,2021-01-24_09h17.53.955,MetaAwareness,2020.1.2,Win32,60,33J5JKFMK71K7ZT547GJWPII7A23Q1,A90G0G4SJ26BM,3YDTZAI2WYJKUBQM980PTCX43BV41B,2ZDY6,2ZDY6,3YDTZAI2WYJKUBQM980PTCX43BV41B,3YDTZAI2WYJKUBQM980PTCX43BV41B,271016,271016,,,,,,,,,,
,,,,4,8.876975,0,24,24,689,1,black and cream bedroom with bottom left handle missing off 6-drawer dresser,black and cream bedroom with all handles on the 6-drawer dresser,wolfe2,072_L_handle,1,33,A90G0G4SJ26BM,2021-01-24_09h17.53.955,MetaAwareness,2020.1.2,Win32,60,33J5JKFMK71K7ZT547GJWPII7A23Q1,A90G0G4SJ26BM,3YDTZAI2WYJKUBQM980PTCX43BV41B,2ZDY6,2ZDY6,3YDTZAI2WYJKUBQM980PTCX43BV41B,3YDTZAI2WYJKUBQM980PTCX43BV41B,271016,271016,,,,,,,,,,
,,,,4,7.281055,0,25,25,917,1,this object shows a person beauitful and the white bottle,the object shows a person beauitful and the white bottle is missing,wolfe2,095_L_candle,1,33,A90G0G4SJ26BM,2021-01-24_09h17.53.955,MetaAwareness,2020.1.2,Win32,60,33J5JKFMK71K7ZT547GJWPII7A23Q1,A90G0G4SJ26BM,3YDTZAI2WYJKUBQM980PTCX43BV41B,2ZDY6,2ZDY6,3YDTZAI2WYJKUBQM980PTCX43BV41B,3YDTZAI2WYJKUBQM980PTCX43BV41B,271016,271016,,,,,,,,,,
,,,,4,5.452265,0,26,26,318,1,a white living room with no vase on the shelf,a white living room with a glass vase on the shelf,wolfe2,033_L_vase,3,33,A90G0G4SJ26BM,2021-01-24_09h17.53.955,MetaAwareness,2020.1.2,Win32,60,33J5JKFMK71K7ZT547GJWPII7A23Q1,A90G0G4SJ26BM,3YDTZAI2WYJKUBQM980PTCX43BV41B,2ZDY6,2ZDY6,3YDTZAI2WYJKUBQM980PTCX43BV41B,3YDTZAI2WYJKUBQM980PTCX43BV41B,271016,271016,,,,,,,,,,
,,,,5,8.869665,0,27,27,769,1,a kitchen with white cabentry and black countertops and white shelfs that are all filled with diningware except for the top shelf directly to the right of the stove.,a kitchen with white cabintry and black countertops and white shelfs that are filled with diningware.,wolfe2,079_R_bowl,1,33,A90G0G4SJ26BM,2021-01-24_09h17.53.955,MetaAwareness,2020.1.2,Win32,60,33J5JKFMK71K7ZT547GJWPII7A23Q1,A90G0G4SJ26BM,3YDTZAI2WYJKUBQM980PTCX43BV41B,2ZDY6,2ZDY6,3YDTZAI2WYJKUBQM980PTCX43BV41B,3YDTZAI2WYJKUBQM980PTCX43BV41B,271016,271016,,,,,,,,,,
,,,,5,19.9254,0,28,28,616,1,a large dining room with a lot of natural light and a bottle of alcohol on the side table,a large dining room with a lot of natural light and a few bottles of alcohol on the side table,wolfe2,064_L_bottles,5,33,A90G0G4SJ26BM,2021-01-24_09h17.53.955,MetaAwareness,2020.1.2,Win32,60,33J5JKFMK71K7ZT547GJWPII7A23Q1,A90G0G4SJ26BM,3YDTZAI2WYJKUBQM980PTCX43BV41B,2ZDY6,2ZDY6,3YDTZAI2WYJKUBQM980PTCX43BV41B,3YDTZAI2WYJKUBQM980PTCX43BV41B,271016,271016,,,,,,,,,,
,,,,4,5.87687,0,29,29,1224,1,a living room with two wall lights,a living room with one wall light,wolfe2,127_L_light,6,33,A90G0G4SJ26BM,2021-01-24_09h17.53.955,MetaAwareness,2020.1.2,Win32,60,33J5JKFMK71K7ZT547GJWPII7A23Q1,A90G0G4SJ26BM,3YDTZAI2WYJKUBQM980PTCX43BV41B,2ZDY6,2ZDY6,3YDTZAI2WYJKUBQM980PTCX43BV41B,3YDTZAI2WYJKUBQM980PTCX43BV41B,271016,271016,,,,,,,,,,
,,,,,,,,,,,,,,,,33,A90G0G4SJ26BM,2021-01-24_09h17.53.955,MetaAwareness,2020.1.2,Win32,60,33J5JKFMK71K7ZT547GJWPII7A23Q1,A90G0G4SJ26BM,3YDTZAI2WYJKUBQM980PTCX43BV41B,2ZDY6,2ZDY6,3YDTZAI2WYJKUBQM980PTCX43BV41B,3YDTZAI2WYJKUBQM980PTCX43BV41B,271016,271016,6,10.95175,someone laying underneath a blue beach umbrella on a crowded beach,someone laying underneath a blue beach umbrella on a crowded beach,same,1,6.536145,members of a marching band crossing a track that all have feather plumes at the front of their hats,a cluttered and rustic looking cafe with 10 hanging lights,different
