consent_response.keys,consent_response.rt,key_resp_2.keys,key_resp_2.rt,user_resp.keys,user_resp.rt,trials.thisRepN,trials.thisTrialN,trials.thisN,trials.thisIndex,trials.ran,image_1_text,image_2_text,database,image,number,age,worker_ID,date,expName,psychopyVersion,OS,frameRate,hitId,workerId,assignmentId,a,tp_a,b,tp_b,c,tp_c,catch_same_resp.keys,catch_same_resp.rt,image_1_text_catch_same,image_2_text_catch_same,image_catch_same,catch_different_resp.keys,catch_different_resp.rt,image_1_text_catch_different,image_2_text_catch_different,image_catch_different
space,28.816185,space,44.803945,4,37.723665,0,0,0,1001,1,a brown vase on a table in a cozy restaurant,a red candle placed on a table on a cozy restaurant,wolfe2,104_L_bottle,1,32,ABUABR22YMOGG,2021-01-24_14h38.33.123,MetaAwareness,2020.1.2,Win32,60,3EQVJH0T41OCTNSW0WZG5OUFAMNHT4,ABUABR22YMOGG,3RWE2M8QWID69UFAVUBLEGKUP00N02,Q2WR6,Q2WR6,3RWE2M8QWID69UFAVUBLEGKUP00N02,3RWE2M8QWID69UFAVUBLEGKUP00N02,271016,271016,,,,,,,,,,
,,,,5,35.3324,0,1,1,966,1,a modern looking bathroom that has a retractable mirror on the side of the wall,a modern looking bathroom that has a side mirror without a retractable mirror,wolfe2,100_L_mirror,2,32,ABUABR22YMOGG,2021-01-24_14h38.33.123,MetaAwareness,2020.1.2,Win32,60,3EQVJH0T41OCTNSW0WZG5OUFAMNHT4,ABUABR22YMOGG,3RWE2M8QWID69UFAVUBLEGKUP00N02,Q2WR6,Q2WR6,3RWE2M8QWID69UFAVUBLEGKUP00N02,3RWE2M8QWID69UFAVUBLEGKUP00N02,271016,271016,,,,,,,,,,
,,,,4,13.335,0,2,2,934,1,there is a white plastic container on the pink vanity.,there is nothing sitting on top of the pink vanity.,wolfe2,096_R_painting,2,32,ABUABR22YMOGG,2021-01-24_14h38.33.123,MetaAwareness,2020.1.2,Win32,60,3EQVJH0T41OCTNSW0WZG5OUFAMNHT4,ABUABR22YMOGG,3RWE2M8QWID69UFAVUBLEGKUP00N02,Q2WR6,Q2WR6,3RWE2M8QWID69UFAVUBLEGKUP00N02,3RWE2M8QWID69UFAVUBLEGKUP00N02,271016,271016,,,,,,,,,,
,,,,3,13.074465,0,3,3,228,1,an outdoor padio with lighting and a tv,an outdoor padio with a remote missing,wolfe2,023_R_remote,1,32,ABUABR22YMOGG,2021-01-24_14h38.33.123,MetaAwareness,2020.1.2,Win32,60,3EQVJH0T41OCTNSW0WZG5OUFAMNHT4,ABUABR22YMOGG,3RWE2M8QWID69UFAVUBLEGKUP00N02,Q2WR6,Q2WR6,3RWE2M8QWID69UFAVUBLEGKUP00N02,3RWE2M8QWID69UFAVUBLEGKUP00N02,271016,271016,,,,,,,,,,
,,,,5,12.759705,0,4,4,37,1,"a modern living area overlooking a city with a sofa, chair and desk","a modern living area overlooking a city with a sofa with a mirror above it, chair and desk",wolfe2,005_L_mirror,3,32,ABUABR22YMOGG,2021-01-24_14h38.33.123,MetaAwareness,2020.1.2,Win32,60,3EQVJH0T41OCTNSW0WZG5OUFAMNHT4,ABUABR22YMOGG,3RWE2M8QWID69UFAVUBLEGKUP00N02,Q2WR6,Q2WR6,3RWE2M8QWID69UFAVUBLEGKUP00N02,3RWE2M8QWID69UFAVUBLEGKUP00N02,271016,271016,,,,,,,,,,
,,,,5,27.24302,0,5,5,439,1,a dimly lit hotel room with a glass table in the middle,a dimly lit hotel room with a glass table in the middle that has an item on top of it,wolfe2,046_L_remote,2,32,ABUABR22YMOGG,2021-01-24_14h38.33.123,MetaAwareness,2020.1.2,Win32,60,3EQVJH0T41OCTNSW0WZG5OUFAMNHT4,ABUABR22YMOGG,3RWE2M8QWID69UFAVUBLEGKUP00N02,Q2WR6,Q2WR6,3RWE2M8QWID69UFAVUBLEGKUP00N02,3RWE2M8QWID69UFAVUBLEGKUP00N02,271016,271016,,,,,,,,,,
,,,,5,9.626655,0,6,6,486,1,a white mantle with 4 decorations sitting on it,a white mantle with 5 decorations sitting on it,wolfe2,051_L_owl,4,32,ABUABR22YMOGG,2021-01-24_14h38.33.123,MetaAwareness,2020.1.2,Win32,60,3EQVJH0T41OCTNSW0WZG5OUFAMNHT4,ABUABR22YMOGG,3RWE2M8QWID69UFAVUBLEGKUP00N02,Q2WR6,Q2WR6,3RWE2M8QWID69UFAVUBLEGKUP00N02,3RWE2M8QWID69UFAVUBLEGKUP00N02,271016,271016,,,,,,,,,,
,,,,5,25.39659,0,7,7,928,1,"this room appears to be for a teen girl, the bed or lounger appears quite comfortable, and the room's color palette of cream and pink goes nicely together.",this teen girls room is very fashionable and the lovely pink desk compliments the cream of the furniture. on top of the pink desk appears to be a makeup case or something to that effect. ,wolfe2,096_L_painting,1,32,ABUABR22YMOGG,2021-01-24_14h38.33.123,MetaAwareness,2020.1.2,Win32,60,3EQVJH0T41OCTNSW0WZG5OUFAMNHT4,ABUABR22YMOGG,3RWE2M8QWID69UFAVUBLEGKUP00N02,Q2WR6,Q2WR6,3RWE2M8QWID69UFAVUBLEGKUP00N02,3RWE2M8QWID69UFAVUBLEGKUP00N02,271016,271016,,,,,,,,,,
,,,,4,16.9755,0,8,8,1189,1,a  room with a hot tub that has a potted plant near the right side.,a room with a hot tube that has no potted plants on the right side of the room.,wolfe2,123_R_pot,5,32,ABUABR22YMOGG,2021-01-24_14h38.33.123,MetaAwareness,2020.1.2,Win32,60,3EQVJH0T41OCTNSW0WZG5OUFAMNHT4,ABUABR22YMOGG,3RWE2M8QWID69UFAVUBLEGKUP00N02,Q2WR6,Q2WR6,3RWE2M8QWID69UFAVUBLEGKUP00N02,3RWE2M8QWID69UFAVUBLEGKUP00N02,271016,271016,,,,,,,,,,
,,,,5,14.852995,0,9,9,25,1,a view of a lake out a window in someone's study with no ducks on the lake,a view of a lake out a window in someone's study with three ducks swimming on the lake,wolfe2,003_R_ducks,4,32,ABUABR22YMOGG,2021-01-24_14h38.33.123,MetaAwareness,2020.1.2,Win32,60,3EQVJH0T41OCTNSW0WZG5OUFAMNHT4,ABUABR22YMOGG,3RWE2M8QWID69UFAVUBLEGKUP00N02,Q2WR6,Q2WR6,3RWE2M8QWID69UFAVUBLEGKUP00N02,3RWE2M8QWID69UFAVUBLEGKUP00N02,271016,271016,,,,,,,,,,
,,,,3,24.58102,0,10,10,368,1,the center wall in the dining room is bare,the center wall of the dining room has a tall narrow piece of art.,wolfe2,038_R_art,3,32,ABUABR22YMOGG,2021-01-24_14h38.33.123,MetaAwareness,2020.1.2,Win32,60,3EQVJH0T41OCTNSW0WZG5OUFAMNHT4,ABUABR22YMOGG,3RWE2M8QWID69UFAVUBLEGKUP00N02,Q2WR6,Q2WR6,3RWE2M8QWID69UFAVUBLEGKUP00N02,3RWE2M8QWID69UFAVUBLEGKUP00N02,271016,271016,,,,,,,,,,
,,,,3,10.390715,0,11,11,644,1,an empty office with 1 huge picture on the wall,an empty office with a couple artwork pictures,wolfe2,067_L_painting,1,32,ABUABR22YMOGG,2021-01-24_14h38.33.123,MetaAwareness,2020.1.2,Win32,60,3EQVJH0T41OCTNSW0WZG5OUFAMNHT4,ABUABR22YMOGG,3RWE2M8QWID69UFAVUBLEGKUP00N02,Q2WR6,Q2WR6,3RWE2M8QWID69UFAVUBLEGKUP00N02,3RWE2M8QWID69UFAVUBLEGKUP00N02,271016,271016,,,,,,,,,,
,,,,4,17.67093,0,12,12,563,1,in a child's playroom there is an empty shelf  above a mirror on a wall,in a child's playroom there is a silver toy car on a shelf above a mirror on a wall ,wolfe2,059_L_car,2,32,ABUABR22YMOGG,2021-01-24_14h38.33.123,MetaAwareness,2020.1.2,Win32,60,3EQVJH0T41OCTNSW0WZG5OUFAMNHT4,ABUABR22YMOGG,3RWE2M8QWID69UFAVUBLEGKUP00N02,Q2WR6,Q2WR6,3RWE2M8QWID69UFAVUBLEGKUP00N02,3RWE2M8QWID69UFAVUBLEGKUP00N02,271016,271016,,,,,,,,,,
,,,,5,16.45421,0,13,13,711,1,a pristine sitting room with a coffee table that holds multiple plants,a pristine sitting room with a coffee table that holds multiple plants and a book,wolfe2,074_R_book,1,32,ABUABR22YMOGG,2021-01-24_14h38.33.123,MetaAwareness,2020.1.2,Win32,60,3EQVJH0T41OCTNSW0WZG5OUFAMNHT4,ABUABR22YMOGG,3RWE2M8QWID69UFAVUBLEGKUP00N02,Q2WR6,Q2WR6,3RWE2M8QWID69UFAVUBLEGKUP00N02,3RWE2M8QWID69UFAVUBLEGKUP00N02,271016,271016,,,,,,,,,,
,,,,4,11.359945,0,14,14,391,1,there is nothing item in the bowl,fruits are filled in the bowl,wolfe2,041_R_fruit,1,32,ABUABR22YMOGG,2021-01-24_14h38.33.123,MetaAwareness,2020.1.2,Win32,60,3EQVJH0T41OCTNSW0WZG5OUFAMNHT4,ABUABR22YMOGG,3RWE2M8QWID69UFAVUBLEGKUP00N02,Q2WR6,Q2WR6,3RWE2M8QWID69UFAVUBLEGKUP00N02,3RWE2M8QWID69UFAVUBLEGKUP00N02,271016,271016,,,,,,,,,,
,,,,5,7.983995,0,15,15,720,1,a kitchen with wood floors and cabinets with 6 overhead lights,a kitchen with wood floors and cabinets with 7 overhead lights,wolfe2,075_L_light,2,32,ABUABR22YMOGG,2021-01-24_14h38.33.123,MetaAwareness,2020.1.2,Win32,60,3EQVJH0T41OCTNSW0WZG5OUFAMNHT4,ABUABR22YMOGG,3RWE2M8QWID69UFAVUBLEGKUP00N02,Q2WR6,Q2WR6,3RWE2M8QWID69UFAVUBLEGKUP00N02,3RWE2M8QWID69UFAVUBLEGKUP00N02,271016,271016,,,,,,,,,,
,,,,5,48.4329,0,16,16,1118,1,a large dining room and kitchen with a large window letting light in and a plant on the floor with a pail next to it,a large dining room and kitchen with a large window letting light in and a plant on the floor with no pail next to it,wolfe2,116_R_basket,2,32,ABUABR22YMOGG,2021-01-24_14h38.33.123,MetaAwareness,2020.1.2,Win32,60,3EQVJH0T41OCTNSW0WZG5OUFAMNHT4,ABUABR22YMOGG,3RWE2M8QWID69UFAVUBLEGKUP00N02,Q2WR6,Q2WR6,3RWE2M8QWID69UFAVUBLEGKUP00N02,3RWE2M8QWID69UFAVUBLEGKUP00N02,271016,271016,,,,,,,,,,
,,,,3,40.63515,0,17,17,1002,1,a mostly-empty cafe with one dark-haired person seen sitting alone in a booth with his back to the camera,"a cafe with several booths visible, none of which have anyone seated in them",wolfe2,104_L_bottle,2,32,ABUABR22YMOGG,2021-01-24_14h38.33.123,MetaAwareness,2020.1.2,Win32,60,3EQVJH0T41OCTNSW0WZG5OUFAMNHT4,ABUABR22YMOGG,3RWE2M8QWID69UFAVUBLEGKUP00N02,Q2WR6,Q2WR6,3RWE2M8QWID69UFAVUBLEGKUP00N02,3RWE2M8QWID69UFAVUBLEGKUP00N02,271016,271016,,,,,,,,,,
,,,,4,9.904075,0,18,18,425,1,"shiny, bright and clean washroom","shiny, bright and clean washroom with a light inside a brown square",wolfe2,044_R_light,2,32,ABUABR22YMOGG,2021-01-24_14h38.33.123,MetaAwareness,2020.1.2,Win32,60,3EQVJH0T41OCTNSW0WZG5OUFAMNHT4,ABUABR22YMOGG,3RWE2M8QWID69UFAVUBLEGKUP00N02,Q2WR6,Q2WR6,3RWE2M8QWID69UFAVUBLEGKUP00N02,3RWE2M8QWID69UFAVUBLEGKUP00N02,271016,271016,,,,,,,,,,
,,,,5,6.41719,0,19,19,446,1,a bedroom with a dresser with three symbols on it,a bedroom with a dresser with four symbols on it ,wolfe2,047_L_handle,1,32,ABUABR22YMOGG,2021-01-24_14h38.33.123,MetaAwareness,2020.1.2,Win32,60,3EQVJH0T41OCTNSW0WZG5OUFAMNHT4,ABUABR22YMOGG,3RWE2M8QWID69UFAVUBLEGKUP00N02,Q2WR6,Q2WR6,3RWE2M8QWID69UFAVUBLEGKUP00N02,3RWE2M8QWID69UFAVUBLEGKUP00N02,271016,271016,,,,,,,,,,
,,,,4,11.12783,0,20,20,809,1,the top blue drawer in the bedroom is missing a knob,all the drawers in the bedroom have knobs,wolfe2,083_R_knob,2,32,ABUABR22YMOGG,2021-01-24_14h38.33.123,MetaAwareness,2020.1.2,Win32,60,3EQVJH0T41OCTNSW0WZG5OUFAMNHT4,ABUABR22YMOGG,3RWE2M8QWID69UFAVUBLEGKUP00N02,Q2WR6,Q2WR6,3RWE2M8QWID69UFAVUBLEGKUP00N02,3RWE2M8QWID69UFAVUBLEGKUP00N02,271016,271016,,,,,,,,,,
,,,,3,30.909275,0,21,21,491,1,the cream colored walls match the fireplace,the bottle of perfume sits next to the picture frame of the soon to be divorced newlywed couple on top of the fireplace,wolfe2,051_R_owl,2,32,ABUABR22YMOGG,2021-01-24_14h38.33.123,MetaAwareness,2020.1.2,Win32,60,3EQVJH0T41OCTNSW0WZG5OUFAMNHT4,ABUABR22YMOGG,3RWE2M8QWID69UFAVUBLEGKUP00N02,Q2WR6,Q2WR6,3RWE2M8QWID69UFAVUBLEGKUP00N02,3RWE2M8QWID69UFAVUBLEGKUP00N02,271016,271016,,,,,,,,,,
,,,,4,10.858415,0,22,22,904,1,two beds with yellow sheets and a small gold box on the wall between the beds,two beds with yellow sheets and nothing on the wall in between the beds,wolfe2,093_L_switch,1,32,ABUABR22YMOGG,2021-01-24_14h38.33.123,MetaAwareness,2020.1.2,Win32,60,3EQVJH0T41OCTNSW0WZG5OUFAMNHT4,ABUABR22YMOGG,3RWE2M8QWID69UFAVUBLEGKUP00N02,Q2WR6,Q2WR6,3RWE2M8QWID69UFAVUBLEGKUP00N02,3RWE2M8QWID69UFAVUBLEGKUP00N02,271016,271016,,,,,,,,,,
,,,,5,4.614335,0,23,23,923,1,a bedroom with three scented candles,a bedroom with two scented candles,wolfe2,095_R_candle,3,32,ABUABR22YMOGG,2021-01-24_14h38.33.123,MetaAwareness,2020.1.2,Win32,60,3EQVJH0T41OCTNSW0WZG5OUFAMNHT4,ABUABR22YMOGG,3RWE2M8QWID69UFAVUBLEGKUP00N02,Q2WR6,Q2WR6,3RWE2M8QWID69UFAVUBLEGKUP00N02,3RWE2M8QWID69UFAVUBLEGKUP00N02,271016,271016,,,,,,,,,,
,,,,5,14.174765,0,24,24,453,1,a bedroom with silver and white furniture and a white dresser.,a bedroom with silver and white furniture with a white dresser and a silver handle.,wolfe2,047_R_handle,3,32,ABUABR22YMOGG,2021-01-24_14h38.33.123,MetaAwareness,2020.1.2,Win32,60,3EQVJH0T41OCTNSW0WZG5OUFAMNHT4,ABUABR22YMOGG,3RWE2M8QWID69UFAVUBLEGKUP00N02,Q2WR6,Q2WR6,3RWE2M8QWID69UFAVUBLEGKUP00N02,3RWE2M8QWID69UFAVUBLEGKUP00N02,271016,271016,,,,,,,,,,
,,,,5,21.78324,0,25,25,492,1,room with many decorations near or on the wall,room with many decorations near or on the wall including a small glass owl.,wolfe2,051_R_owl,3,32,ABUABR22YMOGG,2021-01-24_14h38.33.123,MetaAwareness,2020.1.2,Win32,60,3EQVJH0T41OCTNSW0WZG5OUFAMNHT4,ABUABR22YMOGG,3RWE2M8QWID69UFAVUBLEGKUP00N02,Q2WR6,Q2WR6,3RWE2M8QWID69UFAVUBLEGKUP00N02,3RWE2M8QWID69UFAVUBLEGKUP00N02,271016,271016,,,,,,,,,,
,,,,5,29.563415,0,26,26,595,1,country feeling living room with no items sitting in the fireplace,country feeling living room with an item sitting in the fireplace,wolfe2,062_L_flowers,3,32,ABUABR22YMOGG,2021-01-24_14h38.33.123,MetaAwareness,2020.1.2,Win32,60,3EQVJH0T41OCTNSW0WZG5OUFAMNHT4,ABUABR22YMOGG,3RWE2M8QWID69UFAVUBLEGKUP00N02,Q2WR6,Q2WR6,3RWE2M8QWID69UFAVUBLEGKUP00N02,3RWE2M8QWID69UFAVUBLEGKUP00N02,271016,271016,,,,,,,,,,
,,,,5,24.435205,0,27,27,442,1,"a dimly-lit hotel room with a couch, 3 lamps, and a coffee table with a small object on it.","a dimly-lit hotel room with a couch, 3 lamps, and a coffee table with a small, dark object on it.",wolfe2,046_R_remote,1,32,ABUABR22YMOGG,2021-01-24_14h38.33.123,MetaAwareness,2020.1.2,Win32,60,3EQVJH0T41OCTNSW0WZG5OUFAMNHT4,ABUABR22YMOGG,3RWE2M8QWID69UFAVUBLEGKUP00N02,Q2WR6,Q2WR6,3RWE2M8QWID69UFAVUBLEGKUP00N02,3RWE2M8QWID69UFAVUBLEGKUP00N02,271016,271016,,,,,,,,,,
,,,,5,9.37687,0,28,28,575,1,a modern living room with a big couch with a grey pillow on the end of it,a modern living room with a big couch with a grey pillow and a black pillow on the end of it,wolfe2,060_R_pillow,2,32,ABUABR22YMOGG,2021-01-24_14h38.33.123,MetaAwareness,2020.1.2,Win32,60,3EQVJH0T41OCTNSW0WZG5OUFAMNHT4,ABUABR22YMOGG,3RWE2M8QWID69UFAVUBLEGKUP00N02,Q2WR6,Q2WR6,3RWE2M8QWID69UFAVUBLEGKUP00N02,3RWE2M8QWID69UFAVUBLEGKUP00N02,271016,271016,,,,,,,,,,
,,,,5,19.42164,0,29,29,675,1,living room with a large mirror on the middle of the wall with only one lamp mount on the wall on the right hand side,living room with a large mirror o the middle of the wall with two lamps mount on the wall on the both sides,wolfe2,070_L_lamp,4,32,ABUABR22YMOGG,2021-01-24_14h38.33.123,MetaAwareness,2020.1.2,Win32,60,3EQVJH0T41OCTNSW0WZG5OUFAMNHT4,ABUABR22YMOGG,3RWE2M8QWID69UFAVUBLEGKUP00N02,Q2WR6,Q2WR6,3RWE2M8QWID69UFAVUBLEGKUP00N02,3RWE2M8QWID69UFAVUBLEGKUP00N02,271016,271016,,,,,,,,,,
,,,,,,,,,,,,,,,,32,ABUABR22YMOGG,2021-01-24_14h38.33.123,MetaAwareness,2020.1.2,Win32,60,3EQVJH0T41OCTNSW0WZG5OUFAMNHT4,ABUABR22YMOGG,3RWE2M8QWID69UFAVUBLEGKUP00N02,Q2WR6,Q2WR6,3RWE2M8QWID69UFAVUBLEGKUP00N02,3RWE2M8QWID69UFAVUBLEGKUP00N02,271016,271016,6,44.65549,someone laying underneath a blue beach umbrella on a crowded beach,someone laying underneath a blue beach umbrella on a crowded beach,same,2,21.183935,members of a marching band crossing a track that all have feather plumes at the front of their hats,a cluttered and rustic looking cafe with 10 hanging lights,different
