consent_response.keys,consent_response.rt,key_resp_2.keys,key_resp_2.rt,user_resp.keys,user_resp.rt,trials.thisRepN,trials.thisTrialN,trials.thisN,trials.thisIndex,trials.ran,image_1_text,image_2_text,database,image,number,age,worker_ID,date,expName,psychopyVersion,OS,frameRate,hitId,workerId,assignmentId,a,tp_a,b,tp_b,c,tp_c,catch_same_resp.keys,catch_same_resp.rt,image_1_text_catch_same,image_2_text_catch_same,image_catch_same,catch_different_resp.keys,catch_different_resp.rt,image_1_text_catch_different,image_2_text_catch_different,image_catch_different
space,27.897,space,6.084,4,47.5,0,0,0,654,1,a modern bathroom with contrasting colors from the white walls to the brown drawers to the black tub with only a left side handle ,a modern bathroom with contrasting colors from the white walls to the brown drawers to the black tub with a right side and left side handles,wolfe2,068_L_faucet,2,52,AITALVQM45AI8,2021-01-24_07h30.02.985,MetaAwareness,2020.1.2,Win32,60,3H5TOKO3DAMCFDTPPC740PTXL9N46R,AITALVQM45AI8,3KGTPGBS6YOQ0U2X7IRLBZ53UUZU27,SPGK6,SPGK6,3KGTPGBS6YOQ0U2X7IRLBZ53UUZU27,3KGTPGBS6YOQ0U2X7IRLBZ53UUZU27,271016,271016,,,,,,,,,,
,,,,5,5.138,0,1,1,645,1,an empty board room decorated well with 10 chairs but missing a framed picture on the table. ,"and empty board room decorated well with 10 chairs, with a framed picture on the table",wolfe2,067_L_painting,2,52,AITALVQM45AI8,2021-01-24_07h30.02.985,MetaAwareness,2020.1.2,Win32,60,3H5TOKO3DAMCFDTPPC740PTXL9N46R,AITALVQM45AI8,3KGTPGBS6YOQ0U2X7IRLBZ53UUZU27,SPGK6,SPGK6,3KGTPGBS6YOQ0U2X7IRLBZ53UUZU27,3KGTPGBS6YOQ0U2X7IRLBZ53UUZU27,271016,271016,,,,,,,,,,
,,,,3,1.498,0,2,2,857,1,several chairs lined up in a hair salon with a vent above a painting on the wall,several chairs lined up in a hair salon with a painitng on the wall and nothing above it.,wolfe2,088_L_clock,2,52,AITALVQM45AI8,2021-01-24_07h30.02.985,MetaAwareness,2020.1.2,Win32,60,3H5TOKO3DAMCFDTPPC740PTXL9N46R,AITALVQM45AI8,3KGTPGBS6YOQ0U2X7IRLBZ53UUZU27,SPGK6,SPGK6,3KGTPGBS6YOQ0U2X7IRLBZ53UUZU27,3KGTPGBS6YOQ0U2X7IRLBZ53UUZU27,271016,271016,,,,,,,,,,
,,,,4,1.23,0,3,3,246,1,a nice living room with a shelf that contains a club,a nice living room with a shelf that contains two clubs,wolfe2,025_L_vase,4,52,AITALVQM45AI8,2021-01-24_07h30.02.985,MetaAwareness,2020.1.2,Win32,60,3H5TOKO3DAMCFDTPPC740PTXL9N46R,AITALVQM45AI8,3KGTPGBS6YOQ0U2X7IRLBZ53UUZU27,SPGK6,SPGK6,3KGTPGBS6YOQ0U2X7IRLBZ53UUZU27,3KGTPGBS6YOQ0U2X7IRLBZ53UUZU27,271016,271016,,,,,,,,,,
,,,,5,1.216,0,4,4,1183,1,a sauna room with a plant in the left corner,a sauna room with no plant in the left corner,wolfe2,123_L_pot,4,52,AITALVQM45AI8,2021-01-24_07h30.02.985,MetaAwareness,2020.1.2,Win32,60,3H5TOKO3DAMCFDTPPC740PTXL9N46R,AITALVQM45AI8,3KGTPGBS6YOQ0U2X7IRLBZ53UUZU27,SPGK6,SPGK6,3KGTPGBS6YOQ0U2X7IRLBZ53UUZU27,3KGTPGBS6YOQ0U2X7IRLBZ53UUZU27,271016,271016,,,,,,,,,,
,,,,6,1.195,0,5,5,242,1,"a bathroom with a large mirror and two sinks, with a basket and four stacked towels under the sinks",a bathroom with a large mirror and two sinks with a basket and nine stacked towels under the sinks,wolfe2,024_R_towels,4,52,AITALVQM45AI8,2021-01-24_07h30.02.985,MetaAwareness,2020.1.2,Win32,60,3H5TOKO3DAMCFDTPPC740PTXL9N46R,AITALVQM45AI8,3KGTPGBS6YOQ0U2X7IRLBZ53UUZU27,SPGK6,SPGK6,3KGTPGBS6YOQ0U2X7IRLBZ53UUZU27,3KGTPGBS6YOQ0U2X7IRLBZ53UUZU27,271016,271016,,,,,,,,,,
,,,,2,1.291,0,6,6,1098,1,an antique styled room with french doors opening to a stone patio with four items on the table,an antique styled room with french doors opening to a stone path with three items on the table,wolfe2,114_L_bird,4,52,AITALVQM45AI8,2021-01-24_07h30.02.985,MetaAwareness,2020.1.2,Win32,60,3H5TOKO3DAMCFDTPPC740PTXL9N46R,AITALVQM45AI8,3KGTPGBS6YOQ0U2X7IRLBZ53UUZU27,SPGK6,SPGK6,3KGTPGBS6YOQ0U2X7IRLBZ53UUZU27,3KGTPGBS6YOQ0U2X7IRLBZ53UUZU27,271016,271016,,,,,,,,,,
,,,,4,1.784,0,7,7,1102,1,a victorian styled living room opening to a stone patio. the living room consists of dark furniture including a coffee table that has two small figurines on it.,a victorian styled living room opening to a stone patio. the living room consists of dark furniture including a coffee table with one small figurine on it.,wolfe2,114_R_bird,4,52,AITALVQM45AI8,2021-01-24_07h30.02.985,MetaAwareness,2020.1.2,Win32,60,3H5TOKO3DAMCFDTPPC740PTXL9N46R,AITALVQM45AI8,3KGTPGBS6YOQ0U2X7IRLBZ53UUZU27,SPGK6,SPGK6,3KGTPGBS6YOQ0U2X7IRLBZ53UUZU27,3KGTPGBS6YOQ0U2X7IRLBZ53UUZU27,271016,271016,,,,,,,,,,
,,,,3,7.049,0,8,8,529,1,"a studio apartment or dorm room furnished in red, with small rugs in red and black","a studio apartment or dorm room furnished in red, with small rugs in blue, red, and black",wolfe2,055_R_carpet,3,52,AITALVQM45AI8,2021-01-24_07h30.02.985,MetaAwareness,2020.1.2,Win32,60,3H5TOKO3DAMCFDTPPC740PTXL9N46R,AITALVQM45AI8,3KGTPGBS6YOQ0U2X7IRLBZ53UUZU27,SPGK6,SPGK6,3KGTPGBS6YOQ0U2X7IRLBZ53UUZU27,3KGTPGBS6YOQ0U2X7IRLBZ53UUZU27,271016,271016,,,,,,,,,,
,,,,5,1.737,0,9,9,974,1,a bathroom. there is a shelve with lots of glasses and bottes on it. on the one shelf is a red glass next two a green and red wine glasses.,"a bathroom. there is a shelf with bottls and glasses. the one shelf has a red wine glass, and green wine glass.",wolfe2,101_L_cup,1,52,AITALVQM45AI8,2021-01-24_07h30.02.985,MetaAwareness,2020.1.2,Win32,60,3H5TOKO3DAMCFDTPPC740PTXL9N46R,AITALVQM45AI8,3KGTPGBS6YOQ0U2X7IRLBZ53UUZU27,SPGK6,SPGK6,3KGTPGBS6YOQ0U2X7IRLBZ53UUZU27,3KGTPGBS6YOQ0U2X7IRLBZ53UUZU27,271016,271016,,,,,,,,,,
,,,,6,1.253,0,10,10,476,1,"a european contemporary style bedroom that has a wall of closets and shelves. on the left set of shelves, all but one contain books.","a european contemporary style bedroom that has a wall of closets and shelves. on the left set of shelves, all of them are holding books.",wolfe2,050_L_book,3,52,AITALVQM45AI8,2021-01-24_07h30.02.985,MetaAwareness,2020.1.2,Win32,60,3H5TOKO3DAMCFDTPPC740PTXL9N46R,AITALVQM45AI8,3KGTPGBS6YOQ0U2X7IRLBZ53UUZU27,SPGK6,SPGK6,3KGTPGBS6YOQ0U2X7IRLBZ53UUZU27,3KGTPGBS6YOQ0U2X7IRLBZ53UUZU27,271016,271016,,,,,,,,,,
,,,,2,1.321,0,11,11,1044,1,a walk in closet with a lot of clothing and a dresser off to the side. ,a walk in closer with a lot of clothing and a dresser off to the side with a little blue ball on it,wolfe2,108_L_boa,1,52,AITALVQM45AI8,2021-01-24_07h30.02.985,MetaAwareness,2020.1.2,Win32,60,3H5TOKO3DAMCFDTPPC740PTXL9N46R,AITALVQM45AI8,3KGTPGBS6YOQ0U2X7IRLBZ53UUZU27,SPGK6,SPGK6,3KGTPGBS6YOQ0U2X7IRLBZ53UUZU27,3KGTPGBS6YOQ0U2X7IRLBZ53UUZU27,271016,271016,,,,,,,,,,
,,,,4,1.305,0,12,12,27,1,"this hotel room has a nice view of the skyline, you can see a nice hill or small mountain in the back, as well as a pretty treeline.","this hotel room is facing a nice view of the skyline. behind the buildings you can see some nice trees, and behind the trees there appears to be a large tower looming over it all. ",wolfe2,004_L_electricalgrid,2,52,AITALVQM45AI8,2021-01-24_07h30.02.985,MetaAwareness,2020.1.2,Win32,60,3H5TOKO3DAMCFDTPPC740PTXL9N46R,AITALVQM45AI8,3KGTPGBS6YOQ0U2X7IRLBZ53UUZU27,SPGK6,SPGK6,3KGTPGBS6YOQ0U2X7IRLBZ53UUZU27,3KGTPGBS6YOQ0U2X7IRLBZ53UUZU27,271016,271016,,,,,,,,,,
,,,,6,1.211,0,13,13,947,1,a nice bedroom with a large bed and chair with a pillow on the floor between them,a nice bedroom with a large bed and chair,wolfe2,098_L_slippers,2,52,AITALVQM45AI8,2021-01-24_07h30.02.985,MetaAwareness,2020.1.2,Win32,60,3H5TOKO3DAMCFDTPPC740PTXL9N46R,AITALVQM45AI8,3KGTPGBS6YOQ0U2X7IRLBZ53UUZU27,SPGK6,SPGK6,3KGTPGBS6YOQ0U2X7IRLBZ53UUZU27,3KGTPGBS6YOQ0U2X7IRLBZ53UUZU27,271016,271016,,,,,,,,,,
,,,,6,1.806,0,14,14,926,1,a birdseye view of a living room with four candles by a large mirror,a birdseye view of a living room with three candles by a large mirror,wolfe2,095_R_candle,6,52,AITALVQM45AI8,2021-01-24_07h30.02.985,MetaAwareness,2020.1.2,Win32,60,3H5TOKO3DAMCFDTPPC740PTXL9N46R,AITALVQM45AI8,3KGTPGBS6YOQ0U2X7IRLBZ53UUZU27,SPGK6,SPGK6,3KGTPGBS6YOQ0U2X7IRLBZ53UUZU27,3KGTPGBS6YOQ0U2X7IRLBZ53UUZU27,271016,271016,,,,,,,,,,
,,,,5,1.619,0,15,15,647,1,very modern dining room with large window and no picture on side table,"very modern dining room with large window and small, white frame with a picture on side table",wolfe2,067_L_painting,4,52,AITALVQM45AI8,2021-01-24_07h30.02.985,MetaAwareness,2020.1.2,Win32,60,3H5TOKO3DAMCFDTPPC740PTXL9N46R,AITALVQM45AI8,3KGTPGBS6YOQ0U2X7IRLBZ53UUZU27,SPGK6,SPGK6,3KGTPGBS6YOQ0U2X7IRLBZ53UUZU27,3KGTPGBS6YOQ0U2X7IRLBZ53UUZU27,271016,271016,,,,,,,,,,
,,,,2,1.17,0,16,16,146,1,a quiet living room with 4 ceiling lights,a quiet living room with 6 ceiling lights,wolfe2,015_L_ceilinglight,1,52,AITALVQM45AI8,2021-01-24_07h30.02.985,MetaAwareness,2020.1.2,Win32,60,3H5TOKO3DAMCFDTPPC740PTXL9N46R,AITALVQM45AI8,3KGTPGBS6YOQ0U2X7IRLBZ53UUZU27,SPGK6,SPGK6,3KGTPGBS6YOQ0U2X7IRLBZ53UUZU27,3KGTPGBS6YOQ0U2X7IRLBZ53UUZU27,271016,271016,,,,,,,,,,
,,,,5,1.395,0,17,17,563,1,in a child's playroom there is an empty shelf  above a mirror on a wall,in a child's playroom there is a silver toy car on a shelf above a mirror on a wall ,wolfe2,059_L_car,2,52,AITALVQM45AI8,2021-01-24_07h30.02.985,MetaAwareness,2020.1.2,Win32,60,3H5TOKO3DAMCFDTPPC740PTXL9N46R,AITALVQM45AI8,3KGTPGBS6YOQ0U2X7IRLBZ53UUZU27,SPGK6,SPGK6,3KGTPGBS6YOQ0U2X7IRLBZ53UUZU27,3KGTPGBS6YOQ0U2X7IRLBZ53UUZU27,271016,271016,,,,,,,,,,
,,,,6,1.458,0,18,18,350,1,a red kitchen with tiled floor with one bowl on a shelf underneath a cabinet door,a red kitchen with tiled floor with two bowls on a shelf underneath a cabinet door,wolfe2,036_R_bowl,3,52,AITALVQM45AI8,2021-01-24_07h30.02.985,MetaAwareness,2020.1.2,Win32,60,3H5TOKO3DAMCFDTPPC740PTXL9N46R,AITALVQM45AI8,3KGTPGBS6YOQ0U2X7IRLBZ53UUZU27,SPGK6,SPGK6,3KGTPGBS6YOQ0U2X7IRLBZ53UUZU27,3KGTPGBS6YOQ0U2X7IRLBZ53UUZU27,271016,271016,,,,,,,,,,
,,,,5,1.233,0,19,19,982,1,"a bathroom containing a toilet, sink, and cabinet beside the sink with three cups on the third shelf up","a bathroom containing a toilet, sink, and cabinet beside the sink with two cups on the third shelf up",wolfe2,101_R_cup,5,52,AITALVQM45AI8,2021-01-24_07h30.02.985,MetaAwareness,2020.1.2,Win32,60,3H5TOKO3DAMCFDTPPC740PTXL9N46R,AITALVQM45AI8,3KGTPGBS6YOQ0U2X7IRLBZ53UUZU27,SPGK6,SPGK6,3KGTPGBS6YOQ0U2X7IRLBZ53UUZU27,3KGTPGBS6YOQ0U2X7IRLBZ53UUZU27,271016,271016,,,,,,,,,,
,,,,2,1.147,0,20,20,37,1,"a modern living area overlooking a city with a sofa, chair and desk","a modern living area overlooking a city with a sofa with a mirror above it, chair and desk",wolfe2,005_L_mirror,3,52,AITALVQM45AI8,2021-01-24_07h30.02.985,MetaAwareness,2020.1.2,Win32,60,3H5TOKO3DAMCFDTPPC740PTXL9N46R,AITALVQM45AI8,3KGTPGBS6YOQ0U2X7IRLBZ53UUZU27,SPGK6,SPGK6,3KGTPGBS6YOQ0U2X7IRLBZ53UUZU27,3KGTPGBS6YOQ0U2X7IRLBZ53UUZU27,271016,271016,,,,,,,,,,
,,,,3,114.948,0,21,21,1162,1,a small white bed table with a toy car and lamp on top.,a small white bed table with a lamp on top.,wolfe2,121_L_car,3,52,AITALVQM45AI8,2021-01-24_07h30.02.985,MetaAwareness,2020.1.2,Win32,60,3H5TOKO3DAMCFDTPPC740PTXL9N46R,AITALVQM45AI8,3KGTPGBS6YOQ0U2X7IRLBZ53UUZU27,SPGK6,SPGK6,3KGTPGBS6YOQ0U2X7IRLBZ53UUZU27,3KGTPGBS6YOQ0U2X7IRLBZ53UUZU27,271016,271016,,,,,,,,,,
,,,,5,0.227,0,22,22,690,1,a bedroom with a dresser in it that has five drawers with handles on i t,a bedroom with a dresser in it that has six drawers with handles on them,wolfe2,072_L_handle,2,52,AITALVQM45AI8,2021-01-24_07h30.02.985,MetaAwareness,2020.1.2,Win32,60,3H5TOKO3DAMCFDTPPC740PTXL9N46R,AITALVQM45AI8,3KGTPGBS6YOQ0U2X7IRLBZ53UUZU27,SPGK6,SPGK6,3KGTPGBS6YOQ0U2X7IRLBZ53UUZU27,3KGTPGBS6YOQ0U2X7IRLBZ53UUZU27,271016,271016,,,,,,,,,,
,,,,6,1.239,0,23,23,805,1,"a bright bedroom with a bunk bed, a dresser system and a small kids table. ","a brightly colored bedroom with bunk beds, a kids table and chairs and a dresser system with white knobs. ",wolfe2,083_L_knob,2,52,AITALVQM45AI8,2021-01-24_07h30.02.985,MetaAwareness,2020.1.2,Win32,60,3H5TOKO3DAMCFDTPPC740PTXL9N46R,AITALVQM45AI8,3KGTPGBS6YOQ0U2X7IRLBZ53UUZU27,SPGK6,SPGK6,3KGTPGBS6YOQ0U2X7IRLBZ53UUZU27,3KGTPGBS6YOQ0U2X7IRLBZ53UUZU27,271016,271016,,,,,,,,,,
,,,,2,1.294,0,24,24,1186,1,an indoor hot tub surrounded by several potted plants.  there's a single plant on the right side of the tub,an indoor hot tub surrounded by several potted plants  ,wolfe2,123_R_pot,2,52,AITALVQM45AI8,2021-01-24_07h30.02.985,MetaAwareness,2020.1.2,Win32,60,3H5TOKO3DAMCFDTPPC740PTXL9N46R,AITALVQM45AI8,3KGTPGBS6YOQ0U2X7IRLBZ53UUZU27,SPGK6,SPGK6,3KGTPGBS6YOQ0U2X7IRLBZ53UUZU27,3KGTPGBS6YOQ0U2X7IRLBZ53UUZU27,271016,271016,,,,,,,,,,
,,,,5,2.257,0,25,25,1069,1,a living room with a decorative pot,a living room without a decrative pot,wolfe2,111_L_pot,1,52,AITALVQM45AI8,2021-01-24_07h30.02.985,MetaAwareness,2020.1.2,Win32,60,3H5TOKO3DAMCFDTPPC740PTXL9N46R,AITALVQM45AI8,3KGTPGBS6YOQ0U2X7IRLBZ53UUZU27,SPGK6,SPGK6,3KGTPGBS6YOQ0U2X7IRLBZ53UUZU27,3KGTPGBS6YOQ0U2X7IRLBZ53UUZU27,271016,271016,,,,,,,,,,
,,,,2,1.397,0,26,26,882,1,a red and white bedroom with a small lamp in the corner,a red and white bedroom with no clutter or objects on the floor,wolfe2,090_R_lamp,2,52,AITALVQM45AI8,2021-01-24_07h30.02.985,MetaAwareness,2020.1.2,Win32,60,3H5TOKO3DAMCFDTPPC740PTXL9N46R,AITALVQM45AI8,3KGTPGBS6YOQ0U2X7IRLBZ53UUZU27,SPGK6,SPGK6,3KGTPGBS6YOQ0U2X7IRLBZ53UUZU27,3KGTPGBS6YOQ0U2X7IRLBZ53UUZU27,271016,271016,,,,,,,,,,
,,,,5,1.229,0,27,27,848,1,a very messy bathroom with a crowded sink area and a large ring on the wall between the sink and toilet.,a very messy bathroom with a crowded sink area and nothing hanging on the lower left wall.,wolfe2,087_L_towelhandle,1,52,AITALVQM45AI8,2021-01-24_07h30.02.985,MetaAwareness,2020.1.2,Win32,60,3H5TOKO3DAMCFDTPPC740PTXL9N46R,AITALVQM45AI8,3KGTPGBS6YOQ0U2X7IRLBZ53UUZU27,SPGK6,SPGK6,3KGTPGBS6YOQ0U2X7IRLBZ53UUZU27,3KGTPGBS6YOQ0U2X7IRLBZ53UUZU27,271016,271016,,,,,,,,,,
,,,,6,1.434,0,28,28,1160,1, a well lit bedroom with a car and a lamp on the left end table,a well lit bedroom with a lamp on the left end table.,wolfe2,121_L_car,1,52,AITALVQM45AI8,2021-01-24_07h30.02.985,MetaAwareness,2020.1.2,Win32,60,3H5TOKO3DAMCFDTPPC740PTXL9N46R,AITALVQM45AI8,3KGTPGBS6YOQ0U2X7IRLBZ53UUZU27,SPGK6,SPGK6,3KGTPGBS6YOQ0U2X7IRLBZ53UUZU27,3KGTPGBS6YOQ0U2X7IRLBZ53UUZU27,271016,271016,,,,,,,,,,
,,,,3,0.221,0,29,29,917,1,this object shows a person beauitful and the white bottle,the object shows a person beauitful and the white bottle is missing,wolfe2,095_L_candle,1,52,AITALVQM45AI8,2021-01-24_07h30.02.985,MetaAwareness,2020.1.2,Win32,60,3H5TOKO3DAMCFDTPPC740PTXL9N46R,AITALVQM45AI8,3KGTPGBS6YOQ0U2X7IRLBZ53UUZU27,SPGK6,SPGK6,3KGTPGBS6YOQ0U2X7IRLBZ53UUZU27,3KGTPGBS6YOQ0U2X7IRLBZ53UUZU27,271016,271016,,,,,,,,,,
,,,,,,,,,,,,,,,,52,AITALVQM45AI8,2021-01-24_07h30.02.985,MetaAwareness,2020.1.2,Win32,60,3H5TOKO3DAMCFDTPPC740PTXL9N46R,AITALVQM45AI8,3KGTPGBS6YOQ0U2X7IRLBZ53UUZU27,SPGK6,SPGK6,3KGTPGBS6YOQ0U2X7IRLBZ53UUZU27,3KGTPGBS6YOQ0U2X7IRLBZ53UUZU27,271016,271016,5,1.196,someone laying underneath a blue beach umbrella on a crowded beach,someone laying underneath a blue beach umbrella on a crowded beach,same,3,1.257,members of a marching band crossing a track that all have feather plumes at the front of their hats,a cluttered and rustic looking cafe with 10 hanging lights,different
