consent_response.keys,consent_response.rt,key_resp_2.keys,key_resp_2.rt,user_resp.keys,user_resp.rt,trials.thisRepN,trials.thisTrialN,trials.thisN,trials.thisIndex,trials.ran,image_1_text,image_2_text,database,image,number,age,worker_ID,date,expName,psychopyVersion,OS,frameRate,hitId,workerId,assignmentId,a,tp_a,b,tp_b,c,tp_c,catch_same_resp.keys,catch_same_resp.rt,image_1_text_catch_same,image_2_text_catch_same,image_catch_same,catch_different_resp.keys,catch_different_resp.rt,image_1_text_catch_different,image_2_text_catch_different,image_catch_different
space,14.346,space,3.071,1,54.687,0,0,0,339,1,a charming hotel room with a side table that has two vases sitting on it.,a charming hotel room with a side table that has two vases and a decor arrangement.,wolfe2,035_L_fruit,7,42,AURWCCP5H59VI,2021-01-24_10h29.19.755,MetaAwareness,2020.1.2,Win32,60,3H5TOKO3DAMCFDTPPC740PTXL9N46R,AURWCCP5H59VI,34PGFRQONPE3YUPA93CES4CHHLWWJV,OFP46,OFP46,34PGFRQONPE3YUPA93CES4CHHLWWJV,34PGFRQONPE3YUPA93CES4CHHLWWJV,271016,271016,,,,,,,,,,
,,,,5,2.2,0,1,1,289,1,a bathroom where you can walk to the window,a bathroom with a counter in front of the window,wolfe2,030_L_drawer,4,42,AURWCCP5H59VI,2021-01-24_10h29.19.755,MetaAwareness,2020.1.2,Win32,60,3H5TOKO3DAMCFDTPPC740PTXL9N46R,AURWCCP5H59VI,34PGFRQONPE3YUPA93CES4CHHLWWJV,OFP46,OFP46,34PGFRQONPE3YUPA93CES4CHHLWWJV,34PGFRQONPE3YUPA93CES4CHHLWWJV,271016,271016,,,,,,,,,,
,,,,6,2.804,0,2,2,1179,1,a room that looks like it may be in a library that has some tables and 12 empty chairs,a room that looks like it may be in a library that has some tables and 11 empty chairs,wolfe2,122_R_chair,5,42,AURWCCP5H59VI,2021-01-24_10h29.19.755,MetaAwareness,2020.1.2,Win32,60,3H5TOKO3DAMCFDTPPC740PTXL9N46R,AURWCCP5H59VI,34PGFRQONPE3YUPA93CES4CHHLWWJV,OFP46,OFP46,34PGFRQONPE3YUPA93CES4CHHLWWJV,34PGFRQONPE3YUPA93CES4CHHLWWJV,271016,271016,,,,,,,,,,
,,,,5,1.204,0,3,3,578,1,a formal dining room with dark wood furniture including a table set with china and glasses.,a formal dining room with dark wood furniture including a table set with china and glasses.,wolfe2,061_L_glass,1,42,AURWCCP5H59VI,2021-01-24_10h29.19.755,MetaAwareness,2020.1.2,Win32,60,3H5TOKO3DAMCFDTPPC740PTXL9N46R,AURWCCP5H59VI,34PGFRQONPE3YUPA93CES4CHHLWWJV,OFP46,OFP46,34PGFRQONPE3YUPA93CES4CHHLWWJV,34PGFRQONPE3YUPA93CES4CHHLWWJV,271016,271016,,,,,,,,,,
,,,,4,1.499,0,4,4,864,1,"a hairdressers with no people in it, lots of empty black chairs, and a blue painting with something hanging above it on one of the walls","a hairdressers with no people in it, lots of empty black chairs, and a blue painting on one of the walls",wolfe2,088_R_clock,5,42,AURWCCP5H59VI,2021-01-24_10h29.19.755,MetaAwareness,2020.1.2,Win32,60,3H5TOKO3DAMCFDTPPC740PTXL9N46R,AURWCCP5H59VI,34PGFRQONPE3YUPA93CES4CHHLWWJV,OFP46,OFP46,34PGFRQONPE3YUPA93CES4CHHLWWJV,34PGFRQONPE3YUPA93CES4CHHLWWJV,271016,271016,,,,,,,,,,
,,,,3,1.113,0,5,5,583,1,a dining room that has one wine glass on the table,a dining room that has two wine glasses on the table,wolfe2,061_L_glass,6,42,AURWCCP5H59VI,2021-01-24_10h29.19.755,MetaAwareness,2020.1.2,Win32,60,3H5TOKO3DAMCFDTPPC740PTXL9N46R,AURWCCP5H59VI,34PGFRQONPE3YUPA93CES4CHHLWWJV,OFP46,OFP46,34PGFRQONPE3YUPA93CES4CHHLWWJV,34PGFRQONPE3YUPA93CES4CHHLWWJV,271016,271016,,,,,,,,,,
,,,,4,1.477,0,6,6,295,1,there is a gap between two countertops in this bathroom,there is a lower countertop that connects two countertops in this bathroom,wolfe2,030_R_drawer,4,42,AURWCCP5H59VI,2021-01-24_10h29.19.755,MetaAwareness,2020.1.2,Win32,60,3H5TOKO3DAMCFDTPPC740PTXL9N46R,AURWCCP5H59VI,34PGFRQONPE3YUPA93CES4CHHLWWJV,OFP46,OFP46,34PGFRQONPE3YUPA93CES4CHHLWWJV,34PGFRQONPE3YUPA93CES4CHHLWWJV,271016,271016,,,,,,,,,,
,,,,5,1.138,0,7,7,364,1,"a brown, retro dining room without a long sculpture hanging on the wall","a brown, retro dining room with a long sculpture hanging on the wall",wolfe2,038_L_art,3,42,AURWCCP5H59VI,2021-01-24_10h29.19.755,MetaAwareness,2020.1.2,Win32,60,3H5TOKO3DAMCFDTPPC740PTXL9N46R,AURWCCP5H59VI,34PGFRQONPE3YUPA93CES4CHHLWWJV,OFP46,OFP46,34PGFRQONPE3YUPA93CES4CHHLWWJV,34PGFRQONPE3YUPA93CES4CHHLWWJV,271016,271016,,,,,,,,,,
,,,,3,1.621,0,8,8,1077,1,outdoor patio thats covered with glass walls but gets a lot of sunlight.,"still an outdoor patio with large glass walls and sunlight, but there's a vase missing in the decorations.",wolfe2,111_R_pot,4,42,AURWCCP5H59VI,2021-01-24_10h29.19.755,MetaAwareness,2020.1.2,Win32,60,3H5TOKO3DAMCFDTPPC740PTXL9N46R,AURWCCP5H59VI,34PGFRQONPE3YUPA93CES4CHHLWWJV,OFP46,OFP46,34PGFRQONPE3YUPA93CES4CHHLWWJV,34PGFRQONPE3YUPA93CES4CHHLWWJV,271016,271016,,,,,,,,,,
,,,,2,1.415,0,9,9,494,1,a fancy white room with four items on the fireplace mantle,a fancy white room with five items on the fireplace mantle,wolfe2,051_R_owl,5,42,AURWCCP5H59VI,2021-01-24_10h29.19.755,MetaAwareness,2020.1.2,Win32,60,3H5TOKO3DAMCFDTPPC740PTXL9N46R,AURWCCP5H59VI,34PGFRQONPE3YUPA93CES4CHHLWWJV,OFP46,OFP46,34PGFRQONPE3YUPA93CES4CHHLWWJV,34PGFRQONPE3YUPA93CES4CHHLWWJV,271016,271016,,,,,,,,,,
,,,,5,2.559,0,10,10,584,1,a dining room with wooden furniture and three wine glasses,a dining room with wooden furniture and three wine glasses,wolfe2,061_L_glass,7,42,AURWCCP5H59VI,2021-01-24_10h29.19.755,MetaAwareness,2020.1.2,Win32,60,3H5TOKO3DAMCFDTPPC740PTXL9N46R,AURWCCP5H59VI,34PGFRQONPE3YUPA93CES4CHHLWWJV,OFP46,OFP46,34PGFRQONPE3YUPA93CES4CHHLWWJV,34PGFRQONPE3YUPA93CES4CHHLWWJV,271016,271016,,,,,,,,,,
,,,,4,1.11,0,11,11,1207,1,a living room with an unknown item on the floor near the window.,a living room with nothing on the floor or near the windows.,wolfe2,125_R_sofa,2,42,AURWCCP5H59VI,2021-01-24_10h29.19.755,MetaAwareness,2020.1.2,Win32,60,3H5TOKO3DAMCFDTPPC740PTXL9N46R,AURWCCP5H59VI,34PGFRQONPE3YUPA93CES4CHHLWWJV,OFP46,OFP46,34PGFRQONPE3YUPA93CES4CHHLWWJV,34PGFRQONPE3YUPA93CES4CHHLWWJV,271016,271016,,,,,,,,,,
,,,,4,1.732,0,12,12,199,1,a depicition of a home office with a yellow desk with very little on it,a picture of a home office with a keyboard on a yellow desk,wolfe2,021_L_keyboard,2,42,AURWCCP5H59VI,2021-01-24_10h29.19.755,MetaAwareness,2020.1.2,Win32,60,3H5TOKO3DAMCFDTPPC740PTXL9N46R,AURWCCP5H59VI,34PGFRQONPE3YUPA93CES4CHHLWWJV,OFP46,OFP46,34PGFRQONPE3YUPA93CES4CHHLWWJV,34PGFRQONPE3YUPA93CES4CHHLWWJV,271016,271016,,,,,,,,,,
,,,,3,1.423,0,13,13,455,1,there is a desk in a well-appointed guest room.,a missing drawer-pull is added to a desk in the well-appointed guest room.,wolfe2,047_R_handle,5,42,AURWCCP5H59VI,2021-01-24_10h29.19.755,MetaAwareness,2020.1.2,Win32,60,3H5TOKO3DAMCFDTPPC740PTXL9N46R,AURWCCP5H59VI,34PGFRQONPE3YUPA93CES4CHHLWWJV,OFP46,OFP46,34PGFRQONPE3YUPA93CES4CHHLWWJV,34PGFRQONPE3YUPA93CES4CHHLWWJV,271016,271016,,,,,,,,,,
,,,,5,3.382,0,14,14,707,1,a spacious sitting room with a table that has two plants sitting in the middle of it.,a spacious sitting room with a table that has two plants and a book sitting in the middle of it.,wolfe2,074_L_book,1,42,AURWCCP5H59VI,2021-01-24_10h29.19.755,MetaAwareness,2020.1.2,Win32,60,3H5TOKO3DAMCFDTPPC740PTXL9N46R,AURWCCP5H59VI,34PGFRQONPE3YUPA93CES4CHHLWWJV,OFP46,OFP46,34PGFRQONPE3YUPA93CES4CHHLWWJV,34PGFRQONPE3YUPA93CES4CHHLWWJV,271016,271016,,,,,,,,,,
,,,,4,1.29,0,15,15,1045,1,a closet full of womens clothes with a dresser with a blue decoration on it ,a closet full of womens clothes with a dresser with hairbrushes on it and no decor,wolfe2,108_L_boa,2,42,AURWCCP5H59VI,2021-01-24_10h29.19.755,MetaAwareness,2020.1.2,Win32,60,3H5TOKO3DAMCFDTPPC740PTXL9N46R,AURWCCP5H59VI,34PGFRQONPE3YUPA93CES4CHHLWWJV,OFP46,OFP46,34PGFRQONPE3YUPA93CES4CHHLWWJV,34PGFRQONPE3YUPA93CES4CHHLWWJV,271016,271016,,,,,,,,,,
,,,,3,1.126,0,16,16,750,1,"it's a home kitchen next to the backyard with four seets at the counter, very modern and clean","still a home kitchen thats very modern and clean, but the four seats all have foot pedals now, while the other kitchen only three seats did.",wolfe2,077_R_footrest,3,42,AURWCCP5H59VI,2021-01-24_10h29.19.755,MetaAwareness,2020.1.2,Win32,60,3H5TOKO3DAMCFDTPPC740PTXL9N46R,AURWCCP5H59VI,34PGFRQONPE3YUPA93CES4CHHLWWJV,OFP46,OFP46,34PGFRQONPE3YUPA93CES4CHHLWWJV,34PGFRQONPE3YUPA93CES4CHHLWWJV,271016,271016,,,,,,,,,,
,,,,4,1.087,0,17,17,438,1,"a dingy yellowish hotel room with sofa, chairs, three lamps and a glass coffee table.","a dingy yellowish hotel room with sofa, chairs, three lamps and a glass coffee table with a wine glass on top.",wolfe2,046_L_remote,1,42,AURWCCP5H59VI,2021-01-24_10h29.19.755,MetaAwareness,2020.1.2,Win32,60,3H5TOKO3DAMCFDTPPC740PTXL9N46R,AURWCCP5H59VI,34PGFRQONPE3YUPA93CES4CHHLWWJV,OFP46,OFP46,34PGFRQONPE3YUPA93CES4CHHLWWJV,34PGFRQONPE3YUPA93CES4CHHLWWJV,271016,271016,,,,,,,,,,
,,,,4,2.351,0,18,18,740,1, a bathroom without a towel hook by the bathroom mirror,a bathroom with a towel hook by the bathroom mirror,wolfe2,076_R_hook,4,42,AURWCCP5H59VI,2021-01-24_10h29.19.755,MetaAwareness,2020.1.2,Win32,60,3H5TOKO3DAMCFDTPPC740PTXL9N46R,AURWCCP5H59VI,34PGFRQONPE3YUPA93CES4CHHLWWJV,OFP46,OFP46,34PGFRQONPE3YUPA93CES4CHHLWWJV,34PGFRQONPE3YUPA93CES4CHHLWWJV,271016,271016,,,,,,,,,,
,,,,5,0.945,0,19,19,1235,1,there is flower pot in the room,no flower pots are appear in the room,wolfe2,128_R_pot,1,42,AURWCCP5H59VI,2021-01-24_10h29.19.755,MetaAwareness,2020.1.2,Win32,60,3H5TOKO3DAMCFDTPPC740PTXL9N46R,AURWCCP5H59VI,34PGFRQONPE3YUPA93CES4CHHLWWJV,OFP46,OFP46,34PGFRQONPE3YUPA93CES4CHHLWWJV,34PGFRQONPE3YUPA93CES4CHHLWWJV,271016,271016,,,,,,,,,,
,,,,3,1.134,0,20,20,794,1,a closed drawer,an open end of a drawer,wolfe2,082_L_bowl,4,42,AURWCCP5H59VI,2021-01-24_10h29.19.755,MetaAwareness,2020.1.2,Win32,60,3H5TOKO3DAMCFDTPPC740PTXL9N46R,AURWCCP5H59VI,34PGFRQONPE3YUPA93CES4CHHLWWJV,OFP46,OFP46,34PGFRQONPE3YUPA93CES4CHHLWWJV,34PGFRQONPE3YUPA93CES4CHHLWWJV,271016,271016,,,,,,,,,,
,,,,6,1.64,0,21,21,277,1,a bathroom with one hanging bath towel,a bathroom with two hanging bath towels,wolfe2,028_R_vase,4,42,AURWCCP5H59VI,2021-01-24_10h29.19.755,MetaAwareness,2020.1.2,Win32,60,3H5TOKO3DAMCFDTPPC740PTXL9N46R,AURWCCP5H59VI,34PGFRQONPE3YUPA93CES4CHHLWWJV,OFP46,OFP46,34PGFRQONPE3YUPA93CES4CHHLWWJV,34PGFRQONPE3YUPA93CES4CHHLWWJV,271016,271016,,,,,,,,,,
,,,,4,1.172,0,22,22,778,1,there is a black cabinet in a sunny kitchen with white cabinets.,there is a cactus plant on the kitchen counter that is housed by white shelves.,wolfe2,080_R_plant,2,42,AURWCCP5H59VI,2021-01-24_10h29.19.755,MetaAwareness,2020.1.2,Win32,60,3H5TOKO3DAMCFDTPPC740PTXL9N46R,AURWCCP5H59VI,34PGFRQONPE3YUPA93CES4CHHLWWJV,OFP46,OFP46,34PGFRQONPE3YUPA93CES4CHHLWWJV,34PGFRQONPE3YUPA93CES4CHHLWWJV,271016,271016,,,,,,,,,,
,,,,2,1.135,0,23,23,614,1,dining room with 6 chairs,dining room with wine bottles on desk in the back,wolfe2,064_L_bottles,3,42,AURWCCP5H59VI,2021-01-24_10h29.19.755,MetaAwareness,2020.1.2,Win32,60,3H5TOKO3DAMCFDTPPC740PTXL9N46R,AURWCCP5H59VI,34PGFRQONPE3YUPA93CES4CHHLWWJV,OFP46,OFP46,34PGFRQONPE3YUPA93CES4CHHLWWJV,34PGFRQONPE3YUPA93CES4CHHLWWJV,271016,271016,,,,,,,,,,
,,,,1,1.147,0,24,24,76,1,a clean and orderly blue bathroom with a large mirror and one bottle on the window sill,a clean and orderly blue bathroom with a large mirror and two bottles on the window sill,wolfe2,008_R_bottle,2,42,AURWCCP5H59VI,2021-01-24_10h29.19.755,MetaAwareness,2020.1.2,Win32,60,3H5TOKO3DAMCFDTPPC740PTXL9N46R,AURWCCP5H59VI,34PGFRQONPE3YUPA93CES4CHHLWWJV,OFP46,OFP46,34PGFRQONPE3YUPA93CES4CHHLWWJV,34PGFRQONPE3YUPA93CES4CHHLWWJV,271016,271016,,,,,,,,,,
,,,,2,1.321,0,25,25,819,1,"a living room overlooking the water, without a light fixture on the wall","a living room overlooking the water, with a light fixture on the wall",wolfe2,084_R_light,3,42,AURWCCP5H59VI,2021-01-24_10h29.19.755,MetaAwareness,2020.1.2,Win32,60,3H5TOKO3DAMCFDTPPC740PTXL9N46R,AURWCCP5H59VI,34PGFRQONPE3YUPA93CES4CHHLWWJV,OFP46,OFP46,34PGFRQONPE3YUPA93CES4CHHLWWJV,34PGFRQONPE3YUPA93CES4CHHLWWJV,271016,271016,,,,,,,,,,
,,,,3,1.444,0,26,26,1123,1,a open spaced room with a potted plant,a open spaced room with an empty table,wolfe2,117_L_plant_sized,2,42,AURWCCP5H59VI,2021-01-24_10h29.19.755,MetaAwareness,2020.1.2,Win32,60,3H5TOKO3DAMCFDTPPC740PTXL9N46R,AURWCCP5H59VI,34PGFRQONPE3YUPA93CES4CHHLWWJV,OFP46,OFP46,34PGFRQONPE3YUPA93CES4CHHLWWJV,34PGFRQONPE3YUPA93CES4CHHLWWJV,271016,271016,,,,,,,,,,
,,,,4,2.339,0,27,27,72,1,a blue bathroom. there is a mirror in the center with a sink below it. there is a window to the left of the mirror with a shade drawn on it with a bottle with a spray bottle with a red cap on it.,a blue bathroom. there is a mirror in the center with a sink below it. there is a window to the left of the mirror with a shade drawn on it with a spray bottle with a red cape with a smaller bottle next to it.,wolfe2,008_L_bottle,2,42,AURWCCP5H59VI,2021-01-24_10h29.19.755,MetaAwareness,2020.1.2,Win32,60,3H5TOKO3DAMCFDTPPC740PTXL9N46R,AURWCCP5H59VI,34PGFRQONPE3YUPA93CES4CHHLWWJV,OFP46,OFP46,34PGFRQONPE3YUPA93CES4CHHLWWJV,34PGFRQONPE3YUPA93CES4CHHLWWJV,271016,271016,,,,,,,,,,
,,,,1,2.461,0,28,28,916,1,the bedroom has a yellow spread with a nature scene above the bed. the closet has two glass doors. on the headboard of the bed there is a hole on the right side near the top.,"the headboard has a yellow spread with a scenic picture above the bed. there is a closet with two mirrored doors. on the right of the headboard of the bed, there is a hole on the right side near the top.",wolfe2,093_R_switch,4,42,AURWCCP5H59VI,2021-01-24_10h29.19.755,MetaAwareness,2020.1.2,Win32,60,3H5TOKO3DAMCFDTPPC740PTXL9N46R,AURWCCP5H59VI,34PGFRQONPE3YUPA93CES4CHHLWWJV,OFP46,OFP46,34PGFRQONPE3YUPA93CES4CHHLWWJV,34PGFRQONPE3YUPA93CES4CHHLWWJV,271016,271016,,,,,,,,,,
,,,,2,1.365,0,29,29,986,1,a modern powder room with devorations and gifts on the floor,a modern powder room with steps to the outside,wolfe2,102_L_shoppingbag,4,42,AURWCCP5H59VI,2021-01-24_10h29.19.755,MetaAwareness,2020.1.2,Win32,60,3H5TOKO3DAMCFDTPPC740PTXL9N46R,AURWCCP5H59VI,34PGFRQONPE3YUPA93CES4CHHLWWJV,OFP46,OFP46,34PGFRQONPE3YUPA93CES4CHHLWWJV,34PGFRQONPE3YUPA93CES4CHHLWWJV,271016,271016,,,,,,,,,,
,,,,,,,,,,,,,,,,42,AURWCCP5H59VI,2021-01-24_10h29.19.755,MetaAwareness,2020.1.2,Win32,60,3H5TOKO3DAMCFDTPPC740PTXL9N46R,AURWCCP5H59VI,34PGFRQONPE3YUPA93CES4CHHLWWJV,OFP46,OFP46,34PGFRQONPE3YUPA93CES4CHHLWWJV,34PGFRQONPE3YUPA93CES4CHHLWWJV,271016,271016,3,1.307,someone laying underneath a blue beach umbrella on a crowded beach,someone laying underneath a blue beach umbrella on a crowded beach,same,4,1.238,members of a marching band crossing a track that all have feather plumes at the front of their hats,a cluttered and rustic looking cafe with 10 hanging lights,different
