consent_response.keys,consent_response.rt,key_resp_2.keys,key_resp_2.rt,user_resp.keys,user_resp.rt,trials.thisRepN,trials.thisTrialN,trials.thisN,trials.thisIndex,trials.ran,image_1_text,image_2_text,database,image,number,age,worker_ID,date,expName,psychopyVersion,OS,frameRate,hitId,workerId,assignmentId,a,tp_a,b,tp_b,c,tp_c,catch_same_resp.keys,catch_same_resp.rt,image_1_text_catch_same,image_2_text_catch_same,image_catch_same,catch_different_resp.keys,catch_different_resp.rt,image_1_text_catch_different,image_2_text_catch_different,image_catch_different
space,11.372975,space,22.17843,4,17.11363,0,0,0,1189,1,a  room with a hot tub that has a potted plant near the right side.,a room with a hot tube that has no potted plants on the right side of the room.,wolfe2,123_R_pot,5,59,AURYD2FH3FUOQ,2021-01-24_10h10.57.761,MetaAwareness,2020.1.2,Win32,60,3ZQA3IO31CULCK2A2QAWJR8LUP81O1,AURYD2FH3FUOQ,3L2IS5HSFBLMPGRQT1P53N815PUNUV,SS2L6,SS2L6,3L2IS5HSFBLMPGRQT1P53N815PUNUV,3L2IS5HSFBLMPGRQT1P53N815PUNUV,271016,271016,,,,,,,,,,
,,,,4,11.37787,0,1,1,937,1,bed room with hot and pillow there is a light in the wall,bed room withpillow and hot .  no light is on the wall,wolfe2,097_L_light,1,59,AURYD2FH3FUOQ,2021-01-24_10h10.57.761,MetaAwareness,2020.1.2,Win32,60,3ZQA3IO31CULCK2A2QAWJR8LUP81O1,AURYD2FH3FUOQ,3L2IS5HSFBLMPGRQT1P53N815PUNUV,SS2L6,SS2L6,3L2IS5HSFBLMPGRQT1P53N815PUNUV,3L2IS5HSFBLMPGRQT1P53N815PUNUV,271016,271016,,,,,,,,,,
,,,,3,16.561745,0,2,2,567,1,a child's bedroom without a race car above the dresser,a child's bedroom with a racar on the dresser,wolfe2,059_R_car,2,59,AURYD2FH3FUOQ,2021-01-24_10h10.57.761,MetaAwareness,2020.1.2,Win32,60,3ZQA3IO31CULCK2A2QAWJR8LUP81O1,AURYD2FH3FUOQ,3L2IS5HSFBLMPGRQT1P53N815PUNUV,SS2L6,SS2L6,3L2IS5HSFBLMPGRQT1P53N815PUNUV,3L2IS5HSFBLMPGRQT1P53N815PUNUV,271016,271016,,,,,,,,,,
,,,,5,7.50952,0,3,3,429,1,hotel bedroom with yellow and black decor,hotel bedroom with yellow and black decor and clock radio,wolfe2,045_L_musicdock,1,59,AURYD2FH3FUOQ,2021-01-24_10h10.57.761,MetaAwareness,2020.1.2,Win32,60,3ZQA3IO31CULCK2A2QAWJR8LUP81O1,AURYD2FH3FUOQ,3L2IS5HSFBLMPGRQT1P53N815PUNUV,SS2L6,SS2L6,3L2IS5HSFBLMPGRQT1P53N815PUNUV,3L2IS5HSFBLMPGRQT1P53N815PUNUV,271016,271016,,,,,,,,,,
,,,,5,9.0404,0,4,4,924,1,"a bright, cheery living room with four candles in front of a large mirror","a bright, cheery living room with three candles in front of a large mirror",wolfe2,095_R_candle,4,59,AURYD2FH3FUOQ,2021-01-24_10h10.57.761,MetaAwareness,2020.1.2,Win32,60,3ZQA3IO31CULCK2A2QAWJR8LUP81O1,AURYD2FH3FUOQ,3L2IS5HSFBLMPGRQT1P53N815PUNUV,SS2L6,SS2L6,3L2IS5HSFBLMPGRQT1P53N815PUNUV,3L2IS5HSFBLMPGRQT1P53N815PUNUV,271016,271016,,,,,,,,,,
,,,,5,9.553945,0,5,5,319,1,"a living room with a modern and minimalistic feel, that includes a shelf with a lamp and a book","a living room with a modern and minimalistic feel, that includes a shelf with a lamp, a clear vase, and a book",wolfe2,033_L_vase,4,59,AURYD2FH3FUOQ,2021-01-24_10h10.57.761,MetaAwareness,2020.1.2,Win32,60,3ZQA3IO31CULCK2A2QAWJR8LUP81O1,AURYD2FH3FUOQ,3L2IS5HSFBLMPGRQT1P53N815PUNUV,SS2L6,SS2L6,3L2IS5HSFBLMPGRQT1P53N815PUNUV,3L2IS5HSFBLMPGRQT1P53N815PUNUV,271016,271016,,,,,,,,,,
,,,,5,5.443325,0,6,6,1023,1,a shwer area with a paper towel dispenser on the wall,a shower area,wolfe2,106_L_toweldispenser,4,59,AURYD2FH3FUOQ,2021-01-24_10h10.57.761,MetaAwareness,2020.1.2,Win32,60,3ZQA3IO31CULCK2A2QAWJR8LUP81O1,AURYD2FH3FUOQ,3L2IS5HSFBLMPGRQT1P53N815PUNUV,SS2L6,SS2L6,3L2IS5HSFBLMPGRQT1P53N815PUNUV,3L2IS5HSFBLMPGRQT1P53N815PUNUV,271016,271016,,,,,,,,,,
,,,,5,29.969415,0,7,7,1086,1,"living room with several glass windows, ceiling light with fan and a flower pot beside the cushioned chair.","living room with several glass windows, ceiling light with fan and many places to sit.",wolfe2,112_R_basket,4,59,AURYD2FH3FUOQ,2021-01-24_10h10.57.761,MetaAwareness,2020.1.2,Win32,60,3ZQA3IO31CULCK2A2QAWJR8LUP81O1,AURYD2FH3FUOQ,3L2IS5HSFBLMPGRQT1P53N815PUNUV,SS2L6,SS2L6,3L2IS5HSFBLMPGRQT1P53N815PUNUV,3L2IS5HSFBLMPGRQT1P53N815PUNUV,271016,271016,,,,,,,,,,
,,,,5,6.096555,0,8,8,158,1,a modern style living room with a window and speaker in the back,a modern style living room with a window and speaker in te back with something on top of it,wolfe2,016_L_art,5,59,AURYD2FH3FUOQ,2021-01-24_10h10.57.761,MetaAwareness,2020.1.2,Win32,60,3ZQA3IO31CULCK2A2QAWJR8LUP81O1,AURYD2FH3FUOQ,3L2IS5HSFBLMPGRQT1P53N815PUNUV,SS2L6,SS2L6,3L2IS5HSFBLMPGRQT1P53N815PUNUV,3L2IS5HSFBLMPGRQT1P53N815PUNUV,271016,271016,,,,,,,,,,
,,,,1,4.15676,0,9,9,833,1,there is a light switch,the light switch is missing,wolfe2,085_R_switchboard,4,59,AURYD2FH3FUOQ,2021-01-24_10h10.57.761,MetaAwareness,2020.1.2,Win32,60,3ZQA3IO31CULCK2A2QAWJR8LUP81O1,AURYD2FH3FUOQ,3L2IS5HSFBLMPGRQT1P53N815PUNUV,SS2L6,SS2L6,3L2IS5HSFBLMPGRQT1P53N815PUNUV,3L2IS5HSFBLMPGRQT1P53N815PUNUV,271016,271016,,,,,,,,,,
,,,,5,8.776035,0,10,10,1,1,a bedroom with a swan picture and blue walls,a bedroom with a swan picture and blue walls and a hanging mirror near the corner of the room,wolfe2,001_L_mirror,2,59,AURYD2FH3FUOQ,2021-01-24_10h10.57.761,MetaAwareness,2020.1.2,Win32,60,3ZQA3IO31CULCK2A2QAWJR8LUP81O1,AURYD2FH3FUOQ,3L2IS5HSFBLMPGRQT1P53N815PUNUV,SS2L6,SS2L6,3L2IS5HSFBLMPGRQT1P53N815PUNUV,3L2IS5HSFBLMPGRQT1P53N815PUNUV,271016,271016,,,,,,,,,,
,,,,3,12.054215,0,11,11,224,1,there is a tv in this outdoor living space but the tv is missing a remote.,this outdoor living space is complete with everything it needs to function well.,wolfe2,023_L_remote,5,59,AURYD2FH3FUOQ,2021-01-24_10h10.57.761,MetaAwareness,2020.1.2,Win32,60,3ZQA3IO31CULCK2A2QAWJR8LUP81O1,AURYD2FH3FUOQ,3L2IS5HSFBLMPGRQT1P53N815PUNUV,SS2L6,SS2L6,3L2IS5HSFBLMPGRQT1P53N815PUNUV,3L2IS5HSFBLMPGRQT1P53N815PUNUV,271016,271016,,,,,,,,,,
,,,,5,13.10784,0,12,12,810,1,"a child's bedroom with a bunkbed, small green chair, square white table, shelves, and a chest of drawers including two blue drawers, one of which is missing a knob","a child's bedroom with a bunkbed, small green chair, square white table, shelves, and a chest of drawers including two blue drawers that both have knobs",wolfe2,083_R_knob,3,59,AURYD2FH3FUOQ,2021-01-24_10h10.57.761,MetaAwareness,2020.1.2,Win32,60,3ZQA3IO31CULCK2A2QAWJR8LUP81O1,AURYD2FH3FUOQ,3L2IS5HSFBLMPGRQT1P53N815PUNUV,SS2L6,SS2L6,3L2IS5HSFBLMPGRQT1P53N815PUNUV,3L2IS5HSFBLMPGRQT1P53N815PUNUV,271016,271016,,,,,,,,,,
,,,,5,18.66569,0,13,13,720,1,a kitchen with wood floors and cabinets with 6 overhead lights,a kitchen with wood floors and cabinets with 7 overhead lights,wolfe2,075_L_light,2,59,AURYD2FH3FUOQ,2021-01-24_10h10.57.761,MetaAwareness,2020.1.2,Win32,60,3ZQA3IO31CULCK2A2QAWJR8LUP81O1,AURYD2FH3FUOQ,3L2IS5HSFBLMPGRQT1P53N815PUNUV,SS2L6,SS2L6,3L2IS5HSFBLMPGRQT1P53N815PUNUV,3L2IS5HSFBLMPGRQT1P53N815PUNUV,271016,271016,,,,,,,,,,
,,,,4,13.19693,0,14,14,1193,1,an office room with wide opening of window faces natural and one lamp sit on the ground,an office room with wide opening of window faces natural and no lamp sit on the ground,wolfe2,124_L_vase,4,59,AURYD2FH3FUOQ,2021-01-24_10h10.57.761,MetaAwareness,2020.1.2,Win32,60,3ZQA3IO31CULCK2A2QAWJR8LUP81O1,AURYD2FH3FUOQ,3L2IS5HSFBLMPGRQT1P53N815PUNUV,SS2L6,SS2L6,3L2IS5HSFBLMPGRQT1P53N815PUNUV,3L2IS5HSFBLMPGRQT1P53N815PUNUV,271016,271016,,,,,,,,,,
,,,,5,5.6595,0,15,15,478,1,an office space that is neat and tidy with a bookcase with 5 shelves of books on it,an office space that is neat and tidy with a bookcase with 6 shelves of books on it,wolfe2,050_L_book,5,59,AURYD2FH3FUOQ,2021-01-24_10h10.57.761,MetaAwareness,2020.1.2,Win32,60,3ZQA3IO31CULCK2A2QAWJR8LUP81O1,AURYD2FH3FUOQ,3L2IS5HSFBLMPGRQT1P53N815PUNUV,SS2L6,SS2L6,3L2IS5HSFBLMPGRQT1P53N815PUNUV,3L2IS5HSFBLMPGRQT1P53N815PUNUV,271016,271016,,,,,,,,,,
,,,,5,7.17122,0,16,16,1181,1,a bright sunroom with a scenic view that has 17 potted plants inside around the jacuzzi.,a bright sunroom with a scenic view that has 16 potted plants inside around the jacuzzi.,wolfe2,123_L_pot,2,59,AURYD2FH3FUOQ,2021-01-24_10h10.57.761,MetaAwareness,2020.1.2,Win32,60,3ZQA3IO31CULCK2A2QAWJR8LUP81O1,AURYD2FH3FUOQ,3L2IS5HSFBLMPGRQT1P53N815PUNUV,SS2L6,SS2L6,3L2IS5HSFBLMPGRQT1P53N815PUNUV,3L2IS5HSFBLMPGRQT1P53N815PUNUV,271016,271016,,,,,,,,,,
,,,,5,5.798575,0,17,17,716,1,family coffee table in living room,the living room space includes a coffee table,wolfe2,074_R_book,6,59,AURYD2FH3FUOQ,2021-01-24_10h10.57.761,MetaAwareness,2020.1.2,Win32,60,3ZQA3IO31CULCK2A2QAWJR8LUP81O1,AURYD2FH3FUOQ,3L2IS5HSFBLMPGRQT1P53N815PUNUV,SS2L6,SS2L6,3L2IS5HSFBLMPGRQT1P53N815PUNUV,3L2IS5HSFBLMPGRQT1P53N815PUNUV,271016,271016,,,,,,,,,,
,,,,3,6.104365,0,18,18,829,1,a bathroom with an outlet on the wall,a bathroom with no outlet on the wall,wolfe2,085_L_switchboard,4,59,AURYD2FH3FUOQ,2021-01-24_10h10.57.761,MetaAwareness,2020.1.2,Win32,60,3ZQA3IO31CULCK2A2QAWJR8LUP81O1,AURYD2FH3FUOQ,3L2IS5HSFBLMPGRQT1P53N815PUNUV,SS2L6,SS2L6,3L2IS5HSFBLMPGRQT1P53N815PUNUV,3L2IS5HSFBLMPGRQT1P53N815PUNUV,271016,271016,,,,,,,,,,
,,,,5,34.20913,0,19,19,125,1,a sectioned room with a hardwood floor and one light over a seating table,a sectioned room with a hardwood floor and two lights over a seating table,wolfe2,013_L_lamp,5,59,AURYD2FH3FUOQ,2021-01-24_10h10.57.761,MetaAwareness,2020.1.2,Win32,60,3ZQA3IO31CULCK2A2QAWJR8LUP81O1,AURYD2FH3FUOQ,3L2IS5HSFBLMPGRQT1P53N815PUNUV,SS2L6,SS2L6,3L2IS5HSFBLMPGRQT1P53N815PUNUV,3L2IS5HSFBLMPGRQT1P53N815PUNUV,271016,271016,,,,,,,,,,
,,,,4,7.709885,0,20,20,264,1,there is nothing but brown wallpaper in this shower stall.,there is a soap rack hanging on the brown wallpaper in this shower stall.,wolfe2,027_R_soapdish,1,59,AURYD2FH3FUOQ,2021-01-24_10h10.57.761,MetaAwareness,2020.1.2,Win32,60,3ZQA3IO31CULCK2A2QAWJR8LUP81O1,AURYD2FH3FUOQ,3L2IS5HSFBLMPGRQT1P53N815PUNUV,SS2L6,SS2L6,3L2IS5HSFBLMPGRQT1P53N815PUNUV,3L2IS5HSFBLMPGRQT1P53N815PUNUV,271016,271016,,,,,,,,,,
,,,,5,8.42073,0,21,21,1238,1,"a home office with built in desk and book shelves, the desk has computer equipment and a plant on it","a home office with built in desk and book shelves, the desk has computer equipment on it",wolfe2,128_R_pot,4,59,AURYD2FH3FUOQ,2021-01-24_10h10.57.761,MetaAwareness,2020.1.2,Win32,60,3ZQA3IO31CULCK2A2QAWJR8LUP81O1,AURYD2FH3FUOQ,3L2IS5HSFBLMPGRQT1P53N815PUNUV,SS2L6,SS2L6,3L2IS5HSFBLMPGRQT1P53N815PUNUV,3L2IS5HSFBLMPGRQT1P53N815PUNUV,271016,271016,,,,,,,,,,
,,,,6,37.755925,0,22,22,441,1,a livingroom with a table without a bowl on top of the table,a livingroom with a table that has a bowl on top of the table,wolfe2,046_L_remote,4,59,AURYD2FH3FUOQ,2021-01-24_10h10.57.761,MetaAwareness,2020.1.2,Win32,60,3ZQA3IO31CULCK2A2QAWJR8LUP81O1,AURYD2FH3FUOQ,3L2IS5HSFBLMPGRQT1P53N815PUNUV,SS2L6,SS2L6,3L2IS5HSFBLMPGRQT1P53N815PUNUV,3L2IS5HSFBLMPGRQT1P53N815PUNUV,271016,271016,,,,,,,,,,
,,,,5,12.72097,0,23,23,114,1,a modern bath with free-standing tub underneath a three pane window to the back yard.,a modern bath with free-standing tub underneath a three pane window to the back yard. the tub drain switch is clearly visible.,wolfe2,012_L_tubaccesory,3,59,AURYD2FH3FUOQ,2021-01-24_10h10.57.761,MetaAwareness,2020.1.2,Win32,60,3ZQA3IO31CULCK2A2QAWJR8LUP81O1,AURYD2FH3FUOQ,3L2IS5HSFBLMPGRQT1P53N815PUNUV,SS2L6,SS2L6,3L2IS5HSFBLMPGRQT1P53N815PUNUV,3L2IS5HSFBLMPGRQT1P53N815PUNUV,271016,271016,,,,,,,,,,
,,,,4,13.795695,0,24,24,163,1,a bedroom with a scenic view of the trees outside. no object on the black cube in the bedroom.,a bedroom with a scenic view of the trees outside. theres a black cube display with another object on top in the bedroom.,wolfe2,016_R_art,4,59,AURYD2FH3FUOQ,2021-01-24_10h10.57.761,MetaAwareness,2020.1.2,Win32,60,3ZQA3IO31CULCK2A2QAWJR8LUP81O1,AURYD2FH3FUOQ,3L2IS5HSFBLMPGRQT1P53N815PUNUV,SS2L6,SS2L6,3L2IS5HSFBLMPGRQT1P53N815PUNUV,3L2IS5HSFBLMPGRQT1P53N815PUNUV,271016,271016,,,,,,,,,,
,,,,5,4.93903,0,25,25,255,1,a bathroom with a wood commode top,a bathroom with a wood commode top and a shelf,wolfe2,026_L_rack,4,59,AURYD2FH3FUOQ,2021-01-24_10h10.57.761,MetaAwareness,2020.1.2,Win32,60,3ZQA3IO31CULCK2A2QAWJR8LUP81O1,AURYD2FH3FUOQ,3L2IS5HSFBLMPGRQT1P53N815PUNUV,SS2L6,SS2L6,3L2IS5HSFBLMPGRQT1P53N815PUNUV,3L2IS5HSFBLMPGRQT1P53N815PUNUV,271016,271016,,,,,,,,,,
,,,,5,21.860135,0,26,26,360,1,"a large white bathroom that has both a tub and a shower as well as a toilet and a bidet, and two brown towels on a shelf","a large white bathroom that has both a tub and a shower as well as a toilet and a bidet, and three brown towels on a shelf",wolfe2,037_R_towel,4,59,AURYD2FH3FUOQ,2021-01-24_10h10.57.761,MetaAwareness,2020.1.2,Win32,60,3ZQA3IO31CULCK2A2QAWJR8LUP81O1,AURYD2FH3FUOQ,3L2IS5HSFBLMPGRQT1P53N815PUNUV,SS2L6,SS2L6,3L2IS5HSFBLMPGRQT1P53N815PUNUV,3L2IS5HSFBLMPGRQT1P53N815PUNUV,271016,271016,,,,,,,,,,
,,,,5,8.52571,0,27,27,62,1,double sink in a bathroom with large mirror. the right sink has a soap dish with yellow soap.,double sink in a bathroom with large mirror. the sinks each have a soap dish with yellow soap.,wolfe2,007_L_soap,3,59,AURYD2FH3FUOQ,2021-01-24_10h10.57.761,MetaAwareness,2020.1.2,Win32,60,3ZQA3IO31CULCK2A2QAWJR8LUP81O1,AURYD2FH3FUOQ,3L2IS5HSFBLMPGRQT1P53N815PUNUV,SS2L6,SS2L6,3L2IS5HSFBLMPGRQT1P53N815PUNUV,3L2IS5HSFBLMPGRQT1P53N815PUNUV,271016,271016,,,,,,,,,,
,,,,3,12.48463,0,28,28,983,1,a nice study room with beautiful view outside,a nice study room with beautiful view outside a small side table is missing in this image. ,wolfe2,102_L_shoppingbag,1,59,AURYD2FH3FUOQ,2021-01-24_10h10.57.761,MetaAwareness,2020.1.2,Win32,60,3ZQA3IO31CULCK2A2QAWJR8LUP81O1,AURYD2FH3FUOQ,3L2IS5HSFBLMPGRQT1P53N815PUNUV,SS2L6,SS2L6,3L2IS5HSFBLMPGRQT1P53N815PUNUV,3L2IS5HSFBLMPGRQT1P53N815PUNUV,271016,271016,,,,,,,,,,
,,,,5,10.63919,0,29,29,317,1,a tidy living room in neutral tones with shelves full of decor along one wall,a tidy living room in neutral tones with shelves full of decor including a large vase along one wall,wolfe2,033_L_vase,2,59,AURYD2FH3FUOQ,2021-01-24_10h10.57.761,MetaAwareness,2020.1.2,Win32,60,3ZQA3IO31CULCK2A2QAWJR8LUP81O1,AURYD2FH3FUOQ,3L2IS5HSFBLMPGRQT1P53N815PUNUV,SS2L6,SS2L6,3L2IS5HSFBLMPGRQT1P53N815PUNUV,3L2IS5HSFBLMPGRQT1P53N815PUNUV,271016,271016,,,,,,,,,,
,,,,,,,,,,,,,,,,59,AURYD2FH3FUOQ,2021-01-24_10h10.57.761,MetaAwareness,2020.1.2,Win32,60,3ZQA3IO31CULCK2A2QAWJR8LUP81O1,AURYD2FH3FUOQ,3L2IS5HSFBLMPGRQT1P53N815PUNUV,SS2L6,SS2L6,3L2IS5HSFBLMPGRQT1P53N815PUNUV,3L2IS5HSFBLMPGRQT1P53N815PUNUV,271016,271016,6,6.360615,someone laying underneath a blue beach umbrella on a crowded beach,someone laying underneath a blue beach umbrella on a crowded beach,same,1,5.963915,members of a marching band crossing a track that all have feather plumes at the front of their hats,a cluttered and rustic looking cafe with 10 hanging lights,different
