consent_response.keys,consent_response.rt,key_resp_2.keys,key_resp_2.rt,user_resp.keys,user_resp.rt,trials.thisRepN,trials.thisTrialN,trials.thisN,trials.thisIndex,trials.ran,image_1_text,image_2_text,database,image,number,age,worker_ID,date,expName,psychopyVersion,OS,frameRate,hitId,workerId,assignmentId,a,tp_a,b,tp_b,c,tp_c,catch_same_resp.keys,catch_same_resp.rt,image_1_text_catch_same,image_2_text_catch_same,image_catch_same,catch_different_resp.keys,catch_different_resp.rt,image_1_text_catch_different,image_2_text_catch_different,image_catch_different
space,69.384,space,49.022,2,35.485,0,0,0,145,1,"a room with two hightop tables, very high ceilings and 3 upward pointed lights very high up on the walls",a room with two hightop tables very high ceilings and 4 upward pointed lights very high up on the walls,wolfe2,014_R_lamp,6,32,AX9DKJZE40514,2021-01-24_12h58.16.073,MetaAwareness,2020.1.2,Win32,60,3TZDZ3Y0JT9I5XY401REM1DWZQN19O,AX9DKJZE40514,3TVSS0C0E23XCXLFLXQIUAZQFNTTW3,0SVT6,0SVT6,3TVSS0C0E23XCXLFLXQIUAZQFNTTW3,3TVSS0C0E23XCXLFLXQIUAZQFNTTW3,271016,271016,,,,,,,,,,
,,,,3,29.424,0,1,1,999,1,a bathroom with two sinks and a picture of some sort nex to the mirror,a bathroom with two sinks and no picture next to the mirror,wolfe2,103_R_hook,4,32,AX9DKJZE40514,2021-01-24_12h58.16.073,MetaAwareness,2020.1.2,Win32,60,3TZDZ3Y0JT9I5XY401REM1DWZQN19O,AX9DKJZE40514,3TVSS0C0E23XCXLFLXQIUAZQFNTTW3,0SVT6,0SVT6,3TVSS0C0E23XCXLFLXQIUAZQFNTTW3,3TVSS0C0E23XCXLFLXQIUAZQFNTTW3,271016,271016,,,,,,,,,,
,,,,2,21.94,0,2,2,112,1,a modern style bathroom with a featureless tub sitting in front of a water faucet.,a modern style bathroom with a tub containing a green circle sitting in front of a water faucet.,wolfe2,012_L_tubaccesory,1,32,AX9DKJZE40514,2021-01-24_12h58.16.073,MetaAwareness,2020.1.2,Win32,60,3TZDZ3Y0JT9I5XY401REM1DWZQN19O,AX9DKJZE40514,3TVSS0C0E23XCXLFLXQIUAZQFNTTW3,0SVT6,0SVT6,3TVSS0C0E23XCXLFLXQIUAZQFNTTW3,3TVSS0C0E23XCXLFLXQIUAZQFNTTW3,271016,271016,,,,,,,,,,
,,,,2,18.273,0,3,3,18,1,a desk area inside a home overlooking a lake,a desk area inside a home overlookin a lake with three birds in the water,wolfe2,003_L_ducks,1,32,AX9DKJZE40514,2021-01-24_12h58.16.073,MetaAwareness,2020.1.2,Win32,60,3TZDZ3Y0JT9I5XY401REM1DWZQN19O,AX9DKJZE40514,3TVSS0C0E23XCXLFLXQIUAZQFNTTW3,0SVT6,0SVT6,3TVSS0C0E23XCXLFLXQIUAZQFNTTW3,3TVSS0C0E23XCXLFLXQIUAZQFNTTW3,271016,271016,,,,,,,,,,
,,,,1,12.813,0,4,4,1133,1,a room with shoes on the floor leading to the outdoors,a room without shoes on the floor,wolfe2,118_L_shoes,3,32,AX9DKJZE40514,2021-01-24_12h58.16.073,MetaAwareness,2020.1.2,Win32,60,3TZDZ3Y0JT9I5XY401REM1DWZQN19O,AX9DKJZE40514,3TVSS0C0E23XCXLFLXQIUAZQFNTTW3,0SVT6,0SVT6,3TVSS0C0E23XCXLFLXQIUAZQFNTTW3,3TVSS0C0E23XCXLFLXQIUAZQFNTTW3,271016,271016,,,,,,,,,,
,,,,3,17.953,0,5,5,871,1,an empty salon containing two portraits of women,an empty salon containing one portrait of a woman,wolfe2,089_R_poster,1,32,AX9DKJZE40514,2021-01-24_12h58.16.073,MetaAwareness,2020.1.2,Win32,60,3TZDZ3Y0JT9I5XY401REM1DWZQN19O,AX9DKJZE40514,3TVSS0C0E23XCXLFLXQIUAZQFNTTW3,0SVT6,0SVT6,3TVSS0C0E23XCXLFLXQIUAZQFNTTW3,3TVSS0C0E23XCXLFLXQIUAZQFNTTW3,271016,271016,,,,,,,,,,
,,,,6,12.542,0,6,6,1172,1, a room with several dinnig table present,a room with several dinning table present,wolfe2,122_L_chair,2,32,AX9DKJZE40514,2021-01-24_12h58.16.073,MetaAwareness,2020.1.2,Win32,60,3TZDZ3Y0JT9I5XY401REM1DWZQN19O,AX9DKJZE40514,3TVSS0C0E23XCXLFLXQIUAZQFNTTW3,0SVT6,0SVT6,3TVSS0C0E23XCXLFLXQIUAZQFNTTW3,3TVSS0C0E23XCXLFLXQIUAZQFNTTW3,271016,271016,,,,,,,,,,
,,,,4,33.855,0,7,7,325,1,a nicely decorated bedroom with a white nightstand missing the third row handle,a nicely decorated bedroom with a white nightstand that has all of the handles.,wolfe2,034_L_handle,2,32,AX9DKJZE40514,2021-01-24_12h58.16.073,MetaAwareness,2020.1.2,Win32,60,3TZDZ3Y0JT9I5XY401REM1DWZQN19O,AX9DKJZE40514,3TVSS0C0E23XCXLFLXQIUAZQFNTTW3,0SVT6,0SVT6,3TVSS0C0E23XCXLFLXQIUAZQFNTTW3,3TVSS0C0E23XCXLFLXQIUAZQFNTTW3,271016,271016,,,,,,,,,,
,,,,2,21.861,0,8,8,882,1,a red and white bedroom with a small lamp in the corner,a red and white bedroom with no clutter or objects on the floor,wolfe2,090_R_lamp,2,32,AX9DKJZE40514,2021-01-24_12h58.16.073,MetaAwareness,2020.1.2,Win32,60,3TZDZ3Y0JT9I5XY401REM1DWZQN19O,AX9DKJZE40514,3TVSS0C0E23XCXLFLXQIUAZQFNTTW3,0SVT6,0SVT6,3TVSS0C0E23XCXLFLXQIUAZQFNTTW3,3TVSS0C0E23XCXLFLXQIUAZQFNTTW3,271016,271016,,,,,,,,,,
,,,,4,18.62,0,9,9,269,1,a simple bathroom with modern aesthetic which has 1 hand towel on the counter,a simple bathroom with modern aesthetic which has 2 hand towels on the counter,wolfe2,028_L_vase,1,32,AX9DKJZE40514,2021-01-24_12h58.16.073,MetaAwareness,2020.1.2,Win32,60,3TZDZ3Y0JT9I5XY401REM1DWZQN19O,AX9DKJZE40514,3TVSS0C0E23XCXLFLXQIUAZQFNTTW3,0SVT6,0SVT6,3TVSS0C0E23XCXLFLXQIUAZQFNTTW3,3TVSS0C0E23XCXLFLXQIUAZQFNTTW3,271016,271016,,,,,,,,,,
,,,,4,18.857,0,10,10,420,1,a bathroom tub with one light on the side,a bathroom tub with two lights on the side,wolfe2,044_L_light,3,32,AX9DKJZE40514,2021-01-24_12h58.16.073,MetaAwareness,2020.1.2,Win32,60,3TZDZ3Y0JT9I5XY401REM1DWZQN19O,AX9DKJZE40514,3TVSS0C0E23XCXLFLXQIUAZQFNTTW3,0SVT6,0SVT6,3TVSS0C0E23XCXLFLXQIUAZQFNTTW3,3TVSS0C0E23XCXLFLXQIUAZQFNTTW3,271016,271016,,,,,,,,,,
,,,,1,12.26,0,11,11,1170,1,a bedroom with a black item on a table,a table that only has a lamp on the table no other item,wolfe2,121_R_car,6,32,AX9DKJZE40514,2021-01-24_12h58.16.073,MetaAwareness,2020.1.2,Win32,60,3TZDZ3Y0JT9I5XY401REM1DWZQN19O,AX9DKJZE40514,3TVSS0C0E23XCXLFLXQIUAZQFNTTW3,0SVT6,0SVT6,3TVSS0C0E23XCXLFLXQIUAZQFNTTW3,3TVSS0C0E23XCXLFLXQIUAZQFNTTW3,271016,271016,,,,,,,,,,
,,,,4,23.275,0,12,12,463,1,a fancy bedroom with a short glass sculpture to the right of the mirror,a fancy bedroom with a tall glass sculpture to the right of the mirror,wolfe2,048_R_art,2,32,AX9DKJZE40514,2021-01-24_12h58.16.073,MetaAwareness,2020.1.2,Win32,60,3TZDZ3Y0JT9I5XY401REM1DWZQN19O,AX9DKJZE40514,3TVSS0C0E23XCXLFLXQIUAZQFNTTW3,0SVT6,0SVT6,3TVSS0C0E23XCXLFLXQIUAZQFNTTW3,3TVSS0C0E23XCXLFLXQIUAZQFNTTW3,271016,271016,,,,,,,,,,
,,,,3,18.335,0,13,13,1119,1,a black and white based modern dining room with a plant on the floor with a silver basket next to it.,a black and white based modern dining room with a plant on the floor ,wolfe2,116_R_basket,3,32,AX9DKJZE40514,2021-01-24_12h58.16.073,MetaAwareness,2020.1.2,Win32,60,3TZDZ3Y0JT9I5XY401REM1DWZQN19O,AX9DKJZE40514,3TVSS0C0E23XCXLFLXQIUAZQFNTTW3,0SVT6,0SVT6,3TVSS0C0E23XCXLFLXQIUAZQFNTTW3,3TVSS0C0E23XCXLFLXQIUAZQFNTTW3,271016,271016,,,,,,,,,,
,,,,5,17.134,0,14,14,902,1,a living room seating area with a large mirror and a fireplace holding two candles,a living room seating area with a large mirror and an empty fireplace,wolfe2,092_R_candles,4,32,AX9DKJZE40514,2021-01-24_12h58.16.073,MetaAwareness,2020.1.2,Win32,60,3TZDZ3Y0JT9I5XY401REM1DWZQN19O,AX9DKJZE40514,3TVSS0C0E23XCXLFLXQIUAZQFNTTW3,0SVT6,0SVT6,3TVSS0C0E23XCXLFLXQIUAZQFNTTW3,3TVSS0C0E23XCXLFLXQIUAZQFNTTW3,271016,271016,,,,,,,,,,
,,,,4,23.773,0,15,15,359,1,a large marble bathroom with two brown towels set on top of three white towels on a shelf,a large marble bathroom with three brown towels stacked on top of three white towels on a shelf,wolfe2,037_R_towel,3,32,AX9DKJZE40514,2021-01-24_12h58.16.073,MetaAwareness,2020.1.2,Win32,60,3TZDZ3Y0JT9I5XY401REM1DWZQN19O,AX9DKJZE40514,3TVSS0C0E23XCXLFLXQIUAZQFNTTW3,0SVT6,0SVT6,3TVSS0C0E23XCXLFLXQIUAZQFNTTW3,3TVSS0C0E23XCXLFLXQIUAZQFNTTW3,271016,271016,,,,,,,,,,
,,,,4,54.295,0,16,16,595,1,country feeling living room with no items sitting in the fireplace,country feeling living room with an item sitting in the fireplace,wolfe2,062_L_flowers,3,32,AX9DKJZE40514,2021-01-24_12h58.16.073,MetaAwareness,2020.1.2,Win32,60,3TZDZ3Y0JT9I5XY401REM1DWZQN19O,AX9DKJZE40514,3TVSS0C0E23XCXLFLXQIUAZQFNTTW3,0SVT6,0SVT6,3TVSS0C0E23XCXLFLXQIUAZQFNTTW3,3TVSS0C0E23XCXLFLXQIUAZQFNTTW3,271016,271016,,,,,,,,,,
,,,,5,11.422,0,17,17,186,1,an artistic building with one light hanging from the deck,an artistic building with two lights hanging from the deck,wolfe2,019_R_lamp_sized,1,32,AX9DKJZE40514,2021-01-24_12h58.16.073,MetaAwareness,2020.1.2,Win32,60,3TZDZ3Y0JT9I5XY401REM1DWZQN19O,AX9DKJZE40514,3TVSS0C0E23XCXLFLXQIUAZQFNTTW3,0SVT6,0SVT6,3TVSS0C0E23XCXLFLXQIUAZQFNTTW3,3TVSS0C0E23XCXLFLXQIUAZQFNTTW3,271016,271016,,,,,,,,,,
,,,,2,37.448,0,18,18,965,1,a bathroom with an odd looking sink. there is a mirror to the left of the sink connected to the wall.,a bathroom with an odd looking sink. there is a cut out in the wall to the left of the sink.,wolfe2,100_L_mirror,1,32,AX9DKJZE40514,2021-01-24_12h58.16.073,MetaAwareness,2020.1.2,Win32,60,3TZDZ3Y0JT9I5XY401REM1DWZQN19O,AX9DKJZE40514,3TVSS0C0E23XCXLFLXQIUAZQFNTTW3,0SVT6,0SVT6,3TVSS0C0E23XCXLFLXQIUAZQFNTTW3,3TVSS0C0E23XCXLFLXQIUAZQFNTTW3,271016,271016,,,,,,,,,,
,,,,4,11.805,0,19,19,1171,1,in a cafe there is a table with three chairs,in a cafe there is a table with two chairs,wolfe2,122_L_chair,1,32,AX9DKJZE40514,2021-01-24_12h58.16.073,MetaAwareness,2020.1.2,Win32,60,3TZDZ3Y0JT9I5XY401REM1DWZQN19O,AX9DKJZE40514,3TVSS0C0E23XCXLFLXQIUAZQFNTTW3,0SVT6,0SVT6,3TVSS0C0E23XCXLFLXQIUAZQFNTTW3,3TVSS0C0E23XCXLFLXQIUAZQFNTTW3,271016,271016,,,,,,,,,,
,,,,4,9.282,0,20,20,313,1,a bathroom with a single dispenser,a bathroom with two dispenser,wolfe2,032_R_bottle,4,32,AX9DKJZE40514,2021-01-24_12h58.16.073,MetaAwareness,2020.1.2,Win32,60,3TZDZ3Y0JT9I5XY401REM1DWZQN19O,AX9DKJZE40514,3TVSS0C0E23XCXLFLXQIUAZQFNTTW3,0SVT6,0SVT6,3TVSS0C0E23XCXLFLXQIUAZQFNTTW3,3TVSS0C0E23XCXLFLXQIUAZQFNTTW3,271016,271016,,,,,,,,,,
,,,,5,43.118,0,21,21,485,1,"a fireplace and mirror in a white room, containing classic accent pieces with a mantle as the centerpiece","a fireplace and mirror in a white room containing classic accent pieces with a mantle as the centerpiece, which has a small glass bird on top of it",wolfe2,051_L_owl,3,32,AX9DKJZE40514,2021-01-24_12h58.16.073,MetaAwareness,2020.1.2,Win32,60,3TZDZ3Y0JT9I5XY401REM1DWZQN19O,AX9DKJZE40514,3TVSS0C0E23XCXLFLXQIUAZQFNTTW3,0SVT6,0SVT6,3TVSS0C0E23XCXLFLXQIUAZQFNTTW3,3TVSS0C0E23XCXLFLXQIUAZQFNTTW3,271016,271016,,,,,,,,,,
,,,,4,19.884,0,22,22,1169,1,a sleek bedroom with a large window and a decorative item on the bedside table,a sleek bedroom with a large window and a bedside table,wolfe2,121_R_car,5,32,AX9DKJZE40514,2021-01-24_12h58.16.073,MetaAwareness,2020.1.2,Win32,60,3TZDZ3Y0JT9I5XY401REM1DWZQN19O,AX9DKJZE40514,3TVSS0C0E23XCXLFLXQIUAZQFNTTW3,0SVT6,0SVT6,3TVSS0C0E23XCXLFLXQIUAZQFNTTW3,3TVSS0C0E23XCXLFLXQIUAZQFNTTW3,271016,271016,,,,,,,,,,
,,,,5,22.488,0,23,23,867,1,a simple hair salon with decorated images of hair cuts and different individuals,a simple hair salon with minimal decor of images of hair cuts and different individuals,wolfe2,089_L_poster,3,32,AX9DKJZE40514,2021-01-24_12h58.16.073,MetaAwareness,2020.1.2,Win32,60,3TZDZ3Y0JT9I5XY401REM1DWZQN19O,AX9DKJZE40514,3TVSS0C0E23XCXLFLXQIUAZQFNTTW3,0SVT6,0SVT6,3TVSS0C0E23XCXLFLXQIUAZQFNTTW3,3TVSS0C0E23XCXLFLXQIUAZQFNTTW3,271016,271016,,,,,,,,,,
,,,,4,17.635,0,24,24,473,1,a stylish bedroom that doesn't have any framed pictures on the walls next to the large full length mirror.,a stylish bedroom that has one framed picture on the wall next to the large full length mirror.,wolfe2,049_R_painting,4,32,AX9DKJZE40514,2021-01-24_12h58.16.073,MetaAwareness,2020.1.2,Win32,60,3TZDZ3Y0JT9I5XY401REM1DWZQN19O,AX9DKJZE40514,3TVSS0C0E23XCXLFLXQIUAZQFNTTW3,0SVT6,0SVT6,3TVSS0C0E23XCXLFLXQIUAZQFNTTW3,3TVSS0C0E23XCXLFLXQIUAZQFNTTW3,271016,271016,,,,,,,,,,
,,,,4,17.383,0,25,25,398,1,"a bathroom with two mirrors and two ceramic basins, only one of which has a faucet above it","a bathroom with two mirrors and two ceramic basins, each of which has its own faucet",wolfe2,042_L_tap,3,32,AX9DKJZE40514,2021-01-24_12h58.16.073,MetaAwareness,2020.1.2,Win32,60,3TZDZ3Y0JT9I5XY401REM1DWZQN19O,AX9DKJZE40514,3TVSS0C0E23XCXLFLXQIUAZQFNTTW3,0SVT6,0SVT6,3TVSS0C0E23XCXLFLXQIUAZQFNTTW3,3TVSS0C0E23XCXLFLXQIUAZQFNTTW3,271016,271016,,,,,,,,,,
,,,,3,7.091,0,26,26,794,1,a closed drawer,an open end of a drawer,wolfe2,082_L_bowl,4,32,AX9DKJZE40514,2021-01-24_12h58.16.073,MetaAwareness,2020.1.2,Win32,60,3TZDZ3Y0JT9I5XY401REM1DWZQN19O,AX9DKJZE40514,3TVSS0C0E23XCXLFLXQIUAZQFNTTW3,0SVT6,0SVT6,3TVSS0C0E23XCXLFLXQIUAZQFNTTW3,3TVSS0C0E23XCXLFLXQIUAZQFNTTW3,271016,271016,,,,,,,,,,
,,,,4,55.545,0,27,27,231,1," a modern sun porch with brick walls, rattan furniture, and a large television, with views of the garden outside","a moden sun porch with brick walls, rattan furniture, a tv remote on a side table, and a large television, with views of the garden outside",wolfe2,023_R_remote,4,32,AX9DKJZE40514,2021-01-24_12h58.16.073,MetaAwareness,2020.1.2,Win32,60,3TZDZ3Y0JT9I5XY401REM1DWZQN19O,AX9DKJZE40514,3TVSS0C0E23XCXLFLXQIUAZQFNTTW3,0SVT6,0SVT6,3TVSS0C0E23XCXLFLXQIUAZQFNTTW3,3TVSS0C0E23XCXLFLXQIUAZQFNTTW3,271016,271016,,,,,,,,,,
,,,,2,7.525,0,28,28,603,1,the fireplace is in front of the white ottoman in the rustic living room,there is firewood in the fireplace warming the cozy living room with furniture,wolfe2,062_R_flowers,7,32,AX9DKJZE40514,2021-01-24_12h58.16.073,MetaAwareness,2020.1.2,Win32,60,3TZDZ3Y0JT9I5XY401REM1DWZQN19O,AX9DKJZE40514,3TVSS0C0E23XCXLFLXQIUAZQFNTTW3,0SVT6,0SVT6,3TVSS0C0E23XCXLFLXQIUAZQFNTTW3,3TVSS0C0E23XCXLFLXQIUAZQFNTTW3,271016,271016,,,,,,,,,,
,,,,1,11.434,0,29,29,1226,1,there is a mounted light on the wall in a large mansion full of brown furniture.,there are white walls in a lare house with a yellow dog and a swimming pool outside.,wolfe2,127_R_light,1,32,AX9DKJZE40514,2021-01-24_12h58.16.073,MetaAwareness,2020.1.2,Win32,60,3TZDZ3Y0JT9I5XY401REM1DWZQN19O,AX9DKJZE40514,3TVSS0C0E23XCXLFLXQIUAZQFNTTW3,0SVT6,0SVT6,3TVSS0C0E23XCXLFLXQIUAZQFNTTW3,3TVSS0C0E23XCXLFLXQIUAZQFNTTW3,271016,271016,,,,,,,,,,
,,,,,,,,,,,,,,,,32,AX9DKJZE40514,2021-01-24_12h58.16.073,MetaAwareness,2020.1.2,Win32,60,3TZDZ3Y0JT9I5XY401REM1DWZQN19O,AX9DKJZE40514,3TVSS0C0E23XCXLFLXQIUAZQFNTTW3,0SVT6,0SVT6,3TVSS0C0E23XCXLFLXQIUAZQFNTTW3,3TVSS0C0E23XCXLFLXQIUAZQFNTTW3,271016,271016,6,12.292,someone laying underneath a blue beach umbrella on a crowded beach,someone laying underneath a blue beach umbrella on a crowded beach,same,1,30.587,members of a marching band crossing a track that all have feather plumes at the front of their hats,a cluttered and rustic looking cafe with 10 hanging lights,different
