consent_response.keys,consent_response.rt,key_resp_2.keys,key_resp_2.rt,Airplane_resp.keys,Airplane_resp.rt,Boat_resp.keys,Boat_resp.rt,user_resp.keys,user_resp.rt,trials.thisRepN,trials.thisTrialN,trials.thisN,trials.thisIndex,trials.ran,workerId,trial_num,image_a,image_b,age,gender (m/f),worker_ID,date,expName,psychopyVersion,OS,frameRate,hitId,assignmentId,a,tp_a,b,tp_b,c,tp_c,Cow_resp.keys,Cow_resp.rt,Garden_resp.keys,Garden_resp.rt
space,2.9729,space,16.02209,5,3.470565,5,3.433505,2,4.88346,0,0,0,9,1,A110KENBXU7SUJ,10,wolfe_045_L_musicdock-a_w_outline.jpg,wolfe_045_L_musicdock-b_w_outline.jpg,48,m,A110KENBXU7SUJ,2020-11-02_11h51.45.134,MetaAwareness,2020.1.2,Win32,60,3LCXHSGDLU9ZUDOFLVMKAG1GDX3SED,3PJUZCGDJ7J32HGJPO5VPUVRUOE98E,DZJP5,DZJP5,3PJUZCGDJ7J32HGJPO5VPUVRUOE98E,3PJUZCGDJ7J32HGJPO5VPUVRUOE98E,250995,250995,,,,
,,,,,,,,2,4.684215,0,1,1,0,1,A110KENBXU7SUJ,1,wolfe_100_L_mirror-a_w_outline.jpg,wolfe_100_L_mirror-b_w_outline.jpg,48,m,A110KENBXU7SUJ,2020-11-02_11h51.45.134,MetaAwareness,2020.1.2,Win32,60,3LCXHSGDLU9ZUDOFLVMKAG1GDX3SED,3PJUZCGDJ7J32HGJPO5VPUVRUOE98E,DZJP5,DZJP5,3PJUZCGDJ7J32HGJPO5VPUVRUOE98E,3PJUZCGDJ7J32HGJPO5VPUVRUOE98E,250995,250995,,,,
,,,,,,,,1,3.58439,0,2,2,7,1,A110KENBXU7SUJ,8,wolfe_057_L_bin-a_w_outline.jpg,wolfe_057_L_bin-b_w_outline.jpg,48,m,A110KENBXU7SUJ,2020-11-02_11h51.45.134,MetaAwareness,2020.1.2,Win32,60,3LCXHSGDLU9ZUDOFLVMKAG1GDX3SED,3PJUZCGDJ7J32HGJPO5VPUVRUOE98E,DZJP5,DZJP5,3PJUZCGDJ7J32HGJPO5VPUVRUOE98E,3PJUZCGDJ7J32HGJPO5VPUVRUOE98E,250995,250995,,,,
,,,,,,,,3,3.38471,0,3,3,8,1,A110KENBXU7SUJ,9,wolfe_102_L_shoppingbag-a_w_outline.jpg,wolfe_102_L_shoppingbag-b_w_outline.jpg,48,m,A110KENBXU7SUJ,2020-11-02_11h51.45.134,MetaAwareness,2020.1.2,Win32,60,3LCXHSGDLU9ZUDOFLVMKAG1GDX3SED,3PJUZCGDJ7J32HGJPO5VPUVRUOE98E,DZJP5,DZJP5,3PJUZCGDJ7J32HGJPO5VPUVRUOE98E,3PJUZCGDJ7J32HGJPO5VPUVRUOE98E,250995,250995,,,,
,,,,,,,,2,3.900765,0,4,4,16,1,A110KENBXU7SUJ,17,wolfe_058_L_clutch-a_w_outline.jpg,wolfe_058_L_clutch-b_w_outline.jpg,48,m,A110KENBXU7SUJ,2020-11-02_11h51.45.134,MetaAwareness,2020.1.2,Win32,60,3LCXHSGDLU9ZUDOFLVMKAG1GDX3SED,3PJUZCGDJ7J32HGJPO5VPUVRUOE98E,DZJP5,DZJP5,3PJUZCGDJ7J32HGJPO5VPUVRUOE98E,3PJUZCGDJ7J32HGJPO5VPUVRUOE98E,250995,250995,,,,
,,,,,,,,3,5.30077,0,5,5,3,1,A110KENBXU7SUJ,4,wolfe_006_L_vase-a_w_outline.jpg,wolfe_006_L_vase-b_w_outline.jpg,48,m,A110KENBXU7SUJ,2020-11-02_11h51.45.134,MetaAwareness,2020.1.2,Win32,60,3LCXHSGDLU9ZUDOFLVMKAG1GDX3SED,3PJUZCGDJ7J32HGJPO5VPUVRUOE98E,DZJP5,DZJP5,3PJUZCGDJ7J32HGJPO5VPUVRUOE98E,3PJUZCGDJ7J32HGJPO5VPUVRUOE98E,250995,250995,,,,
,,,,,,,,2,4.18561,0,6,6,1,1,A110KENBXU7SUJ,2,wolfe_127_L_light-a_w_outline.jpg,wolfe_127_L_light-b_w_outline.jpg,48,m,A110KENBXU7SUJ,2020-11-02_11h51.45.134,MetaAwareness,2020.1.2,Win32,60,3LCXHSGDLU9ZUDOFLVMKAG1GDX3SED,3PJUZCGDJ7J32HGJPO5VPUVRUOE98E,DZJP5,DZJP5,3PJUZCGDJ7J32HGJPO5VPUVRUOE98E,3PJUZCGDJ7J32HGJPO5VPUVRUOE98E,250995,250995,,,,
,,,,,,,,2,4.166955,0,7,7,29,1,A110KENBXU7SUJ,30,wolfe_109_L_pillow-a_w_outline.jpg,wolfe_109_L_pillow-b_w_outline.jpg,48,m,A110KENBXU7SUJ,2020-11-02_11h51.45.134,MetaAwareness,2020.1.2,Win32,60,3LCXHSGDLU9ZUDOFLVMKAG1GDX3SED,3PJUZCGDJ7J32HGJPO5VPUVRUOE98E,DZJP5,DZJP5,3PJUZCGDJ7J32HGJPO5VPUVRUOE98E,3PJUZCGDJ7J32HGJPO5VPUVRUOE98E,250995,250995,,,,
,,,,,,,,2,3.03434,0,8,8,17,1,A110KENBXU7SUJ,18,wolfe_084_L_light-a_w_outline.jpg,wolfe_084_L_light-b_w_outline.jpg,48,m,A110KENBXU7SUJ,2020-11-02_11h51.45.134,MetaAwareness,2020.1.2,Win32,60,3LCXHSGDLU9ZUDOFLVMKAG1GDX3SED,3PJUZCGDJ7J32HGJPO5VPUVRUOE98E,DZJP5,DZJP5,3PJUZCGDJ7J32HGJPO5VPUVRUOE98E,3PJUZCGDJ7J32HGJPO5VPUVRUOE98E,250995,250995,,,,
,,,,,,,,1,2.650845,0,9,9,12,1,A110KENBXU7SUJ,13,wolfe_077_L_footrest-a_w_outline.jpg,wolfe_077_L_footrest-b_w_outline.jpg,48,m,A110KENBXU7SUJ,2020-11-02_11h51.45.134,MetaAwareness,2020.1.2,Win32,60,3LCXHSGDLU9ZUDOFLVMKAG1GDX3SED,3PJUZCGDJ7J32HGJPO5VPUVRUOE98E,DZJP5,DZJP5,3PJUZCGDJ7J32HGJPO5VPUVRUOE98E,3PJUZCGDJ7J32HGJPO5VPUVRUOE98E,250995,250995,,,,
,,,,,,,,4,5.251435,0,10,10,22,1,A110KENBXU7SUJ,23,wolfe_009_L_carpet-a_w_outline.jpg,wolfe_009_L_carpet-b_w_outline.jpg,48,m,A110KENBXU7SUJ,2020-11-02_11h51.45.134,MetaAwareness,2020.1.2,Win32,60,3LCXHSGDLU9ZUDOFLVMKAG1GDX3SED,3PJUZCGDJ7J32HGJPO5VPUVRUOE98E,DZJP5,DZJP5,3PJUZCGDJ7J32HGJPO5VPUVRUOE98E,3PJUZCGDJ7J32HGJPO5VPUVRUOE98E,250995,250995,,,,
,,,,,,,,2,3.400915,0,11,11,2,1,A110KENBXU7SUJ,3,wolfe_128_L_pot-a_w_outline.jpg,wolfe_128_L_pot-b_w_outline.jpg,48,m,A110KENBXU7SUJ,2020-11-02_11h51.45.134,MetaAwareness,2020.1.2,Win32,60,3LCXHSGDLU9ZUDOFLVMKAG1GDX3SED,3PJUZCGDJ7J32HGJPO5VPUVRUOE98E,DZJP5,DZJP5,3PJUZCGDJ7J32HGJPO5VPUVRUOE98E,3PJUZCGDJ7J32HGJPO5VPUVRUOE98E,250995,250995,,,,
,,,,,,,,4,5.10108,0,12,12,25,1,A110KENBXU7SUJ,26,wolfe_097_L_light-a_w_outline.jpg,wolfe_097_L_light-b_w_outline.jpg,48,m,A110KENBXU7SUJ,2020-11-02_11h51.45.134,MetaAwareness,2020.1.2,Win32,60,3LCXHSGDLU9ZUDOFLVMKAG1GDX3SED,3PJUZCGDJ7J32HGJPO5VPUVRUOE98E,DZJP5,DZJP5,3PJUZCGDJ7J32HGJPO5VPUVRUOE98E,3PJUZCGDJ7J32HGJPO5VPUVRUOE98E,250995,250995,,,,
,,,,,,,,1,4.301515,0,13,13,14,1,A110KENBXU7SUJ,15,wolfe_053_L_handle-a_w_outline.jpg,wolfe_053_L_handle-b_w_outline.jpg,48,m,A110KENBXU7SUJ,2020-11-02_11h51.45.134,MetaAwareness,2020.1.2,Win32,60,3LCXHSGDLU9ZUDOFLVMKAG1GDX3SED,3PJUZCGDJ7J32HGJPO5VPUVRUOE98E,DZJP5,DZJP5,3PJUZCGDJ7J32HGJPO5VPUVRUOE98E,3PJUZCGDJ7J32HGJPO5VPUVRUOE98E,250995,250995,,,,
,,,,,,,,3,7.41697,0,14,14,15,1,A110KENBXU7SUJ,16,wolfe_001_L_mirror-a_w_outline.jpg,wolfe_001_L_mirror-b_w_outline.jpg,48,m,A110KENBXU7SUJ,2020-11-02_11h51.45.134,MetaAwareness,2020.1.2,Win32,60,3LCXHSGDLU9ZUDOFLVMKAG1GDX3SED,3PJUZCGDJ7J32HGJPO5VPUVRUOE98E,DZJP5,DZJP5,3PJUZCGDJ7J32HGJPO5VPUVRUOE98E,3PJUZCGDJ7J32HGJPO5VPUVRUOE98E,250995,250995,,,,
,,,,,,,,1,2.767955,0,15,15,18,1,A110KENBXU7SUJ,19,wolfe_107_L_shirts-a_w_outline.jpg,wolfe_107_L_shirts-b_w_outline.jpg,48,m,A110KENBXU7SUJ,2020-11-02_11h51.45.134,MetaAwareness,2020.1.2,Win32,60,3LCXHSGDLU9ZUDOFLVMKAG1GDX3SED,3PJUZCGDJ7J32HGJPO5VPUVRUOE98E,DZJP5,DZJP5,3PJUZCGDJ7J32HGJPO5VPUVRUOE98E,3PJUZCGDJ7J32HGJPO5VPUVRUOE98E,250995,250995,,,,
,,,,,,,,4,4.05025,0,16,16,11,1,A110KENBXU7SUJ,12,wolfe_054_L_firewood-a_w_outline.jpg,wolfe_054_L_firewood-b_w_outline.jpg,48,m,A110KENBXU7SUJ,2020-11-02_11h51.45.134,MetaAwareness,2020.1.2,Win32,60,3LCXHSGDLU9ZUDOFLVMKAG1GDX3SED,3PJUZCGDJ7J32HGJPO5VPUVRUOE98E,DZJP5,DZJP5,3PJUZCGDJ7J32HGJPO5VPUVRUOE98E,3PJUZCGDJ7J32HGJPO5VPUVRUOE98E,250995,250995,,,,
,,,,,,,,2,3.117805,0,17,17,28,1,A110KENBXU7SUJ,29,wolfe_036_L_bowl-a_w_outline.jpg,wolfe_036_L_bowl-b_w_outline.jpg,48,m,A110KENBXU7SUJ,2020-11-02_11h51.45.134,MetaAwareness,2020.1.2,Win32,60,3LCXHSGDLU9ZUDOFLVMKAG1GDX3SED,3PJUZCGDJ7J32HGJPO5VPUVRUOE98E,DZJP5,DZJP5,3PJUZCGDJ7J32HGJPO5VPUVRUOE98E,3PJUZCGDJ7J32HGJPO5VPUVRUOE98E,250995,250995,,,,
,,,,,,,,5,4.233385,0,18,18,24,1,A110KENBXU7SUJ,25,wolfe_022_L_lamp-a_w_outline.jpg,wolfe_022_L_lamp-b_w_outline.jpg,48,m,A110KENBXU7SUJ,2020-11-02_11h51.45.134,MetaAwareness,2020.1.2,Win32,60,3LCXHSGDLU9ZUDOFLVMKAG1GDX3SED,3PJUZCGDJ7J32HGJPO5VPUVRUOE98E,DZJP5,DZJP5,3PJUZCGDJ7J32HGJPO5VPUVRUOE98E,3PJUZCGDJ7J32HGJPO5VPUVRUOE98E,250995,250995,,,,
,,,,,,,,3,3.884195,0,19,19,6,1,A110KENBXU7SUJ,7,wolfe_028_L_vase-a_w_outline.jpg,wolfe_028_L_vase-b_w_outline.jpg,48,m,A110KENBXU7SUJ,2020-11-02_11h51.45.134,MetaAwareness,2020.1.2,Win32,60,3LCXHSGDLU9ZUDOFLVMKAG1GDX3SED,3PJUZCGDJ7J32HGJPO5VPUVRUOE98E,DZJP5,DZJP5,3PJUZCGDJ7J32HGJPO5VPUVRUOE98E,3PJUZCGDJ7J32HGJPO5VPUVRUOE98E,250995,250995,,,,
,,,,,,,,2,3.55008,0,20,20,4,1,A110KENBXU7SUJ,5,wolfe_125_L_sofa-a_w_outline.jpg,wolfe_125_L_sofa-b_w_outline.jpg,48,m,A110KENBXU7SUJ,2020-11-02_11h51.45.134,MetaAwareness,2020.1.2,Win32,60,3LCXHSGDLU9ZUDOFLVMKAG1GDX3SED,3PJUZCGDJ7J32HGJPO5VPUVRUOE98E,DZJP5,DZJP5,3PJUZCGDJ7J32HGJPO5VPUVRUOE98E,3PJUZCGDJ7J32HGJPO5VPUVRUOE98E,250995,250995,,,,
,,,,,,,,4,4.46847,0,21,21,23,1,A110KENBXU7SUJ,24,wolfe_040_L_painting-a_w_outline.jpg,wolfe_040_L_painting-b_w_outline.jpg,48,m,A110KENBXU7SUJ,2020-11-02_11h51.45.134,MetaAwareness,2020.1.2,Win32,60,3LCXHSGDLU9ZUDOFLVMKAG1GDX3SED,3PJUZCGDJ7J32HGJPO5VPUVRUOE98E,DZJP5,DZJP5,3PJUZCGDJ7J32HGJPO5VPUVRUOE98E,3PJUZCGDJ7J32HGJPO5VPUVRUOE98E,250995,250995,,,,
,,,,,,,,3,4.101145,0,22,22,13,1,A110KENBXU7SUJ,14,wolfe_126_L_candles-a_w_outline.jpg,wolfe_126_L_candles-b_w_outline.jpg,48,m,A110KENBXU7SUJ,2020-11-02_11h51.45.134,MetaAwareness,2020.1.2,Win32,60,3LCXHSGDLU9ZUDOFLVMKAG1GDX3SED,3PJUZCGDJ7J32HGJPO5VPUVRUOE98E,DZJP5,DZJP5,3PJUZCGDJ7J32HGJPO5VPUVRUOE98E,3PJUZCGDJ7J32HGJPO5VPUVRUOE98E,250995,250995,,,,
,,,,,,,,5,3.7179,0,23,23,27,1,A110KENBXU7SUJ,28,wolfe_014_L_lamp-a_w_outline.jpg,wolfe_014_L_lamp-b_w_outline.jpg,48,m,A110KENBXU7SUJ,2020-11-02_11h51.45.134,MetaAwareness,2020.1.2,Win32,60,3LCXHSGDLU9ZUDOFLVMKAG1GDX3SED,3PJUZCGDJ7J32HGJPO5VPUVRUOE98E,DZJP5,DZJP5,3PJUZCGDJ7J32HGJPO5VPUVRUOE98E,3PJUZCGDJ7J32HGJPO5VPUVRUOE98E,250995,250995,,,,
,,,,,,,,1,3.135295,0,24,24,21,1,A110KENBXU7SUJ,22,wolfe_073_L_coffeemug-a_w_outline.jpg,wolfe_073_L_coffeemug-b_w_outline.jpg,48,m,A110KENBXU7SUJ,2020-11-02_11h51.45.134,MetaAwareness,2020.1.2,Win32,60,3LCXHSGDLU9ZUDOFLVMKAG1GDX3SED,3PJUZCGDJ7J32HGJPO5VPUVRUOE98E,DZJP5,DZJP5,3PJUZCGDJ7J32HGJPO5VPUVRUOE98E,3PJUZCGDJ7J32HGJPO5VPUVRUOE98E,250995,250995,,,,
,,,,,,,,3,4.34308,0,25,25,10,1,A110KENBXU7SUJ,11,wolfe_023_L_remote-a_w_outline.jpg,wolfe_023_L_remote-b_w_outline.jpg,48,m,A110KENBXU7SUJ,2020-11-02_11h51.45.134,MetaAwareness,2020.1.2,Win32,60,3LCXHSGDLU9ZUDOFLVMKAG1GDX3SED,3PJUZCGDJ7J32HGJPO5VPUVRUOE98E,DZJP5,DZJP5,3PJUZCGDJ7J32HGJPO5VPUVRUOE98E,3PJUZCGDJ7J32HGJPO5VPUVRUOE98E,250995,250995,,,,
,,,,,,,,3,4.960515,0,26,26,5,1,A110KENBXU7SUJ,6,wolfe_060_L_pillow-a_w_outline.jpg,wolfe_060_L_pillow-b_w_outline.jpg,48,m,A110KENBXU7SUJ,2020-11-02_11h51.45.134,MetaAwareness,2020.1.2,Win32,60,3LCXHSGDLU9ZUDOFLVMKAG1GDX3SED,3PJUZCGDJ7J32HGJPO5VPUVRUOE98E,DZJP5,DZJP5,3PJUZCGDJ7J32HGJPO5VPUVRUOE98E,3PJUZCGDJ7J32HGJPO5VPUVRUOE98E,250995,250995,,,,
,,,,,,,,3,8.78317,0,27,27,19,1,A110KENBXU7SUJ,20,wolfe_105_L_hat-a_w_outline.jpg,wolfe_105_L_hat-b_w_outline.jpg,48,m,A110KENBXU7SUJ,2020-11-02_11h51.45.134,MetaAwareness,2020.1.2,Win32,60,3LCXHSGDLU9ZUDOFLVMKAG1GDX3SED,3PJUZCGDJ7J32HGJPO5VPUVRUOE98E,DZJP5,DZJP5,3PJUZCGDJ7J32HGJPO5VPUVRUOE98E,3PJUZCGDJ7J32HGJPO5VPUVRUOE98E,250995,250995,,,,
,,,,,,,,1,3.051895,0,28,28,20,1,A110KENBXU7SUJ,21,wolfe_065_L_cd-a_w_outline.jpg,wolfe_065_L_cd-b_w_outline.jpg,48,m,A110KENBXU7SUJ,2020-11-02_11h51.45.134,MetaAwareness,2020.1.2,Win32,60,3LCXHSGDLU9ZUDOFLVMKAG1GDX3SED,3PJUZCGDJ7J32HGJPO5VPUVRUOE98E,DZJP5,DZJP5,3PJUZCGDJ7J32HGJPO5VPUVRUOE98E,3PJUZCGDJ7J32HGJPO5VPUVRUOE98E,250995,250995,,,,
,,,,,,,,2,3.583355,0,29,29,26,1,A110KENBXU7SUJ,27,wolfe_115_L_pot-a_w_outline.jpg,wolfe_115_L_pot-b_w_outline.jpg,48,m,A110KENBXU7SUJ,2020-11-02_11h51.45.134,MetaAwareness,2020.1.2,Win32,60,3LCXHSGDLU9ZUDOFLVMKAG1GDX3SED,3PJUZCGDJ7J32HGJPO5VPUVRUOE98E,DZJP5,DZJP5,3PJUZCGDJ7J32HGJPO5VPUVRUOE98E,3PJUZCGDJ7J32HGJPO5VPUVRUOE98E,250995,250995,,,,
,,,,,,,,,,,,,,,A110KENBXU7SUJ,,,,48,m,A110KENBXU7SUJ,2020-11-02_11h51.45.134,MetaAwareness,2020.1.2,Win32,60,3LCXHSGDLU9ZUDOFLVMKAG1GDX3SED,3PJUZCGDJ7J32HGJPO5VPUVRUOE98E,DZJP5,DZJP5,3PJUZCGDJ7J32HGJPO5VPUVRUOE98E,3PJUZCGDJ7J32HGJPO5VPUVRUOE98E,250995,250995,5,1.68522,1,7.506885
