consent_response.keys,consent_response.rt,key_resp_2.keys,key_resp_2.rt,Airplane_resp.keys,Airplane_resp.rt,Boat_resp.keys,Boat_resp.rt,user_resp.keys,user_resp.rt,trials.thisRepN,trials.thisTrialN,trials.thisN,trials.thisIndex,trials.ran,workerId,trial_num,image_a,image_b,age,gender (m/f),worker_ID,date,expName,psychopyVersion,OS,frameRate,hitId,assignmentId,a,tp_a,b,tp_b,c,tp_c,Cow_resp.keys,Cow_resp.rt,Garden_resp.keys,Garden_resp.rt
space,7.438625,space,35.173045,5,7.156695,5,1.77589,3,6.350245,0,0,0,24,1,A3B8DP6KHMP3OS,25,wolfe_001_R_mirror-a_w_outline.jpg,wolfe_001_R_mirror-b_w_outline.jpg,50,f,A3B8DP6KHMP3OS,2020-11-03_08h58.31.822,MetaAwareness,2020.1.2,Win32,60,3XBXDSS889MLW0K6WRFBMJ8S197LX2,384PI804XT43P77F3QS7DAUZ3KVS01,4I487,4I487,384PI804XT43P77F3QS7DAUZ3KVS01,384PI804XT43P77F3QS7DAUZ3KVS01,254547,254547,,,,
,,,,,,,,2,3.87148,0,1,1,11,1,A3B8DP6KHMP3OS,12,wolfe_068_R_faucet-a_w_outline.jpg,wolfe_068_R_faucet-b_w_outline.jpg,50,f,A3B8DP6KHMP3OS,2020-11-03_08h58.31.822,MetaAwareness,2020.1.2,Win32,60,3XBXDSS889MLW0K6WRFBMJ8S197LX2,384PI804XT43P77F3QS7DAUZ3KVS01,4I487,4I487,384PI804XT43P77F3QS7DAUZ3KVS01,384PI804XT43P77F3QS7DAUZ3KVS01,254547,254547,,,,
,,,,,,,,4,3.841135,0,2,2,23,1,A3B8DP6KHMP3OS,24,wolfe_074_R_book-a_w_outline.jpg,wolfe_074_R_book-b_w_outline.jpg,50,f,A3B8DP6KHMP3OS,2020-11-03_08h58.31.822,MetaAwareness,2020.1.2,Win32,60,3XBXDSS889MLW0K6WRFBMJ8S197LX2,384PI804XT43P77F3QS7DAUZ3KVS01,4I487,4I487,384PI804XT43P77F3QS7DAUZ3KVS01,384PI804XT43P77F3QS7DAUZ3KVS01,254547,254547,,,,
,,,,,,,,1,2.868465,0,3,3,15,1,A3B8DP6KHMP3OS,16,wolfe_053_R_handle-a_w_outline.jpg,wolfe_053_R_handle-b_w_outline.jpg,50,f,A3B8DP6KHMP3OS,2020-11-03_08h58.31.822,MetaAwareness,2020.1.2,Win32,60,3XBXDSS889MLW0K6WRFBMJ8S197LX2,384PI804XT43P77F3QS7DAUZ3KVS01,4I487,4I487,384PI804XT43P77F3QS7DAUZ3KVS01,384PI804XT43P77F3QS7DAUZ3KVS01,254547,254547,,,,
,,,,,,,,4,3.187735,0,4,4,2,1,A3B8DP6KHMP3OS,3,wolfe_110_R_plant-a_w_outline.jpg,wolfe_110_R_plant-b_w_outline.jpg,50,f,A3B8DP6KHMP3OS,2020-11-03_08h58.31.822,MetaAwareness,2020.1.2,Win32,60,3XBXDSS889MLW0K6WRFBMJ8S197LX2,384PI804XT43P77F3QS7DAUZ3KVS01,4I487,4I487,384PI804XT43P77F3QS7DAUZ3KVS01,384PI804XT43P77F3QS7DAUZ3KVS01,254547,254547,,,,
,,,,,,,,2,5.61829,0,5,5,19,1,A3B8DP6KHMP3OS,20,wolfe_112_R_basket-a_w_outline.jpg,wolfe_112_R_basket-b_w_outline.jpg,50,f,A3B8DP6KHMP3OS,2020-11-03_08h58.31.822,MetaAwareness,2020.1.2,Win32,60,3XBXDSS889MLW0K6WRFBMJ8S197LX2,384PI804XT43P77F3QS7DAUZ3KVS01,4I487,4I487,384PI804XT43P77F3QS7DAUZ3KVS01,384PI804XT43P77F3QS7DAUZ3KVS01,254547,254547,,,,
,,,,,,,,3,4.90214,0,6,6,12,1,A3B8DP6KHMP3OS,13,wolfe_089_R_poster-a_w_outline.jpg,wolfe_089_R_poster-b_w_outline.jpg,50,f,A3B8DP6KHMP3OS,2020-11-03_08h58.31.822,MetaAwareness,2020.1.2,Win32,60,3XBXDSS889MLW0K6WRFBMJ8S197LX2,384PI804XT43P77F3QS7DAUZ3KVS01,4I487,4I487,384PI804XT43P77F3QS7DAUZ3KVS01,384PI804XT43P77F3QS7DAUZ3KVS01,254547,254547,,,,
,,,,,,,,4,7.818745,0,7,7,8,1,A3B8DP6KHMP3OS,9,wolfe_024_R_towels-a_w_outline.jpg,wolfe_024_R_towels-b_w_outline.jpg,50,f,A3B8DP6KHMP3OS,2020-11-03_08h58.31.822,MetaAwareness,2020.1.2,Win32,60,3XBXDSS889MLW0K6WRFBMJ8S197LX2,384PI804XT43P77F3QS7DAUZ3KVS01,4I487,4I487,384PI804XT43P77F3QS7DAUZ3KVS01,384PI804XT43P77F3QS7DAUZ3KVS01,254547,254547,,,,
,,,,,,,,1,4.170895,0,8,8,5,1,A3B8DP6KHMP3OS,6,wolfe_015_R_ceilinglight-a_w_outline.jpg,wolfe_015_R_ceilinglight-b_w_outline.jpg,50,f,A3B8DP6KHMP3OS,2020-11-03_08h58.31.822,MetaAwareness,2020.1.2,Win32,60,3XBXDSS889MLW0K6WRFBMJ8S197LX2,384PI804XT43P77F3QS7DAUZ3KVS01,4I487,4I487,384PI804XT43P77F3QS7DAUZ3KVS01,384PI804XT43P77F3QS7DAUZ3KVS01,254547,254547,,,,
,,,,,,,,4,3.136155,0,9,9,17,1,A3B8DP6KHMP3OS,18,wolfe_097_R_light-a_w_outline.jpg,wolfe_097_R_light-b_w_outline.jpg,50,f,A3B8DP6KHMP3OS,2020-11-03_08h58.31.822,MetaAwareness,2020.1.2,Win32,60,3XBXDSS889MLW0K6WRFBMJ8S197LX2,384PI804XT43P77F3QS7DAUZ3KVS01,4I487,4I487,384PI804XT43P77F3QS7DAUZ3KVS01,384PI804XT43P77F3QS7DAUZ3KVS01,254547,254547,,,,
,,,,,,,,3,3.618875,0,10,10,9,1,A3B8DP6KHMP3OS,10,wolfe_028_R_vase-a_w_outline.jpg,wolfe_028_R_vase-b_w_outline.jpg,50,f,A3B8DP6KHMP3OS,2020-11-03_08h58.31.822,MetaAwareness,2020.1.2,Win32,60,3XBXDSS889MLW0K6WRFBMJ8S197LX2,384PI804XT43P77F3QS7DAUZ3KVS01,4I487,4I487,384PI804XT43P77F3QS7DAUZ3KVS01,384PI804XT43P77F3QS7DAUZ3KVS01,254547,254547,,,,
,,,,,,,,2,5.552765,0,11,11,28,1,A3B8DP6KHMP3OS,29,wolfe_030_R_drawer-a_w_outline.jpg,wolfe_030_R_drawer-b_w_outline.jpg,50,f,A3B8DP6KHMP3OS,2020-11-03_08h58.31.822,MetaAwareness,2020.1.2,Win32,60,3XBXDSS889MLW0K6WRFBMJ8S197LX2,384PI804XT43P77F3QS7DAUZ3KVS01,4I487,4I487,384PI804XT43P77F3QS7DAUZ3KVS01,384PI804XT43P77F3QS7DAUZ3KVS01,254547,254547,,,,
,,,,,,,,3,4.05183,0,12,12,7,1,A3B8DP6KHMP3OS,8,wolfe_104_R_bottle-a_w_outline.jpg,wolfe_104_R_bottle-b_w_outline.jpg,50,f,A3B8DP6KHMP3OS,2020-11-03_08h58.31.822,MetaAwareness,2020.1.2,Win32,60,3XBXDSS889MLW0K6WRFBMJ8S197LX2,384PI804XT43P77F3QS7DAUZ3KVS01,4I487,4I487,384PI804XT43P77F3QS7DAUZ3KVS01,384PI804XT43P77F3QS7DAUZ3KVS01,254547,254547,,,,
,,,,,,,,3,4.469705,0,13,13,4,1,A3B8DP6KHMP3OS,5,wolfe_111_R_pot-a_w_outline.jpg,wolfe_111_R_pot-b_w_outline.jpg,50,f,A3B8DP6KHMP3OS,2020-11-03_08h58.31.822,MetaAwareness,2020.1.2,Win32,60,3XBXDSS889MLW0K6WRFBMJ8S197LX2,384PI804XT43P77F3QS7DAUZ3KVS01,4I487,4I487,384PI804XT43P77F3QS7DAUZ3KVS01,384PI804XT43P77F3QS7DAUZ3KVS01,254547,254547,,,,
,,,,,,,,2,2.64445,0,14,14,0,1,A3B8DP6KHMP3OS,1,wolfe_114_R_bird-a_w_outline.jpg,wolfe_114_R_bird-b_w_outline.jpg,50,f,A3B8DP6KHMP3OS,2020-11-03_08h58.31.822,MetaAwareness,2020.1.2,Win32,60,3XBXDSS889MLW0K6WRFBMJ8S197LX2,384PI804XT43P77F3QS7DAUZ3KVS01,4I487,4I487,384PI804XT43P77F3QS7DAUZ3KVS01,384PI804XT43P77F3QS7DAUZ3KVS01,254547,254547,,,,
,,,,,,,,2,4.950415,0,15,15,3,1,A3B8DP6KHMP3OS,4,wolfe_106_R_toweldispenser-a_w_outline.jpg,wolfe_106_R_toweldispenser-b_w_outline.jpg,50,f,A3B8DP6KHMP3OS,2020-11-03_08h58.31.822,MetaAwareness,2020.1.2,Win32,60,3XBXDSS889MLW0K6WRFBMJ8S197LX2,384PI804XT43P77F3QS7DAUZ3KVS01,4I487,4I487,384PI804XT43P77F3QS7DAUZ3KVS01,384PI804XT43P77F3QS7DAUZ3KVS01,254547,254547,,,,
,,,,,,,,2,3.619635,0,16,16,10,1,A3B8DP6KHMP3OS,11,wolfe_113_R_plant-a_w_outline.jpg,wolfe_113_R_plant-b_w_outline.jpg,50,f,A3B8DP6KHMP3OS,2020-11-03_08h58.31.822,MetaAwareness,2020.1.2,Win32,60,3XBXDSS889MLW0K6WRFBMJ8S197LX2,384PI804XT43P77F3QS7DAUZ3KVS01,4I487,4I487,384PI804XT43P77F3QS7DAUZ3KVS01,384PI804XT43P77F3QS7DAUZ3KVS01,254547,254547,,,,
,,,,,,,,4,3.26959,0,17,17,26,1,A3B8DP6KHMP3OS,27,wolfe_071_R_art-a_w_outline.jpg,wolfe_071_R_art-b_w_outline.jpg,50,f,A3B8DP6KHMP3OS,2020-11-03_08h58.31.822,MetaAwareness,2020.1.2,Win32,60,3XBXDSS889MLW0K6WRFBMJ8S197LX2,384PI804XT43P77F3QS7DAUZ3KVS01,4I487,4I487,384PI804XT43P77F3QS7DAUZ3KVS01,384PI804XT43P77F3QS7DAUZ3KVS01,254547,254547,,,,
,,,,,,,,5,4.31885,0,18,18,22,1,A3B8DP6KHMP3OS,23,wolfe_022_R_lamp-a_w_outline.jpg,wolfe_022_R_lamp-b_w_outline.jpg,50,f,A3B8DP6KHMP3OS,2020-11-03_08h58.31.822,MetaAwareness,2020.1.2,Win32,60,3XBXDSS889MLW0K6WRFBMJ8S197LX2,384PI804XT43P77F3QS7DAUZ3KVS01,4I487,4I487,384PI804XT43P77F3QS7DAUZ3KVS01,384PI804XT43P77F3QS7DAUZ3KVS01,254547,254547,,,,
,,,,,,,,1,3.324575,0,19,19,18,1,A3B8DP6KHMP3OS,19,wolfe_055_R_carpet-a_w_outline.jpg,wolfe_055_R_carpet-b_w_outline.jpg,50,f,A3B8DP6KHMP3OS,2020-11-03_08h58.31.822,MetaAwareness,2020.1.2,Win32,60,3XBXDSS889MLW0K6WRFBMJ8S197LX2,384PI804XT43P77F3QS7DAUZ3KVS01,4I487,4I487,384PI804XT43P77F3QS7DAUZ3KVS01,384PI804XT43P77F3QS7DAUZ3KVS01,254547,254547,,,,
,,,,,,,,3,3.95173,0,20,20,16,1,A3B8DP6KHMP3OS,17,wolfe_099_R_sconce-a_w_outline.jpg,wolfe_099_R_sconce-b_w_outline.jpg,50,f,A3B8DP6KHMP3OS,2020-11-03_08h58.31.822,MetaAwareness,2020.1.2,Win32,60,3XBXDSS889MLW0K6WRFBMJ8S197LX2,384PI804XT43P77F3QS7DAUZ3KVS01,4I487,4I487,384PI804XT43P77F3QS7DAUZ3KVS01,384PI804XT43P77F3QS7DAUZ3KVS01,254547,254547,,,,
,,,,,,,,2,2.720805,0,21,21,13,1,A3B8DP6KHMP3OS,14,wolfe_127_R_light-a_w_outline.jpg,wolfe_127_R_light-b_w_outline.jpg,50,f,A3B8DP6KHMP3OS,2020-11-03_08h58.31.822,MetaAwareness,2020.1.2,Win32,60,3XBXDSS889MLW0K6WRFBMJ8S197LX2,384PI804XT43P77F3QS7DAUZ3KVS01,4I487,4I487,384PI804XT43P77F3QS7DAUZ3KVS01,384PI804XT43P77F3QS7DAUZ3KVS01,254547,254547,,,,
,,,,,,,,4,3.84275,0,22,22,20,1,A3B8DP6KHMP3OS,21,wolfe_014_R_lamp-a_w_outline.jpg,wolfe_014_R_lamp-b_w_outline.jpg,50,f,A3B8DP6KHMP3OS,2020-11-03_08h58.31.822,MetaAwareness,2020.1.2,Win32,60,3XBXDSS889MLW0K6WRFBMJ8S197LX2,384PI804XT43P77F3QS7DAUZ3KVS01,4I487,4I487,384PI804XT43P77F3QS7DAUZ3KVS01,384PI804XT43P77F3QS7DAUZ3KVS01,254547,254547,,,,
,,,,,,,,2,3.676725,0,23,23,27,1,A3B8DP6KHMP3OS,28,wolfe_004_R_electricalgrid-a_w_outline.jpg,wolfe_004_R_electricalgrid-b_w_outline.jpg,50,f,A3B8DP6KHMP3OS,2020-11-03_08h58.31.822,MetaAwareness,2020.1.2,Win32,60,3XBXDSS889MLW0K6WRFBMJ8S197LX2,384PI804XT43P77F3QS7DAUZ3KVS01,4I487,4I487,384PI804XT43P77F3QS7DAUZ3KVS01,384PI804XT43P77F3QS7DAUZ3KVS01,254547,254547,,,,
,,,,,,,,2,5.500495,0,24,24,1,1,A3B8DP6KHMP3OS,2,wolfe_115_R_pot-a_w_outline.jpg,wolfe_115_R_pot-b_w_outline.jpg,50,f,A3B8DP6KHMP3OS,2020-11-03_08h58.31.822,MetaAwareness,2020.1.2,Win32,60,3XBXDSS889MLW0K6WRFBMJ8S197LX2,384PI804XT43P77F3QS7DAUZ3KVS01,4I487,4I487,384PI804XT43P77F3QS7DAUZ3KVS01,384PI804XT43P77F3QS7DAUZ3KVS01,254547,254547,,,,
,,,,,,,,3,0.1163,0,25,25,29,1,A3B8DP6KHMP3OS,30,wolfe_098_R_slippers-a_w_outline.jpg,wolfe_098_R_slippers-b_w_outline.jpg,50,f,A3B8DP6KHMP3OS,2020-11-03_08h58.31.822,MetaAwareness,2020.1.2,Win32,60,3XBXDSS889MLW0K6WRFBMJ8S197LX2,384PI804XT43P77F3QS7DAUZ3KVS01,4I487,4I487,384PI804XT43P77F3QS7DAUZ3KVS01,384PI804XT43P77F3QS7DAUZ3KVS01,254547,254547,,,,
,,,,,,,,5,2.818975,0,26,26,21,1,A3B8DP6KHMP3OS,22,wolfe_056_R_comforter-a_w_outline.jpg,wolfe_056_R_comforter-b_w_outline.jpg,50,f,A3B8DP6KHMP3OS,2020-11-03_08h58.31.822,MetaAwareness,2020.1.2,Win32,60,3XBXDSS889MLW0K6WRFBMJ8S197LX2,384PI804XT43P77F3QS7DAUZ3KVS01,4I487,4I487,384PI804XT43P77F3QS7DAUZ3KVS01,384PI804XT43P77F3QS7DAUZ3KVS01,254547,254547,,,,
,,,,,,,,1,4.41357,0,27,27,25,1,A3B8DP6KHMP3OS,26,wolfe_047_R_handle-a_w_outline.jpg,wolfe_047_R_handle-b_w_outline.jpg,50,f,A3B8DP6KHMP3OS,2020-11-03_08h58.31.822,MetaAwareness,2020.1.2,Win32,60,3XBXDSS889MLW0K6WRFBMJ8S197LX2,384PI804XT43P77F3QS7DAUZ3KVS01,4I487,4I487,384PI804XT43P77F3QS7DAUZ3KVS01,384PI804XT43P77F3QS7DAUZ3KVS01,254547,254547,,,,
,,,,,,,,3,4.30305,0,28,28,6,1,A3B8DP6KHMP3OS,7,wolfe_123_R_pot-a_w_outline.jpg,wolfe_123_R_pot-b_w_outline.jpg,50,f,A3B8DP6KHMP3OS,2020-11-03_08h58.31.822,MetaAwareness,2020.1.2,Win32,60,3XBXDSS889MLW0K6WRFBMJ8S197LX2,384PI804XT43P77F3QS7DAUZ3KVS01,4I487,4I487,384PI804XT43P77F3QS7DAUZ3KVS01,384PI804XT43P77F3QS7DAUZ3KVS01,254547,254547,,,,
,,,,,,,,2,3.218545,0,29,29,14,1,A3B8DP6KHMP3OS,15,wolfe_065_R_cd-a_w_outline.jpg,wolfe_065_R_cd-b_w_outline.jpg,50,f,A3B8DP6KHMP3OS,2020-11-03_08h58.31.822,MetaAwareness,2020.1.2,Win32,60,3XBXDSS889MLW0K6WRFBMJ8S197LX2,384PI804XT43P77F3QS7DAUZ3KVS01,4I487,4I487,384PI804XT43P77F3QS7DAUZ3KVS01,384PI804XT43P77F3QS7DAUZ3KVS01,254547,254547,,,,
,,,,,,,,,,,,,,,A3B8DP6KHMP3OS,,,,50,f,A3B8DP6KHMP3OS,2020-11-03_08h58.31.822,MetaAwareness,2020.1.2,Win32,60,3XBXDSS889MLW0K6WRFBMJ8S197LX2,384PI804XT43P77F3QS7DAUZ3KVS01,4I487,4I487,384PI804XT43P77F3QS7DAUZ3KVS01,384PI804XT43P77F3QS7DAUZ3KVS01,254547,254547,5,1.797995,1,3.37157
