consent_response.keys,consent_response.rt,key_resp_2.keys,key_resp_2.rt,Airplane_resp.keys,Airplane_resp.rt,Boat_resp.keys,Boat_resp.rt,user_resp.keys,user_resp.rt,trials.thisRepN,trials.thisTrialN,trials.thisN,trials.thisIndex,trials.ran,workerId,trial_num,image_a,image_b,age,gender (m/f),worker_ID,date,expName,psychopyVersion,OS,frameRate,hitId,assignmentId,a,tp_a,b,tp_b,c,tp_c,Cow_resp.keys,Cow_resp.rt,Garden_resp.keys,Garden_resp.rt
space,16.479805,space,28.73186,5,2.78072,5,1.272445,3,4.309695,0,0,0,12,1,A3PKTPXXORWR97,13,wolfe_123_R_pot-a_w_outline.jpg,wolfe_123_R_pot-b_w_outline.jpg,27,f,A3PKTPXXORWR97,2020-10-30_12h28.41.398,MetaAwareness,2020.1.2,Win32,60,3XBXDSS889MLW0K6WRFBMJ8S197LX2,3RSDURM96BPZCJYIA3JBGLK4DOMYER,9USR7,9USR7,3RSDURM96BPZCJYIA3JBGLK4DOMYER,3RSDURM96BPZCJYIA3JBGLK4DOMYER,254547,254547,,,,
,,,,,,,,4,4.263565,0,1,1,6,1,A3PKTPXXORWR97,7,wolfe_066_R_vase-a_w_outline.jpg,wolfe_066_R_vase-b_w_outline.jpg,27,f,A3PKTPXXORWR97,2020-10-30_12h28.41.398,MetaAwareness,2020.1.2,Win32,60,3XBXDSS889MLW0K6WRFBMJ8S197LX2,3RSDURM96BPZCJYIA3JBGLK4DOMYER,9USR7,9USR7,3RSDURM96BPZCJYIA3JBGLK4DOMYER,3RSDURM96BPZCJYIA3JBGLK4DOMYER,254547,254547,,,,
,,,,,,,,2,4.0658,0,2,2,18,1,A3PKTPXXORWR97,19,wolfe_106_R_toweldispenser-a_w_outline.jpg,wolfe_106_R_toweldispenser-b_w_outline.jpg,27,f,A3PKTPXXORWR97,2020-10-30_12h28.41.398,MetaAwareness,2020.1.2,Win32,60,3XBXDSS889MLW0K6WRFBMJ8S197LX2,3RSDURM96BPZCJYIA3JBGLK4DOMYER,9USR7,9USR7,3RSDURM96BPZCJYIA3JBGLK4DOMYER,3RSDURM96BPZCJYIA3JBGLK4DOMYER,254547,254547,,,,
,,,,,,,,3,7.301565,0,3,3,17,1,A3PKTPXXORWR97,18,wolfe_092_R_candles-a_w_outline.jpg,wolfe_092_R_candles-b_w_outline.jpg,27,f,A3PKTPXXORWR97,2020-10-30_12h28.41.398,MetaAwareness,2020.1.2,Win32,60,3XBXDSS889MLW0K6WRFBMJ8S197LX2,3RSDURM96BPZCJYIA3JBGLK4DOMYER,9USR7,9USR7,3RSDURM96BPZCJYIA3JBGLK4DOMYER,3RSDURM96BPZCJYIA3JBGLK4DOMYER,254547,254547,,,,
,,,,,,,,3,6.13716,0,4,4,19,1,A3PKTPXXORWR97,20,wolfe_122_R_chair-a_w_outline.jpg,wolfe_122_R_chair-b_w_outline.jpg,27,f,A3PKTPXXORWR97,2020-10-30_12h28.41.398,MetaAwareness,2020.1.2,Win32,60,3XBXDSS889MLW0K6WRFBMJ8S197LX2,3RSDURM96BPZCJYIA3JBGLK4DOMYER,9USR7,9USR7,3RSDURM96BPZCJYIA3JBGLK4DOMYER,3RSDURM96BPZCJYIA3JBGLK4DOMYER,254547,254547,,,,
,,,,,,,,5,2.860085,0,5,5,14,1,A3PKTPXXORWR97,15,wolfe_056_R_comforter-a_w_outline.jpg,wolfe_056_R_comforter-b_w_outline.jpg,27,f,A3PKTPXXORWR97,2020-10-30_12h28.41.398,MetaAwareness,2020.1.2,Win32,60,3XBXDSS889MLW0K6WRFBMJ8S197LX2,3RSDURM96BPZCJYIA3JBGLK4DOMYER,9USR7,9USR7,3RSDURM96BPZCJYIA3JBGLK4DOMYER,3RSDURM96BPZCJYIA3JBGLK4DOMYER,254547,254547,,,,
,,,,,,,,2,3.23115,0,6,6,4,1,A3PKTPXXORWR97,5,wolfe_111_R_pot-a_w_outline.jpg,wolfe_111_R_pot-b_w_outline.jpg,27,f,A3PKTPXXORWR97,2020-10-30_12h28.41.398,MetaAwareness,2020.1.2,Win32,60,3XBXDSS889MLW0K6WRFBMJ8S197LX2,3RSDURM96BPZCJYIA3JBGLK4DOMYER,9USR7,9USR7,3RSDURM96BPZCJYIA3JBGLK4DOMYER,3RSDURM96BPZCJYIA3JBGLK4DOMYER,254547,254547,,,,
,,,,,,,,2,6.702905,0,7,7,1,1,A3PKTPXXORWR97,2,wolfe_107_R_shirts-a_w_outline.jpg,wolfe_107_R_shirts-b_w_outline.jpg,27,f,A3PKTPXXORWR97,2020-10-30_12h28.41.398,MetaAwareness,2020.1.2,Win32,60,3XBXDSS889MLW0K6WRFBMJ8S197LX2,3RSDURM96BPZCJYIA3JBGLK4DOMYER,9USR7,9USR7,3RSDURM96BPZCJYIA3JBGLK4DOMYER,3RSDURM96BPZCJYIA3JBGLK4DOMYER,254547,254547,,,,
,,,,,,,,3,3.149315,0,8,8,2,1,A3PKTPXXORWR97,3,wolfe_049_R_painting-a_w_outline.jpg,wolfe_049_R_painting-b_w_outline.jpg,27,f,A3PKTPXXORWR97,2020-10-30_12h28.41.398,MetaAwareness,2020.1.2,Win32,60,3XBXDSS889MLW0K6WRFBMJ8S197LX2,3RSDURM96BPZCJYIA3JBGLK4DOMYER,9USR7,9USR7,3RSDURM96BPZCJYIA3JBGLK4DOMYER,3RSDURM96BPZCJYIA3JBGLK4DOMYER,254547,254547,,,,
,,,,,,,,1,10.017575,0,9,9,3,1,A3PKTPXXORWR97,4,wolfe_037_R_towel-a_w_outline.jpg,wolfe_037_R_towel-b_w_outline.jpg,27,f,A3PKTPXXORWR97,2020-10-30_12h28.41.398,MetaAwareness,2020.1.2,Win32,60,3XBXDSS889MLW0K6WRFBMJ8S197LX2,3RSDURM96BPZCJYIA3JBGLK4DOMYER,9USR7,9USR7,3RSDURM96BPZCJYIA3JBGLK4DOMYER,3RSDURM96BPZCJYIA3JBGLK4DOMYER,254547,254547,,,,
,,,,,,,,4,4.901705,0,10,10,25,1,A3PKTPXXORWR97,26,wolfe_119_R_painting-a_w_outline.jpg,wolfe_119_R_painting-b_w_outline.jpg,27,f,A3PKTPXXORWR97,2020-10-30_12h28.41.398,MetaAwareness,2020.1.2,Win32,60,3XBXDSS889MLW0K6WRFBMJ8S197LX2,3RSDURM96BPZCJYIA3JBGLK4DOMYER,9USR7,9USR7,3RSDURM96BPZCJYIA3JBGLK4DOMYER,3RSDURM96BPZCJYIA3JBGLK4DOMYER,254547,254547,,,,
,,,,,,,,4,3.48097,0,11,11,16,1,A3PKTPXXORWR97,17,wolfe_120_R_art-a_w_outline.jpg,wolfe_120_R_art-b_w_outline.jpg,27,f,A3PKTPXXORWR97,2020-10-30_12h28.41.398,MetaAwareness,2020.1.2,Win32,60,3XBXDSS889MLW0K6WRFBMJ8S197LX2,3RSDURM96BPZCJYIA3JBGLK4DOMYER,9USR7,9USR7,3RSDURM96BPZCJYIA3JBGLK4DOMYER,3RSDURM96BPZCJYIA3JBGLK4DOMYER,254547,254547,,,,
,,,,,,,,5,2.440625,0,12,12,0,1,A3PKTPXXORWR97,1,wolfe_084_R_light-a_w_outline.jpg,wolfe_084_R_light-b_w_outline.jpg,27,f,A3PKTPXXORWR97,2020-10-30_12h28.41.398,MetaAwareness,2020.1.2,Win32,60,3XBXDSS889MLW0K6WRFBMJ8S197LX2,3RSDURM96BPZCJYIA3JBGLK4DOMYER,9USR7,9USR7,3RSDURM96BPZCJYIA3JBGLK4DOMYER,3RSDURM96BPZCJYIA3JBGLK4DOMYER,254547,254547,,,,
,,,,,,,,2,4.32643,0,13,13,24,1,A3PKTPXXORWR97,25,wolfe_048_R_art-a_w_outline.jpg,wolfe_048_R_art-b_w_outline.jpg,27,f,A3PKTPXXORWR97,2020-10-30_12h28.41.398,MetaAwareness,2020.1.2,Win32,60,3XBXDSS889MLW0K6WRFBMJ8S197LX2,3RSDURM96BPZCJYIA3JBGLK4DOMYER,9USR7,9USR7,3RSDURM96BPZCJYIA3JBGLK4DOMYER,3RSDURM96BPZCJYIA3JBGLK4DOMYER,254547,254547,,,,
,,,,,,,,4,3.01449,0,14,14,9,1,A3PKTPXXORWR97,10,wolfe_019_R_lamp_sized-a_w_outline.jpg,wolfe_019_R_lamp_sized-b_w_outline.jpg,27,f,A3PKTPXXORWR97,2020-10-30_12h28.41.398,MetaAwareness,2020.1.2,Win32,60,3XBXDSS889MLW0K6WRFBMJ8S197LX2,3RSDURM96BPZCJYIA3JBGLK4DOMYER,9USR7,9USR7,3RSDURM96BPZCJYIA3JBGLK4DOMYER,3RSDURM96BPZCJYIA3JBGLK4DOMYER,254547,254547,,,,
,,,,,,,,3,2.92974,0,15,15,5,1,A3PKTPXXORWR97,6,wolfe_032_R_bottle-a_w_outline.jpg,wolfe_032_R_bottle-b_w_outline.jpg,27,f,A3PKTPXXORWR97,2020-10-30_12h28.41.398,MetaAwareness,2020.1.2,Win32,60,3XBXDSS889MLW0K6WRFBMJ8S197LX2,3RSDURM96BPZCJYIA3JBGLK4DOMYER,9USR7,9USR7,3RSDURM96BPZCJYIA3JBGLK4DOMYER,3RSDURM96BPZCJYIA3JBGLK4DOMYER,254547,254547,,,,
,,,,,,,,4,5.00126,0,16,16,22,1,A3PKTPXXORWR97,23,wolfe_083_R_knob-a_w_outline.jpg,wolfe_083_R_knob-b_w_outline.jpg,27,f,A3PKTPXXORWR97,2020-10-30_12h28.41.398,MetaAwareness,2020.1.2,Win32,60,3XBXDSS889MLW0K6WRFBMJ8S197LX2,3RSDURM96BPZCJYIA3JBGLK4DOMYER,9USR7,9USR7,3RSDURM96BPZCJYIA3JBGLK4DOMYER,3RSDURM96BPZCJYIA3JBGLK4DOMYER,254547,254547,,,,
,,,,,,,,5,4.1633,0,17,17,23,1,A3PKTPXXORWR97,24,wolfe_022_R_lamp-a_w_outline.jpg,wolfe_022_R_lamp-b_w_outline.jpg,27,f,A3PKTPXXORWR97,2020-10-30_12h28.41.398,MetaAwareness,2020.1.2,Win32,60,3XBXDSS889MLW0K6WRFBMJ8S197LX2,3RSDURM96BPZCJYIA3JBGLK4DOMYER,9USR7,9USR7,3RSDURM96BPZCJYIA3JBGLK4DOMYER,3RSDURM96BPZCJYIA3JBGLK4DOMYER,254547,254547,,,,
,,,,,,,,5,2.18216,0,18,18,29,1,A3PKTPXXORWR97,30,wolfe_040_R_painting-a_w_outline.jpg,wolfe_040_R_painting-b_w_outline.jpg,27,f,A3PKTPXXORWR97,2020-10-30_12h28.41.398,MetaAwareness,2020.1.2,Win32,60,3XBXDSS889MLW0K6WRFBMJ8S197LX2,3RSDURM96BPZCJYIA3JBGLK4DOMYER,9USR7,9USR7,3RSDURM96BPZCJYIA3JBGLK4DOMYER,3RSDURM96BPZCJYIA3JBGLK4DOMYER,254547,254547,,,,
,,,,,,,,3,3.142165,0,19,19,28,1,A3PKTPXXORWR97,29,wolfe_104_R_bottle-a_w_outline.jpg,wolfe_104_R_bottle-b_w_outline.jpg,27,f,A3PKTPXXORWR97,2020-10-30_12h28.41.398,MetaAwareness,2020.1.2,Win32,60,3XBXDSS889MLW0K6WRFBMJ8S197LX2,3RSDURM96BPZCJYIA3JBGLK4DOMYER,9USR7,9USR7,3RSDURM96BPZCJYIA3JBGLK4DOMYER,3RSDURM96BPZCJYIA3JBGLK4DOMYER,254547,254547,,,,
,,,,,,,,1,3.56181,0,20,20,8,1,A3PKTPXXORWR97,9,wolfe_017_R_wood-a_w_outline.jpg,wolfe_017_R_wood-b_w_outline.jpg,27,f,A3PKTPXXORWR97,2020-10-30_12h28.41.398,MetaAwareness,2020.1.2,Win32,60,3XBXDSS889MLW0K6WRFBMJ8S197LX2,3RSDURM96BPZCJYIA3JBGLK4DOMYER,9USR7,9USR7,3RSDURM96BPZCJYIA3JBGLK4DOMYER,3RSDURM96BPZCJYIA3JBGLK4DOMYER,254547,254547,,,,
,,,,,,,,3,5.566,0,21,21,26,1,A3PKTPXXORWR97,27,wolfe_021_R_keyboard-a_w_outline.jpg,wolfe_021_R_keyboard-b_w_outline.jpg,27,f,A3PKTPXXORWR97,2020-10-30_12h28.41.398,MetaAwareness,2020.1.2,Win32,60,3XBXDSS889MLW0K6WRFBMJ8S197LX2,3RSDURM96BPZCJYIA3JBGLK4DOMYER,9USR7,9USR7,3RSDURM96BPZCJYIA3JBGLK4DOMYER,3RSDURM96BPZCJYIA3JBGLK4DOMYER,254547,254547,,,,
,,,,,,,,3,3.249115,0,22,22,15,1,A3PKTPXXORWR97,16,wolfe_077_R_footrest-a_w_outline.jpg,wolfe_077_R_footrest-b_w_outline.jpg,27,f,A3PKTPXXORWR97,2020-10-30_12h28.41.398,MetaAwareness,2020.1.2,Win32,60,3XBXDSS889MLW0K6WRFBMJ8S197LX2,3RSDURM96BPZCJYIA3JBGLK4DOMYER,9USR7,9USR7,3RSDURM96BPZCJYIA3JBGLK4DOMYER,3RSDURM96BPZCJYIA3JBGLK4DOMYER,254547,254547,,,,
,,,,,,,,3,4.283595,0,23,23,13,1,A3PKTPXXORWR97,14,wolfe_089_R_poster-a_w_outline.jpg,wolfe_089_R_poster-b_w_outline.jpg,27,f,A3PKTPXXORWR97,2020-10-30_12h28.41.398,MetaAwareness,2020.1.2,Win32,60,3XBXDSS889MLW0K6WRFBMJ8S197LX2,3RSDURM96BPZCJYIA3JBGLK4DOMYER,9USR7,9USR7,3RSDURM96BPZCJYIA3JBGLK4DOMYER,3RSDURM96BPZCJYIA3JBGLK4DOMYER,254547,254547,,,,
,,,,,,,,3,2.88378,0,24,24,20,1,A3PKTPXXORWR97,21,wolfe_013_R_lamp-a_w_outline.jpg,wolfe_013_R_lamp-b_w_outline.jpg,27,f,A3PKTPXXORWR97,2020-10-30_12h28.41.398,MetaAwareness,2020.1.2,Win32,60,3XBXDSS889MLW0K6WRFBMJ8S197LX2,3RSDURM96BPZCJYIA3JBGLK4DOMYER,9USR7,9USR7,3RSDURM96BPZCJYIA3JBGLK4DOMYER,3RSDURM96BPZCJYIA3JBGLK4DOMYER,254547,254547,,,,
,,,,,,,,4,2.49558,0,25,25,7,1,A3PKTPXXORWR97,8,wolfe_127_R_light-a_w_outline.jpg,wolfe_127_R_light-b_w_outline.jpg,27,f,A3PKTPXXORWR97,2020-10-30_12h28.41.398,MetaAwareness,2020.1.2,Win32,60,3XBXDSS889MLW0K6WRFBMJ8S197LX2,3RSDURM96BPZCJYIA3JBGLK4DOMYER,9USR7,9USR7,3RSDURM96BPZCJYIA3JBGLK4DOMYER,3RSDURM96BPZCJYIA3JBGLK4DOMYER,254547,254547,,,,
,,,,,,,,3,5.03401,0,26,26,11,1,A3PKTPXXORWR97,12,wolfe_007_R_soap-a_w_outline.jpg,wolfe_007_R_soap-b_w_outline.jpg,27,f,A3PKTPXXORWR97,2020-10-30_12h28.41.398,MetaAwareness,2020.1.2,Win32,60,3XBXDSS889MLW0K6WRFBMJ8S197LX2,3RSDURM96BPZCJYIA3JBGLK4DOMYER,9USR7,9USR7,3RSDURM96BPZCJYIA3JBGLK4DOMYER,3RSDURM96BPZCJYIA3JBGLK4DOMYER,254547,254547,,,,
,,,,,,,,4,3.417625,0,27,27,10,1,A3PKTPXXORWR97,11,wolfe_062_R_flowers-a_w_outline.jpg,wolfe_062_R_flowers-b_w_outline.jpg,27,f,A3PKTPXXORWR97,2020-10-30_12h28.41.398,MetaAwareness,2020.1.2,Win32,60,3XBXDSS889MLW0K6WRFBMJ8S197LX2,3RSDURM96BPZCJYIA3JBGLK4DOMYER,9USR7,9USR7,3RSDURM96BPZCJYIA3JBGLK4DOMYER,3RSDURM96BPZCJYIA3JBGLK4DOMYER,254547,254547,,,,
,,,,,,,,5,3.613365,0,28,28,27,1,A3PKTPXXORWR97,28,wolfe_024_R_towels-a_w_outline.jpg,wolfe_024_R_towels-b_w_outline.jpg,27,f,A3PKTPXXORWR97,2020-10-30_12h28.41.398,MetaAwareness,2020.1.2,Win32,60,3XBXDSS889MLW0K6WRFBMJ8S197LX2,3RSDURM96BPZCJYIA3JBGLK4DOMYER,9USR7,9USR7,3RSDURM96BPZCJYIA3JBGLK4DOMYER,3RSDURM96BPZCJYIA3JBGLK4DOMYER,254547,254547,,,,
,,,,,,,,4,5.532475,0,29,29,21,1,A3PKTPXXORWR97,22,wolfe_031_R_log-a_w_outline.jpg,wolfe_031_R_log-b_w_outline.jpg,27,f,A3PKTPXXORWR97,2020-10-30_12h28.41.398,MetaAwareness,2020.1.2,Win32,60,3XBXDSS889MLW0K6WRFBMJ8S197LX2,3RSDURM96BPZCJYIA3JBGLK4DOMYER,9USR7,9USR7,3RSDURM96BPZCJYIA3JBGLK4DOMYER,3RSDURM96BPZCJYIA3JBGLK4DOMYER,254547,254547,,,,
,,,,,,,,,,,,,,,A3PKTPXXORWR97,,,,27,f,A3PKTPXXORWR97,2020-10-30_12h28.41.398,MetaAwareness,2020.1.2,Win32,60,3XBXDSS889MLW0K6WRFBMJ8S197LX2,3RSDURM96BPZCJYIA3JBGLK4DOMYER,9USR7,9USR7,3RSDURM96BPZCJYIA3JBGLK4DOMYER,3RSDURM96BPZCJYIA3JBGLK4DOMYER,254547,254547,5,1.586405,2,4.330325
