consent_response.keys,consent_response.rt,key_resp_2.keys,key_resp_2.rt,Airplane_resp.keys,Airplane_resp.rt,Boat_resp.keys,Boat_resp.rt,user_resp.keys,user_resp.rt,trials.thisRepN,trials.thisTrialN,trials.thisN,trials.thisIndex,trials.ran,workerId,trial_num,image_a,image_b,age,gender (m/f),worker_ID,date,expName,psychopyVersion,OS,frameRate,hitId,assignmentId,a,tp_a,b,tp_b,c,tp_c,Cow_resp.keys,Cow_resp.rt,Garden_resp.keys,Garden_resp.rt
space,55.19307,space,34.33737,5,6.48572,5,2.42355,1,5.528515,0,0,0,15,1,A3S3WYVCVWW8IZ,16,wolfe_033_R_vase-a_w_outline.jpg,wolfe_033_R_vase-b_w_outline.jpg,35,m,A3S3WYVCVWW8IZ,2020-10-30_07h51.55.385,MetaAwareness,2020.1.2,Win32,60,3LCXHSGDLU9ZUDOFLVMKAG1GDX4ES0,3E47SOBEYRZYPLZZAURD49QD2SUICT,ES4E8,ES4E8,3E47SOBEYRZYPLZZAURD49QD2SUICT,3E47SOBEYRZYPLZZAURD49QD2SUICT,254548,254548,,,,
,,,,,,,,4,6.25163,0,1,1,20,1,A3S3WYVCVWW8IZ,21,wolfe_099_R_sconce-a_w_outline.jpg,wolfe_099_R_sconce-b_w_outline.jpg,35,m,A3S3WYVCVWW8IZ,2020-10-30_07h51.55.385,MetaAwareness,2020.1.2,Win32,60,3LCXHSGDLU9ZUDOFLVMKAG1GDX4ES0,3E47SOBEYRZYPLZZAURD49QD2SUICT,ES4E8,ES4E8,3E47SOBEYRZYPLZZAURD49QD2SUICT,3E47SOBEYRZYPLZZAURD49QD2SUICT,254548,254548,,,,
,,,,,,,,3,5.04797,0,2,2,12,1,A3S3WYVCVWW8IZ,13,wolfe_026_R_rack-a_w_outline.jpg,wolfe_026_R_rack-b_w_outline.jpg,35,m,A3S3WYVCVWW8IZ,2020-10-30_07h51.55.385,MetaAwareness,2020.1.2,Win32,60,3LCXHSGDLU9ZUDOFLVMKAG1GDX4ES0,3E47SOBEYRZYPLZZAURD49QD2SUICT,ES4E8,ES4E8,3E47SOBEYRZYPLZZAURD49QD2SUICT,3E47SOBEYRZYPLZZAURD49QD2SUICT,254548,254548,,,,
,,,,,,,,2,3.923485,0,3,3,21,1,A3S3WYVCVWW8IZ,22,wolfe_061_R_glass-a_w_outline.jpg,wolfe_061_R_glass-b_w_outline.jpg,35,m,A3S3WYVCVWW8IZ,2020-10-30_07h51.55.385,MetaAwareness,2020.1.2,Win32,60,3LCXHSGDLU9ZUDOFLVMKAG1GDX4ES0,3E47SOBEYRZYPLZZAURD49QD2SUICT,ES4E8,ES4E8,3E47SOBEYRZYPLZZAURD49QD2SUICT,3E47SOBEYRZYPLZZAURD49QD2SUICT,254548,254548,,,,
,,,,,,,,3,4.88462,0,4,4,5,1,A3S3WYVCVWW8IZ,6,wolfe_067_R_painting-a_w_outline.jpg,wolfe_067_R_painting-b_w_outline.jpg,35,m,A3S3WYVCVWW8IZ,2020-10-30_07h51.55.385,MetaAwareness,2020.1.2,Win32,60,3LCXHSGDLU9ZUDOFLVMKAG1GDX4ES0,3E47SOBEYRZYPLZZAURD49QD2SUICT,ES4E8,ES4E8,3E47SOBEYRZYPLZZAURD49QD2SUICT,3E47SOBEYRZYPLZZAURD49QD2SUICT,254548,254548,,,,
,,,,,,,,5,2.983865,0,5,5,0,1,A3S3WYVCVWW8IZ,1,wolfe_056_R_comforter-a_w_outline.jpg,wolfe_056_R_comforter-b_w_outline.jpg,35,m,A3S3WYVCVWW8IZ,2020-10-30_07h51.55.385,MetaAwareness,2020.1.2,Win32,60,3LCXHSGDLU9ZUDOFLVMKAG1GDX4ES0,3E47SOBEYRZYPLZZAURD49QD2SUICT,ES4E8,ES4E8,3E47SOBEYRZYPLZZAURD49QD2SUICT,3E47SOBEYRZYPLZZAURD49QD2SUICT,254548,254548,,,,
,,,,,,,,4,3.73487,0,6,6,7,1,A3S3WYVCVWW8IZ,8,wolfe_041_R_fruit-a_w_outline.jpg,wolfe_041_R_fruit-b_w_outline.jpg,35,m,A3S3WYVCVWW8IZ,2020-10-30_07h51.55.385,MetaAwareness,2020.1.2,Win32,60,3LCXHSGDLU9ZUDOFLVMKAG1GDX4ES0,3E47SOBEYRZYPLZZAURD49QD2SUICT,ES4E8,ES4E8,3E47SOBEYRZYPLZZAURD49QD2SUICT,3E47SOBEYRZYPLZZAURD49QD2SUICT,254548,254548,,,,
,,,,,,,,1,5.651855,0,7,7,27,1,A3S3WYVCVWW8IZ,28,wolfe_107_R_shirts-a_w_outline.jpg,wolfe_107_R_shirts-b_w_outline.jpg,35,m,A3S3WYVCVWW8IZ,2020-10-30_07h51.55.385,MetaAwareness,2020.1.2,Win32,60,3LCXHSGDLU9ZUDOFLVMKAG1GDX4ES0,3E47SOBEYRZYPLZZAURD49QD2SUICT,ES4E8,ES4E8,3E47SOBEYRZYPLZZAURD49QD2SUICT,3E47SOBEYRZYPLZZAURD49QD2SUICT,254548,254548,,,,
,,,,,,,,1,14.901555,0,8,8,23,1,A3S3WYVCVWW8IZ,24,wolfe_037_R_towel-a_w_outline.jpg,wolfe_037_R_towel-b_w_outline.jpg,35,m,A3S3WYVCVWW8IZ,2020-10-30_07h51.55.385,MetaAwareness,2020.1.2,Win32,60,3LCXHSGDLU9ZUDOFLVMKAG1GDX4ES0,3E47SOBEYRZYPLZZAURD49QD2SUICT,ES4E8,ES4E8,3E47SOBEYRZYPLZZAURD49QD2SUICT,3E47SOBEYRZYPLZZAURD49QD2SUICT,254548,254548,,,,
,,,,,,,,1,5.219095,0,9,9,4,1,A3S3WYVCVWW8IZ,5,wolfe_012_R_tubaccesory-a_w_outline.jpg,wolfe_012_R_tubaccesory-b_w_outline.jpg,35,m,A3S3WYVCVWW8IZ,2020-10-30_07h51.55.385,MetaAwareness,2020.1.2,Win32,60,3LCXHSGDLU9ZUDOFLVMKAG1GDX4ES0,3E47SOBEYRZYPLZZAURD49QD2SUICT,ES4E8,ES4E8,3E47SOBEYRZYPLZZAURD49QD2SUICT,3E47SOBEYRZYPLZZAURD49QD2SUICT,254548,254548,,,,
,,,,,,,,4,4.036965,0,10,10,18,1,A3S3WYVCVWW8IZ,19,wolfe_025_R_vase-a_w_outline.jpg,wolfe_025_R_vase-b_w_outline.jpg,35,m,A3S3WYVCVWW8IZ,2020-10-30_07h51.55.385,MetaAwareness,2020.1.2,Win32,60,3LCXHSGDLU9ZUDOFLVMKAG1GDX4ES0,3E47SOBEYRZYPLZZAURD49QD2SUICT,ES4E8,ES4E8,3E47SOBEYRZYPLZZAURD49QD2SUICT,3E47SOBEYRZYPLZZAURD49QD2SUICT,254548,254548,,,,
,,,,,,,,4,3.319245,0,11,11,2,1,A3S3WYVCVWW8IZ,3,wolfe_006_R_vase-a_w_outline.jpg,wolfe_006_R_vase-b_w_outline.jpg,35,m,A3S3WYVCVWW8IZ,2020-10-30_07h51.55.385,MetaAwareness,2020.1.2,Win32,60,3LCXHSGDLU9ZUDOFLVMKAG1GDX4ES0,3E47SOBEYRZYPLZZAURD49QD2SUICT,ES4E8,ES4E8,3E47SOBEYRZYPLZZAURD49QD2SUICT,3E47SOBEYRZYPLZZAURD49QD2SUICT,254548,254548,,,,
,,,,,,,,3,3.3384,0,12,12,29,1,A3S3WYVCVWW8IZ,30,wolfe_066_R_vase-a_w_outline.jpg,wolfe_066_R_vase-b_w_outline.jpg,35,m,A3S3WYVCVWW8IZ,2020-10-30_07h51.55.385,MetaAwareness,2020.1.2,Win32,60,3LCXHSGDLU9ZUDOFLVMKAG1GDX4ES0,3E47SOBEYRZYPLZZAURD49QD2SUICT,ES4E8,ES4E8,3E47SOBEYRZYPLZZAURD49QD2SUICT,3E47SOBEYRZYPLZZAURD49QD2SUICT,254548,254548,,,,
,,,,,,,,4,3.327765,0,13,13,25,1,A3S3WYVCVWW8IZ,26,wolfe_014_R_lamp-a_w_outline.jpg,wolfe_014_R_lamp-b_w_outline.jpg,35,m,A3S3WYVCVWW8IZ,2020-10-30_07h51.55.385,MetaAwareness,2020.1.2,Win32,60,3LCXHSGDLU9ZUDOFLVMKAG1GDX4ES0,3E47SOBEYRZYPLZZAURD49QD2SUICT,ES4E8,ES4E8,3E47SOBEYRZYPLZZAURD49QD2SUICT,3E47SOBEYRZYPLZZAURD49QD2SUICT,254548,254548,,,,
,,,,,,,,1,3.40157,0,14,14,8,1,A3S3WYVCVWW8IZ,9,wolfe_063_R_laptop-a_w_outline.jpg,wolfe_063_R_laptop-b_w_outline.jpg,35,m,A3S3WYVCVWW8IZ,2020-10-30_07h51.55.385,MetaAwareness,2020.1.2,Win32,60,3LCXHSGDLU9ZUDOFLVMKAG1GDX4ES0,3E47SOBEYRZYPLZZAURD49QD2SUICT,ES4E8,ES4E8,3E47SOBEYRZYPLZZAURD49QD2SUICT,3E47SOBEYRZYPLZZAURD49QD2SUICT,254548,254548,,,,
,,,,,,,,2,3.950715,0,15,15,14,1,A3S3WYVCVWW8IZ,15,wolfe_080_R_plant-a_w_outline.jpg,wolfe_080_R_plant-b_w_outline.jpg,35,m,A3S3WYVCVWW8IZ,2020-10-30_07h51.55.385,MetaAwareness,2020.1.2,Win32,60,3LCXHSGDLU9ZUDOFLVMKAG1GDX4ES0,3E47SOBEYRZYPLZZAURD49QD2SUICT,ES4E8,ES4E8,3E47SOBEYRZYPLZZAURD49QD2SUICT,3E47SOBEYRZYPLZZAURD49QD2SUICT,254548,254548,,,,
,,,,,,,,3,5.117775,0,16,16,17,1,A3S3WYVCVWW8IZ,18,wolfe_029_R_glass-a_w_outline.jpg,wolfe_029_R_glass-b_w_outline.jpg,35,m,A3S3WYVCVWW8IZ,2020-10-30_07h51.55.385,MetaAwareness,2020.1.2,Win32,60,3LCXHSGDLU9ZUDOFLVMKAG1GDX4ES0,3E47SOBEYRZYPLZZAURD49QD2SUICT,ES4E8,ES4E8,3E47SOBEYRZYPLZZAURD49QD2SUICT,3E47SOBEYRZYPLZZAURD49QD2SUICT,254548,254548,,,,
,,,,,,,,1,3.636665,0,17,17,26,1,A3S3WYVCVWW8IZ,27,wolfe_017_R_wood-a_w_outline.jpg,wolfe_017_R_wood-b_w_outline.jpg,35,m,A3S3WYVCVWW8IZ,2020-10-30_07h51.55.385,MetaAwareness,2020.1.2,Win32,60,3LCXHSGDLU9ZUDOFLVMKAG1GDX4ES0,3E47SOBEYRZYPLZZAURD49QD2SUICT,ES4E8,ES4E8,3E47SOBEYRZYPLZZAURD49QD2SUICT,3E47SOBEYRZYPLZZAURD49QD2SUICT,254548,254548,,,,
,,,,,,,,2,3.336495,0,18,18,24,1,A3S3WYVCVWW8IZ,25,wolfe_046_R_remote-a_w_outline.jpg,wolfe_046_R_remote-b_w_outline.jpg,35,m,A3S3WYVCVWW8IZ,2020-10-30_07h51.55.385,MetaAwareness,2020.1.2,Win32,60,3LCXHSGDLU9ZUDOFLVMKAG1GDX4ES0,3E47SOBEYRZYPLZZAURD49QD2SUICT,ES4E8,ES4E8,3E47SOBEYRZYPLZZAURD49QD2SUICT,3E47SOBEYRZYPLZZAURD49QD2SUICT,254548,254548,,,,
,,,,,,,,1,3.534985,0,19,19,16,1,A3S3WYVCVWW8IZ,17,wolfe_010_R_candle-a_w_outline.jpg,wolfe_010_R_candle-b_w_outline.jpg,35,m,A3S3WYVCVWW8IZ,2020-10-30_07h51.55.385,MetaAwareness,2020.1.2,Win32,60,3LCXHSGDLU9ZUDOFLVMKAG1GDX4ES0,3E47SOBEYRZYPLZZAURD49QD2SUICT,ES4E8,ES4E8,3E47SOBEYRZYPLZZAURD49QD2SUICT,3E47SOBEYRZYPLZZAURD49QD2SUICT,254548,254548,,,,
,,,,,,,,2,3.63749,0,20,20,22,1,A3S3WYVCVWW8IZ,23,wolfe_125_R_sofa-a_w_outline.jpg,wolfe_125_R_sofa-b_w_outline.jpg,35,m,A3S3WYVCVWW8IZ,2020-10-30_07h51.55.385,MetaAwareness,2020.1.2,Win32,60,3LCXHSGDLU9ZUDOFLVMKAG1GDX4ES0,3E47SOBEYRZYPLZZAURD49QD2SUICT,ES4E8,ES4E8,3E47SOBEYRZYPLZZAURD49QD2SUICT,3E47SOBEYRZYPLZZAURD49QD2SUICT,254548,254548,,,,
,,,,,,,,4,3.02593,0,21,21,6,1,A3S3WYVCVWW8IZ,7,wolfe_087_R_towelhandle-a_w_outline.jpg,wolfe_087_R_towelhandle-b_w_outline.jpg,35,m,A3S3WYVCVWW8IZ,2020-10-30_07h51.55.385,MetaAwareness,2020.1.2,Win32,60,3LCXHSGDLU9ZUDOFLVMKAG1GDX4ES0,3E47SOBEYRZYPLZZAURD49QD2SUICT,ES4E8,ES4E8,3E47SOBEYRZYPLZZAURD49QD2SUICT,3E47SOBEYRZYPLZZAURD49QD2SUICT,254548,254548,,,,
,,,,,,,,2,4.83692,0,22,22,3,1,A3S3WYVCVWW8IZ,4,wolfe_030_R_drawer-a_w_outline.jpg,wolfe_030_R_drawer-b_w_outline.jpg,35,m,A3S3WYVCVWW8IZ,2020-10-30_07h51.55.385,MetaAwareness,2020.1.2,Win32,60,3LCXHSGDLU9ZUDOFLVMKAG1GDX4ES0,3E47SOBEYRZYPLZZAURD49QD2SUICT,ES4E8,ES4E8,3E47SOBEYRZYPLZZAURD49QD2SUICT,3E47SOBEYRZYPLZZAURD49QD2SUICT,254548,254548,,,,
,,,,,,,,3,5.535715,0,23,23,11,1,A3S3WYVCVWW8IZ,12,wolfe_126_R_candles-a_w_outline.jpg,wolfe_126_R_candles-b_w_outline.jpg,35,m,A3S3WYVCVWW8IZ,2020-10-30_07h51.55.385,MetaAwareness,2020.1.2,Win32,60,3LCXHSGDLU9ZUDOFLVMKAG1GDX4ES0,3E47SOBEYRZYPLZZAURD49QD2SUICT,ES4E8,ES4E8,3E47SOBEYRZYPLZZAURD49QD2SUICT,3E47SOBEYRZYPLZZAURD49QD2SUICT,254548,254548,,,,
,,,,,,,,3,3.268995,0,24,24,28,1,A3S3WYVCVWW8IZ,29,wolfe_016_R_art-a_w_outline.jpg,wolfe_016_R_art-b_w_outline.jpg,35,m,A3S3WYVCVWW8IZ,2020-10-30_07h51.55.385,MetaAwareness,2020.1.2,Win32,60,3LCXHSGDLU9ZUDOFLVMKAG1GDX4ES0,3E47SOBEYRZYPLZZAURD49QD2SUICT,ES4E8,ES4E8,3E47SOBEYRZYPLZZAURD49QD2SUICT,3E47SOBEYRZYPLZZAURD49QD2SUICT,254548,254548,,,,
,,,,,,,,2,2.05109,0,25,25,9,1,A3S3WYVCVWW8IZ,10,wolfe_065_R_cd-a_w_outline.jpg,wolfe_065_R_cd-b_w_outline.jpg,35,m,A3S3WYVCVWW8IZ,2020-10-30_07h51.55.385,MetaAwareness,2020.1.2,Win32,60,3LCXHSGDLU9ZUDOFLVMKAG1GDX4ES0,3E47SOBEYRZYPLZZAURD49QD2SUICT,ES4E8,ES4E8,3E47SOBEYRZYPLZZAURD49QD2SUICT,3E47SOBEYRZYPLZZAURD49QD2SUICT,254548,254548,,,,
,,,,,,,,2,2.10017,0,26,26,10,1,A3S3WYVCVWW8IZ,11,wolfe_104_R_bottle-a_w_outline.jpg,wolfe_104_R_bottle-b_w_outline.jpg,35,m,A3S3WYVCVWW8IZ,2020-10-30_07h51.55.385,MetaAwareness,2020.1.2,Win32,60,3LCXHSGDLU9ZUDOFLVMKAG1GDX4ES0,3E47SOBEYRZYPLZZAURD49QD2SUICT,ES4E8,ES4E8,3E47SOBEYRZYPLZZAURD49QD2SUICT,3E47SOBEYRZYPLZZAURD49QD2SUICT,254548,254548,,,,
,,,,,,,,3,3.41894,0,27,27,19,1,A3S3WYVCVWW8IZ,20,wolfe_071_R_art-a_w_outline.jpg,wolfe_071_R_art-b_w_outline.jpg,35,m,A3S3WYVCVWW8IZ,2020-10-30_07h51.55.385,MetaAwareness,2020.1.2,Win32,60,3LCXHSGDLU9ZUDOFLVMKAG1GDX4ES0,3E47SOBEYRZYPLZZAURD49QD2SUICT,ES4E8,ES4E8,3E47SOBEYRZYPLZZAURD49QD2SUICT,3E47SOBEYRZYPLZZAURD49QD2SUICT,254548,254548,,,,
,,,,,,,,4,2.26901,0,28,28,1,1,A3S3WYVCVWW8IZ,2,wolfe_117_R_plant_sized-a_w_outline.jpg,wolfe_117_R_plant_sized-b_w_outline.jpg,35,m,A3S3WYVCVWW8IZ,2020-10-30_07h51.55.385,MetaAwareness,2020.1.2,Win32,60,3LCXHSGDLU9ZUDOFLVMKAG1GDX4ES0,3E47SOBEYRZYPLZZAURD49QD2SUICT,ES4E8,ES4E8,3E47SOBEYRZYPLZZAURD49QD2SUICT,3E47SOBEYRZYPLZZAURD49QD2SUICT,254548,254548,,,,
,,,,,,,,4,2.48532,0,29,29,13,1,A3S3WYVCVWW8IZ,14,wolfe_098_R_slippers-a_w_outline.jpg,wolfe_098_R_slippers-b_w_outline.jpg,35,m,A3S3WYVCVWW8IZ,2020-10-30_07h51.55.385,MetaAwareness,2020.1.2,Win32,60,3LCXHSGDLU9ZUDOFLVMKAG1GDX4ES0,3E47SOBEYRZYPLZZAURD49QD2SUICT,ES4E8,ES4E8,3E47SOBEYRZYPLZZAURD49QD2SUICT,3E47SOBEYRZYPLZZAURD49QD2SUICT,254548,254548,,,,
,,,,,,,,,,,,,,,A3S3WYVCVWW8IZ,,,,35,m,A3S3WYVCVWW8IZ,2020-10-30_07h51.55.385,MetaAwareness,2020.1.2,Win32,60,3LCXHSGDLU9ZUDOFLVMKAG1GDX4ES0,3E47SOBEYRZYPLZZAURD49QD2SUICT,ES4E8,ES4E8,3E47SOBEYRZYPLZZAURD49QD2SUICT,3E47SOBEYRZYPLZZAURD49QD2SUICT,254548,254548,5,1.159405,1,6.777525
