consent_response.keys,consent_response.rt,key_resp_2.keys,key_resp_2.rt,Airplane_resp.keys,Airplane_resp.rt,Boat_resp.keys,Boat_resp.rt,user_resp.keys,user_resp.rt,trials.thisRepN,trials.thisTrialN,trials.thisN,trials.thisIndex,trials.ran,workerId,trial_num,image_a,image_b,age,gender (m/f),worker_ID,date,expName,psychopyVersion,OS,frameRate,hitId,assignmentId,a,tp_a,b,tp_b,c,tp_c,Cow_resp.keys,Cow_resp.rt,Garden_resp.keys,Garden_resp.rt
space,28.368535,space,17.87815,5,3.307055,5,2.61671,4,4.98513,0,0,0,3,1,AM4PAC2YQPREB,4,wolfe_011_L_parfum-a_w_outline.jpg,wolfe_011_L_parfum-b_w_outline.jpg,25,m,AM4PAC2YQPREB,2020-11-30_21h53.41.707,MetaAwareness,2020.1.2,Win32,60,3D4BBDG7ZIZGDYJMZPFOCKT117W3CD,37UQDCYH6YYXZAO3IKIL3COTDQ2V7V,HDU73,HDU73,37UQDCYH6YYXZAO3IKIL3COTDQ2V7V,37UQDCYH6YYXZAO3IKIL3COTDQ2V7V,260823,260823,,,,
,,,,,,,,4,5.401615,0,1,1,10,1,AM4PAC2YQPREB,11,wolfe_018_L_plant-a_w_outline.jpg,wolfe_018_L_plant-b_w_outline.jpg,25,m,AM4PAC2YQPREB,2020-11-30_21h53.41.707,MetaAwareness,2020.1.2,Win32,60,3D4BBDG7ZIZGDYJMZPFOCKT117W3CD,37UQDCYH6YYXZAO3IKIL3COTDQ2V7V,HDU73,HDU73,37UQDCYH6YYXZAO3IKIL3COTDQ2V7V,37UQDCYH6YYXZAO3IKIL3COTDQ2V7V,260823,260823,,,,
,,,,,,,,3,4.551325,0,2,2,19,1,AM4PAC2YQPREB,21,wolfe_029_L_glass-a_w_outline.jpg,wolfe_029_L_glass-b_w_outline.jpg,25,m,AM4PAC2YQPREB,2020-11-30_21h53.41.707,MetaAwareness,2020.1.2,Win32,60,3D4BBDG7ZIZGDYJMZPFOCKT117W3CD,37UQDCYH6YYXZAO3IKIL3COTDQ2V7V,HDU73,HDU73,37UQDCYH6YYXZAO3IKIL3COTDQ2V7V,37UQDCYH6YYXZAO3IKIL3COTDQ2V7V,260823,260823,,,,
,,,,,,,,3,4.1016,0,3,3,9,1,AM4PAC2YQPREB,10,wolfe_097_L_light-a_w_outline.jpg,wolfe_097_L_light-b_w_outline.jpg,25,m,AM4PAC2YQPREB,2020-11-30_21h53.41.707,MetaAwareness,2020.1.2,Win32,60,3D4BBDG7ZIZGDYJMZPFOCKT117W3CD,37UQDCYH6YYXZAO3IKIL3COTDQ2V7V,HDU73,HDU73,37UQDCYH6YYXZAO3IKIL3COTDQ2V7V,37UQDCYH6YYXZAO3IKIL3COTDQ2V7V,260823,260823,,,,
,,,,,,,,2,5.118305,0,4,4,2,1,AM4PAC2YQPREB,3,wolfe_061_L_glass-a_w_outline.jpg,wolfe_061_L_glass-b_w_outline.jpg,25,m,AM4PAC2YQPREB,2020-11-30_21h53.41.707,MetaAwareness,2020.1.2,Win32,60,3D4BBDG7ZIZGDYJMZPFOCKT117W3CD,37UQDCYH6YYXZAO3IKIL3COTDQ2V7V,HDU73,HDU73,37UQDCYH6YYXZAO3IKIL3COTDQ2V7V,37UQDCYH6YYXZAO3IKIL3COTDQ2V7V,260823,260823,,,,
,,,,,,,,2,4.23503,0,5,5,22,1,AM4PAC2YQPREB,24,wolfe_051_L_owl-a_w_outline.jpg,wolfe_051_L_owl-b_w_outline.jpg,25,m,AM4PAC2YQPREB,2020-11-30_21h53.41.707,MetaAwareness,2020.1.2,Win32,60,3D4BBDG7ZIZGDYJMZPFOCKT117W3CD,37UQDCYH6YYXZAO3IKIL3COTDQ2V7V,HDU73,HDU73,37UQDCYH6YYXZAO3IKIL3COTDQ2V7V,37UQDCYH6YYXZAO3IKIL3COTDQ2V7V,260823,260823,,,,
,,,,,,,,2,4.968525,0,6,6,11,1,AM4PAC2YQPREB,12,wolfe_105_L_hat-a_w_outline.jpg,wolfe_105_L_hat-b_w_outline.jpg,25,m,AM4PAC2YQPREB,2020-11-30_21h53.41.707,MetaAwareness,2020.1.2,Win32,60,3D4BBDG7ZIZGDYJMZPFOCKT117W3CD,37UQDCYH6YYXZAO3IKIL3COTDQ2V7V,HDU73,HDU73,37UQDCYH6YYXZAO3IKIL3COTDQ2V7V,37UQDCYH6YYXZAO3IKIL3COTDQ2V7V,260823,260823,,,,
,,,,,,,,3,4.852855,0,7,7,18,1,AM4PAC2YQPREB,19,wolfe_021_L_keyboard-a_w_outline.jpg,wolfe_021_L_keyboard-b_w_outline.jpg,25,m,AM4PAC2YQPREB,2020-11-30_21h53.41.707,MetaAwareness,2020.1.2,Win32,60,3D4BBDG7ZIZGDYJMZPFOCKT117W3CD,37UQDCYH6YYXZAO3IKIL3COTDQ2V7V,HDU73,HDU73,37UQDCYH6YYXZAO3IKIL3COTDQ2V7V,37UQDCYH6YYXZAO3IKIL3COTDQ2V7V,260823,260823,,,,
,,,,,,,,3,5.268095,0,8,8,27,1,AM4PAC2YQPREB,28,wolfe_072_L_handle-a_w_outline.jpg,wolfe_072_L_handle-b_w_outline.jpg,25,m,AM4PAC2YQPREB,2020-11-30_21h53.41.707,MetaAwareness,2020.1.2,Win32,60,3D4BBDG7ZIZGDYJMZPFOCKT117W3CD,37UQDCYH6YYXZAO3IKIL3COTDQ2V7V,HDU73,HDU73,37UQDCYH6YYXZAO3IKIL3COTDQ2V7V,37UQDCYH6YYXZAO3IKIL3COTDQ2V7V,260823,260823,,,,
,,,,,,,,3,3.93488,0,9,9,24,1,AM4PAC2YQPREB,20,wolfe_023_L_remote-a_w_outline.jpg,wolfe_023_L_remote-b_w_outline.jpg,25,m,AM4PAC2YQPREB,2020-11-30_21h53.41.707,MetaAwareness,2020.1.2,Win32,60,3D4BBDG7ZIZGDYJMZPFOCKT117W3CD,37UQDCYH6YYXZAO3IKIL3COTDQ2V7V,HDU73,HDU73,37UQDCYH6YYXZAO3IKIL3COTDQ2V7V,37UQDCYH6YYXZAO3IKIL3COTDQ2V7V,260823,260823,,,,
,,,,,,,,2,6.184915,0,10,10,16,1,AM4PAC2YQPREB,17,wolfe_123_L_pot-a_w_outline.jpg,wolfe_123_L_pot-b_w_outline.jpg,25,m,AM4PAC2YQPREB,2020-11-30_21h53.41.707,MetaAwareness,2020.1.2,Win32,60,3D4BBDG7ZIZGDYJMZPFOCKT117W3CD,37UQDCYH6YYXZAO3IKIL3COTDQ2V7V,HDU73,HDU73,37UQDCYH6YYXZAO3IKIL3COTDQ2V7V,37UQDCYH6YYXZAO3IKIL3COTDQ2V7V,260823,260823,,,,
,,,,,,,,4,4.63483,0,11,11,1,1,AM4PAC2YQPREB,2,wolfe_110_L_plant-a_w_outline.jpg,wolfe_110_L_plant-b_w_outline.jpg,25,m,AM4PAC2YQPREB,2020-11-30_21h53.41.707,MetaAwareness,2020.1.2,Win32,60,3D4BBDG7ZIZGDYJMZPFOCKT117W3CD,37UQDCYH6YYXZAO3IKIL3COTDQ2V7V,HDU73,HDU73,37UQDCYH6YYXZAO3IKIL3COTDQ2V7V,37UQDCYH6YYXZAO3IKIL3COTDQ2V7V,260823,260823,,,,
,,,,,,,,5,3.451625,0,12,12,29,1,AM4PAC2YQPREB,30,wolfe_128_L_pot-a_w_outline.jpg,wolfe_128_L_pot-b_w_outline.jpg,25,m,AM4PAC2YQPREB,2020-11-30_21h53.41.707,MetaAwareness,2020.1.2,Win32,60,3D4BBDG7ZIZGDYJMZPFOCKT117W3CD,37UQDCYH6YYXZAO3IKIL3COTDQ2V7V,HDU73,HDU73,37UQDCYH6YYXZAO3IKIL3COTDQ2V7V,37UQDCYH6YYXZAO3IKIL3COTDQ2V7V,260823,260823,,,,
,,,,,,,,1,4.001575,0,13,13,5,1,AM4PAC2YQPREB,6,wolfe_053_L_handle-a_w_outline.jpg,wolfe_053_L_handle-b_w_outline.jpg,25,m,AM4PAC2YQPREB,2020-11-30_21h53.41.707,MetaAwareness,2020.1.2,Win32,60,3D4BBDG7ZIZGDYJMZPFOCKT117W3CD,37UQDCYH6YYXZAO3IKIL3COTDQ2V7V,HDU73,HDU73,37UQDCYH6YYXZAO3IKIL3COTDQ2V7V,37UQDCYH6YYXZAO3IKIL3COTDQ2V7V,260823,260823,,,,
,,,,,,,,1,3.685365,0,14,14,6,1,AM4PAC2YQPREB,7,wolfe_047_L_handle-a_w_outline.jpg,wolfe_047_L_handle-b_w_outline.jpg,25,m,AM4PAC2YQPREB,2020-11-30_21h53.41.707,MetaAwareness,2020.1.2,Win32,60,3D4BBDG7ZIZGDYJMZPFOCKT117W3CD,37UQDCYH6YYXZAO3IKIL3COTDQ2V7V,HDU73,HDU73,37UQDCYH6YYXZAO3IKIL3COTDQ2V7V,37UQDCYH6YYXZAO3IKIL3COTDQ2V7V,260823,260823,,,,
,,,,,,,,2,5.1023,0,15,15,25,1,AM4PAC2YQPREB,26,wolfe_033_L_vase-a_w_outline.jpg,wolfe_033_L_vase-b_w_outline.jpg,25,m,AM4PAC2YQPREB,2020-11-30_21h53.41.707,MetaAwareness,2020.1.2,Win32,60,3D4BBDG7ZIZGDYJMZPFOCKT117W3CD,37UQDCYH6YYXZAO3IKIL3COTDQ2V7V,HDU73,HDU73,37UQDCYH6YYXZAO3IKIL3COTDQ2V7V,37UQDCYH6YYXZAO3IKIL3COTDQ2V7V,260823,260823,,,,
,,,,,,,,3,4.101625,0,16,16,23,1,AM4PAC2YQPREB,25,wolfe_034_L_handle-a_w_outline.jpg,wolfe_034_L_handle-b_w_outline.jpg,25,m,AM4PAC2YQPREB,2020-11-30_21h53.41.707,MetaAwareness,2020.1.2,Win32,60,3D4BBDG7ZIZGDYJMZPFOCKT117W3CD,37UQDCYH6YYXZAO3IKIL3COTDQ2V7V,HDU73,HDU73,37UQDCYH6YYXZAO3IKIL3COTDQ2V7V,37UQDCYH6YYXZAO3IKIL3COTDQ2V7V,260823,260823,,,,
,,,,,,,,1,5.33474,0,17,17,14,1,AM4PAC2YQPREB,15,wolfe_037_L_towel-a_w_outline.jpg,wolfe_037_L_towel-b_w_outline.jpg,25,m,AM4PAC2YQPREB,2020-11-30_21h53.41.707,MetaAwareness,2020.1.2,Win32,60,3D4BBDG7ZIZGDYJMZPFOCKT117W3CD,37UQDCYH6YYXZAO3IKIL3COTDQ2V7V,HDU73,HDU73,37UQDCYH6YYXZAO3IKIL3COTDQ2V7V,37UQDCYH6YYXZAO3IKIL3COTDQ2V7V,260823,260823,,,,
,,,,,,,,2,4.00145,0,18,18,13,1,AM4PAC2YQPREB,14,wolfe_017_L_wood-a_w_outline.jpg,wolfe_017_L_wood-b_w_outline.jpg,25,m,AM4PAC2YQPREB,2020-11-30_21h53.41.707,MetaAwareness,2020.1.2,Win32,60,3D4BBDG7ZIZGDYJMZPFOCKT117W3CD,37UQDCYH6YYXZAO3IKIL3COTDQ2V7V,HDU73,HDU73,37UQDCYH6YYXZAO3IKIL3COTDQ2V7V,37UQDCYH6YYXZAO3IKIL3COTDQ2V7V,260823,260823,,,,
,,,,,,,,3,3.201675,0,19,19,17,1,AM4PAC2YQPREB,18,wolfe_087_L_towelhandle-a_w_outline.jpg,wolfe_087_L_towelhandle-b_w_outline.jpg,25,m,AM4PAC2YQPREB,2020-11-30_21h53.41.707,MetaAwareness,2020.1.2,Win32,60,3D4BBDG7ZIZGDYJMZPFOCKT117W3CD,37UQDCYH6YYXZAO3IKIL3COTDQ2V7V,HDU73,HDU73,37UQDCYH6YYXZAO3IKIL3COTDQ2V7V,37UQDCYH6YYXZAO3IKIL3COTDQ2V7V,260823,260823,,,,
,,,,,,,,3,3.83531,0,20,20,20,1,AM4PAC2YQPREB,22,wolfe_043_L_clock-a_w_outline.jpg,wolfe_043_L_clock-b_w_outline.jpg,25,m,AM4PAC2YQPREB,2020-11-30_21h53.41.707,MetaAwareness,2020.1.2,Win32,60,3D4BBDG7ZIZGDYJMZPFOCKT117W3CD,37UQDCYH6YYXZAO3IKIL3COTDQ2V7V,HDU73,HDU73,37UQDCYH6YYXZAO3IKIL3COTDQ2V7V,37UQDCYH6YYXZAO3IKIL3COTDQ2V7V,260823,260823,,,,
,,,,,,,,3,4.034955,0,21,21,28,1,AM4PAC2YQPREB,29,wolfe_020_L_walldeco-a_w_outline.jpg,wolfe_020_L_walldeco-b_w_outline.jpg,25,m,AM4PAC2YQPREB,2020-11-30_21h53.41.707,MetaAwareness,2020.1.2,Win32,60,3D4BBDG7ZIZGDYJMZPFOCKT117W3CD,37UQDCYH6YYXZAO3IKIL3COTDQ2V7V,HDU73,HDU73,37UQDCYH6YYXZAO3IKIL3COTDQ2V7V,37UQDCYH6YYXZAO3IKIL3COTDQ2V7V,260823,260823,,,,
,,,,,,,,1,3.918195,0,22,22,26,1,AM4PAC2YQPREB,27,wolfe_077_L_footrest-a_w_outline.jpg,wolfe_077_L_footrest-b_w_outline.jpg,25,m,AM4PAC2YQPREB,2020-11-30_21h53.41.707,MetaAwareness,2020.1.2,Win32,60,3D4BBDG7ZIZGDYJMZPFOCKT117W3CD,37UQDCYH6YYXZAO3IKIL3COTDQ2V7V,HDU73,HDU73,37UQDCYH6YYXZAO3IKIL3COTDQ2V7V,37UQDCYH6YYXZAO3IKIL3COTDQ2V7V,260823,260823,,,,
,,,,,,,,2,3.9682,0,23,23,21,1,AM4PAC2YQPREB,23,wolfe_115_L_pot-a_w_outline.jpg,wolfe_115_L_pot-b_w_outline.jpg,25,m,AM4PAC2YQPREB,2020-11-30_21h53.41.707,MetaAwareness,2020.1.2,Win32,60,3D4BBDG7ZIZGDYJMZPFOCKT117W3CD,37UQDCYH6YYXZAO3IKIL3COTDQ2V7V,HDU73,HDU73,37UQDCYH6YYXZAO3IKIL3COTDQ2V7V,37UQDCYH6YYXZAO3IKIL3COTDQ2V7V,260823,260823,,,,
,,,,,,,,4,7.317745,0,24,24,15,1,AM4PAC2YQPREB,16,wolfe_126_L_candles-a_w_outline.jpg,wolfe_126_L_candles-b_w_outline.jpg,25,m,AM4PAC2YQPREB,2020-11-30_21h53.41.707,MetaAwareness,2020.1.2,Win32,60,3D4BBDG7ZIZGDYJMZPFOCKT117W3CD,37UQDCYH6YYXZAO3IKIL3COTDQ2V7V,HDU73,HDU73,37UQDCYH6YYXZAO3IKIL3COTDQ2V7V,37UQDCYH6YYXZAO3IKIL3COTDQ2V7V,260823,260823,,,,
,,,,,,,,1,3.23492,0,25,25,7,1,AM4PAC2YQPREB,8,wolfe_073_L_coffeemug-a_w_outline.jpg,wolfe_073_L_coffeemug-b_w_outline.jpg,25,m,AM4PAC2YQPREB,2020-11-30_21h53.41.707,MetaAwareness,2020.1.2,Win32,60,3D4BBDG7ZIZGDYJMZPFOCKT117W3CD,37UQDCYH6YYXZAO3IKIL3COTDQ2V7V,HDU73,HDU73,37UQDCYH6YYXZAO3IKIL3COTDQ2V7V,37UQDCYH6YYXZAO3IKIL3COTDQ2V7V,260823,260823,,,,
,,,,,,,,5,3.86819,0,26,26,4,1,AM4PAC2YQPREB,5,wolfe_022_L_lamp-a_w_outline.jpg,wolfe_022_L_lamp-b_w_outline.jpg,25,m,AM4PAC2YQPREB,2020-11-30_21h53.41.707,MetaAwareness,2020.1.2,Win32,60,3D4BBDG7ZIZGDYJMZPFOCKT117W3CD,37UQDCYH6YYXZAO3IKIL3COTDQ2V7V,HDU73,HDU73,37UQDCYH6YYXZAO3IKIL3COTDQ2V7V,37UQDCYH6YYXZAO3IKIL3COTDQ2V7V,260823,260823,,,,
,,,,,,,,5,3.58516,0,27,27,8,1,AM4PAC2YQPREB,9,wolfe_117_L_plant_sized-a_w_outline.jpg,wolfe_117_L_plant_sized-b_w_outline.jpg,25,m,AM4PAC2YQPREB,2020-11-30_21h53.41.707,MetaAwareness,2020.1.2,Win32,60,3D4BBDG7ZIZGDYJMZPFOCKT117W3CD,37UQDCYH6YYXZAO3IKIL3COTDQ2V7V,HDU73,HDU73,37UQDCYH6YYXZAO3IKIL3COTDQ2V7V,37UQDCYH6YYXZAO3IKIL3COTDQ2V7V,260823,260823,,,,
,,,,,,,,4,3.10182,0,28,28,0,1,AM4PAC2YQPREB,1,wolfe_108_L_boa-a_w_outline.jpg,wolfe_108_L_boa-b_w_outline.jpg,25,m,AM4PAC2YQPREB,2020-11-30_21h53.41.707,MetaAwareness,2020.1.2,Win32,60,3D4BBDG7ZIZGDYJMZPFOCKT117W3CD,37UQDCYH6YYXZAO3IKIL3COTDQ2V7V,HDU73,HDU73,37UQDCYH6YYXZAO3IKIL3COTDQ2V7V,37UQDCYH6YYXZAO3IKIL3COTDQ2V7V,260823,260823,,,,
,,,,,,,,4,4.234845,0,29,29,12,1,AM4PAC2YQPREB,13,wolfe_025_L_vase-a_w_outline.jpg,wolfe_025_L_vase-b_w_outline.jpg,25,m,AM4PAC2YQPREB,2020-11-30_21h53.41.707,MetaAwareness,2020.1.2,Win32,60,3D4BBDG7ZIZGDYJMZPFOCKT117W3CD,37UQDCYH6YYXZAO3IKIL3COTDQ2V7V,HDU73,HDU73,37UQDCYH6YYXZAO3IKIL3COTDQ2V7V,37UQDCYH6YYXZAO3IKIL3COTDQ2V7V,260823,260823,,,,
,,,,,,,,,,,,,,,AM4PAC2YQPREB,,,,25,m,AM4PAC2YQPREB,2020-11-30_21h53.41.707,MetaAwareness,2020.1.2,Win32,60,3D4BBDG7ZIZGDYJMZPFOCKT117W3CD,37UQDCYH6YYXZAO3IKIL3COTDQ2V7V,HDU73,HDU73,37UQDCYH6YYXZAO3IKIL3COTDQ2V7V,37UQDCYH6YYXZAO3IKIL3COTDQ2V7V,260823,260823,5,1.29876,1,9.859545
