consent_response.keys,consent_response.rt,key_resp_2.keys,key_resp_2.rt,Airplane_resp.keys,Airplane_resp.rt,Boat_resp.keys,Boat_resp.rt,user_resp.keys,user_resp.rt,trials.thisRepN,trials.thisTrialN,trials.thisN,trials.thisIndex,trials.ran,workerId,trial_num,image_a,image_b,age,gender (m/f),worker_ID,date,expName,psychopyVersion,OS,frameRate,hitId,assignmentId,a,tp_a,b,tp_b,c,tp_c,Cow_resp.keys,Cow_resp.rt,Garden_resp.keys,Garden_resp.rt
space,7.269,space,24.077,5,5.221,5,3.983,2,6.827,0,0,0,26,1,ASFBN5SC3SGDG,27,wolfe_085_L_switchboard-a_w_outline.jpg,wolfe_085_L_switchboard-b_w_outline.jpg,37,m,ASFBN5SC3SGDG,2020-10-30_13h55.01.186,MetaAwareness,2020.1.2,Win32,60,3LCXHSGDLU9ZUDOFLVMKAG1GDX4ES0,3Z7ISHFUH1YI88YWTMZU2IXK8G68Z9,US7Z8,US7Z8,3Z7ISHFUH1YI88YWTMZU2IXK8G68Z9,3Z7ISHFUH1YI88YWTMZU2IXK8G68Z9,254548,254548,,,,
,,,,,,,,4,5.703,0,1,1,7,1,ASFBN5SC3SGDG,8,wolfe_087_L_towelhandle-a_w_outline.jpg,wolfe_087_L_towelhandle-b_w_outline.jpg,37,m,ASFBN5SC3SGDG,2020-10-30_13h55.01.186,MetaAwareness,2020.1.2,Win32,60,3LCXHSGDLU9ZUDOFLVMKAG1GDX4ES0,3Z7ISHFUH1YI88YWTMZU2IXK8G68Z9,US7Z8,US7Z8,3Z7ISHFUH1YI88YWTMZU2IXK8G68Z9,3Z7ISHFUH1YI88YWTMZU2IXK8G68Z9,254548,254548,,,,
,,,,,,,,4,5.469,0,2,2,10,1,ASFBN5SC3SGDG,11,wolfe_026_L_rack-a_w_outline.jpg,wolfe_026_L_rack-b_w_outline.jpg,37,m,ASFBN5SC3SGDG,2020-10-30_13h55.01.186,MetaAwareness,2020.1.2,Win32,60,3LCXHSGDLU9ZUDOFLVMKAG1GDX4ES0,3Z7ISHFUH1YI88YWTMZU2IXK8G68Z9,US7Z8,US7Z8,3Z7ISHFUH1YI88YWTMZU2IXK8G68Z9,3Z7ISHFUH1YI88YWTMZU2IXK8G68Z9,254548,254548,,,,
,,,,,,,,4,8.785,0,3,3,1,1,ASFBN5SC3SGDG,2,wolfe_089_L_poster-a_w_outline.jpg,wolfe_089_L_poster-b_w_outline.jpg,37,m,ASFBN5SC3SGDG,2020-10-30_13h55.01.186,MetaAwareness,2020.1.2,Win32,60,3LCXHSGDLU9ZUDOFLVMKAG1GDX4ES0,3Z7ISHFUH1YI88YWTMZU2IXK8G68Z9,US7Z8,US7Z8,3Z7ISHFUH1YI88YWTMZU2IXK8G68Z9,3Z7ISHFUH1YI88YWTMZU2IXK8G68Z9,254548,254548,,,,
,,,,,,,,1,8.318,0,4,4,16,1,ASFBN5SC3SGDG,17,wolfe_057_L_bin-a_w_outline.jpg,wolfe_057_L_bin-b_w_outline.jpg,37,m,ASFBN5SC3SGDG,2020-10-30_13h55.01.186,MetaAwareness,2020.1.2,Win32,60,3LCXHSGDLU9ZUDOFLVMKAG1GDX4ES0,3Z7ISHFUH1YI88YWTMZU2IXK8G68Z9,US7Z8,US7Z8,3Z7ISHFUH1YI88YWTMZU2IXK8G68Z9,3Z7ISHFUH1YI88YWTMZU2IXK8G68Z9,254548,254548,,,,
,,,,,,,,4,13.467,0,5,5,9,1,ASFBN5SC3SGDG,9,wolfe_049_L_painting-a_w_outline.jpg,wolfe_049_L_painting-b_w_outline.jpg,37,m,ASFBN5SC3SGDG,2020-10-30_13h55.01.186,MetaAwareness,2020.1.2,Win32,60,3LCXHSGDLU9ZUDOFLVMKAG1GDX4ES0,3Z7ISHFUH1YI88YWTMZU2IXK8G68Z9,US7Z8,US7Z8,3Z7ISHFUH1YI88YWTMZU2IXK8G68Z9,3Z7ISHFUH1YI88YWTMZU2IXK8G68Z9,254548,254548,,,,
,,,,,,,,4,4.804,0,6,6,23,1,ASFBN5SC3SGDG,24,wolfe_006_L_vase-a_w_outline.jpg,wolfe_006_L_vase-b_w_outline.jpg,37,m,ASFBN5SC3SGDG,2020-10-30_13h55.01.186,MetaAwareness,2020.1.2,Win32,60,3LCXHSGDLU9ZUDOFLVMKAG1GDX4ES0,3Z7ISHFUH1YI88YWTMZU2IXK8G68Z9,US7Z8,US7Z8,3Z7ISHFUH1YI88YWTMZU2IXK8G68Z9,3Z7ISHFUH1YI88YWTMZU2IXK8G68Z9,254548,254548,,,,
,,,,,,,,3,5.404,0,7,7,13,1,ASFBN5SC3SGDG,14,wolfe_059_L_car-a_w_outline.jpg,wolfe_059_L_car-b_w_outline.jpg,37,m,ASFBN5SC3SGDG,2020-10-30_13h55.01.186,MetaAwareness,2020.1.2,Win32,60,3LCXHSGDLU9ZUDOFLVMKAG1GDX4ES0,3Z7ISHFUH1YI88YWTMZU2IXK8G68Z9,US7Z8,US7Z8,3Z7ISHFUH1YI88YWTMZU2IXK8G68Z9,3Z7ISHFUH1YI88YWTMZU2IXK8G68Z9,254548,254548,,,,
,,,,,,,,2,8.903,0,8,8,14,1,ASFBN5SC3SGDG,15,wolfe_063_L_laptop-a_w_outline.jpg,wolfe_063_L_laptop-b_w_outline.jpg,37,m,ASFBN5SC3SGDG,2020-10-30_13h55.01.186,MetaAwareness,2020.1.2,Win32,60,3LCXHSGDLU9ZUDOFLVMKAG1GDX4ES0,3Z7ISHFUH1YI88YWTMZU2IXK8G68Z9,US7Z8,US7Z8,3Z7ISHFUH1YI88YWTMZU2IXK8G68Z9,3Z7ISHFUH1YI88YWTMZU2IXK8G68Z9,254548,254548,,,,
,,,,,,,,5,4.692,0,9,9,6,1,ASFBN5SC3SGDG,7,wolfe_005_L_mirror-a_w_outline.jpg,wolfe_005_L_mirror-b_w_outline.jpg,37,m,ASFBN5SC3SGDG,2020-10-30_13h55.01.186,MetaAwareness,2020.1.2,Win32,60,3LCXHSGDLU9ZUDOFLVMKAG1GDX4ES0,3Z7ISHFUH1YI88YWTMZU2IXK8G68Z9,US7Z8,US7Z8,3Z7ISHFUH1YI88YWTMZU2IXK8G68Z9,3Z7ISHFUH1YI88YWTMZU2IXK8G68Z9,254548,254548,,,,
,,,,,,,,1,8.351,0,10,10,2,1,ASFBN5SC3SGDG,3,wolfe_115_L_pot-a_w_outline.jpg,wolfe_115_L_pot-b_w_outline.jpg,37,m,ASFBN5SC3SGDG,2020-10-30_13h55.01.186,MetaAwareness,2020.1.2,Win32,60,3LCXHSGDLU9ZUDOFLVMKAG1GDX4ES0,3Z7ISHFUH1YI88YWTMZU2IXK8G68Z9,US7Z8,US7Z8,3Z7ISHFUH1YI88YWTMZU2IXK8G68Z9,3Z7ISHFUH1YI88YWTMZU2IXK8G68Z9,254548,254548,,,,
,,,,,,,,3,9.601,0,11,11,8,1,ASFBN5SC3SGDG,10,wolfe_067_L_painting-a_w_outline.jpg,wolfe_067_L_painting-b_w_outline.jpg,37,m,ASFBN5SC3SGDG,2020-10-30_13h55.01.186,MetaAwareness,2020.1.2,Win32,60,3LCXHSGDLU9ZUDOFLVMKAG1GDX4ES0,3Z7ISHFUH1YI88YWTMZU2IXK8G68Z9,US7Z8,US7Z8,3Z7ISHFUH1YI88YWTMZU2IXK8G68Z9,3Z7ISHFUH1YI88YWTMZU2IXK8G68Z9,254548,254548,,,,
,,,,,,,,4,9.936,0,12,12,28,1,ASFBN5SC3SGDG,29,wolfe_055_L_carpet-a_w_outline.jpg,wolfe_055_L_carpet-b_w_outline.jpg,37,m,ASFBN5SC3SGDG,2020-10-30_13h55.01.186,MetaAwareness,2020.1.2,Win32,60,3LCXHSGDLU9ZUDOFLVMKAG1GDX4ES0,3Z7ISHFUH1YI88YWTMZU2IXK8G68Z9,US7Z8,US7Z8,3Z7ISHFUH1YI88YWTMZU2IXK8G68Z9,3Z7ISHFUH1YI88YWTMZU2IXK8G68Z9,254548,254548,,,,
,,,,,,,,1,5.936,0,13,13,25,1,ASFBN5SC3SGDG,26,wolfe_096_L_painting-a_w_outline.jpg,wolfe_096_L_painting-b_w_outline.jpg,37,m,ASFBN5SC3SGDG,2020-10-30_13h55.01.186,MetaAwareness,2020.1.2,Win32,60,3LCXHSGDLU9ZUDOFLVMKAG1GDX4ES0,3Z7ISHFUH1YI88YWTMZU2IXK8G68Z9,US7Z8,US7Z8,3Z7ISHFUH1YI88YWTMZU2IXK8G68Z9,3Z7ISHFUH1YI88YWTMZU2IXK8G68Z9,254548,254548,,,,
,,,,,,,,3,10.138,0,14,14,29,1,ASFBN5SC3SGDG,30,wolfe_024_L_towels-a_w_outline.jpg,wolfe_024_L_towels-b_w_outline.jpg,37,m,ASFBN5SC3SGDG,2020-10-30_13h55.01.186,MetaAwareness,2020.1.2,Win32,60,3LCXHSGDLU9ZUDOFLVMKAG1GDX4ES0,3Z7ISHFUH1YI88YWTMZU2IXK8G68Z9,US7Z8,US7Z8,3Z7ISHFUH1YI88YWTMZU2IXK8G68Z9,3Z7ISHFUH1YI88YWTMZU2IXK8G68Z9,254548,254548,,,,
,,,,,,,,1,7.702,0,15,15,12,1,ASFBN5SC3SGDG,13,wolfe_043_L_clock-a_w_outline.jpg,wolfe_043_L_clock-b_w_outline.jpg,37,m,ASFBN5SC3SGDG,2020-10-30_13h55.01.186,MetaAwareness,2020.1.2,Win32,60,3LCXHSGDLU9ZUDOFLVMKAG1GDX4ES0,3Z7ISHFUH1YI88YWTMZU2IXK8G68Z9,US7Z8,US7Z8,3Z7ISHFUH1YI88YWTMZU2IXK8G68Z9,3Z7ISHFUH1YI88YWTMZU2IXK8G68Z9,254548,254548,,,,
,,,,,,,,2,5.724,0,16,16,11,1,ASFBN5SC3SGDG,12,wolfe_071_L_art-a_w_outline.jpg,wolfe_071_L_art-b_w_outline.jpg,37,m,ASFBN5SC3SGDG,2020-10-30_13h55.01.186,MetaAwareness,2020.1.2,Win32,60,3LCXHSGDLU9ZUDOFLVMKAG1GDX4ES0,3Z7ISHFUH1YI88YWTMZU2IXK8G68Z9,US7Z8,US7Z8,3Z7ISHFUH1YI88YWTMZU2IXK8G68Z9,3Z7ISHFUH1YI88YWTMZU2IXK8G68Z9,254548,254548,,,,
,,,,,,,,1,11.2,0,17,17,24,1,ASFBN5SC3SGDG,25,wolfe_125_L_sofa-a_w_outline.jpg,wolfe_125_L_sofa-b_w_outline.jpg,37,m,ASFBN5SC3SGDG,2020-10-30_13h55.01.186,MetaAwareness,2020.1.2,Win32,60,3LCXHSGDLU9ZUDOFLVMKAG1GDX4ES0,3Z7ISHFUH1YI88YWTMZU2IXK8G68Z9,US7Z8,US7Z8,3Z7ISHFUH1YI88YWTMZU2IXK8G68Z9,3Z7ISHFUH1YI88YWTMZU2IXK8G68Z9,254548,254548,,,,
,,,,,,,,2,35.795,0,18,18,21,1,ASFBN5SC3SGDG,22,wolfe_104_L_bottle-a_w_outline.jpg,wolfe_104_L_bottle-b_w_outline.jpg,37,m,ASFBN5SC3SGDG,2020-10-30_13h55.01.186,MetaAwareness,2020.1.2,Win32,60,3LCXHSGDLU9ZUDOFLVMKAG1GDX4ES0,3Z7ISHFUH1YI88YWTMZU2IXK8G68Z9,US7Z8,US7Z8,3Z7ISHFUH1YI88YWTMZU2IXK8G68Z9,3Z7ISHFUH1YI88YWTMZU2IXK8G68Z9,254548,254548,,,,
,,,,,,,,3,5.92,0,19,19,3,1,ASFBN5SC3SGDG,4,wolfe_021_L_keyboard-a_w_outline.jpg,wolfe_021_L_keyboard-b_w_outline.jpg,37,m,ASFBN5SC3SGDG,2020-10-30_13h55.01.186,MetaAwareness,2020.1.2,Win32,60,3LCXHSGDLU9ZUDOFLVMKAG1GDX4ES0,3Z7ISHFUH1YI88YWTMZU2IXK8G68Z9,US7Z8,US7Z8,3Z7ISHFUH1YI88YWTMZU2IXK8G68Z9,3Z7ISHFUH1YI88YWTMZU2IXK8G68Z9,254548,254548,,,,
,,,,,,,,4,4.285,0,20,20,19,1,ASFBN5SC3SGDG,20,wolfe_074_L_book-a_w_outline.jpg,wolfe_074_L_book-b_w_outline.jpg,37,m,ASFBN5SC3SGDG,2020-10-30_13h55.01.186,MetaAwareness,2020.1.2,Win32,60,3LCXHSGDLU9ZUDOFLVMKAG1GDX4ES0,3Z7ISHFUH1YI88YWTMZU2IXK8G68Z9,US7Z8,US7Z8,3Z7ISHFUH1YI88YWTMZU2IXK8G68Z9,3Z7ISHFUH1YI88YWTMZU2IXK8G68Z9,254548,254548,,,,
,,,,,,,,4,4.604,0,21,21,20,1,ASFBN5SC3SGDG,21,wolfe_039_L_ventilator-a_w_outline.jpg,wolfe_039_L_ventilator-b_w_outline.jpg,37,m,ASFBN5SC3SGDG,2020-10-30_13h55.01.186,MetaAwareness,2020.1.2,Win32,60,3LCXHSGDLU9ZUDOFLVMKAG1GDX4ES0,3Z7ISHFUH1YI88YWTMZU2IXK8G68Z9,US7Z8,US7Z8,3Z7ISHFUH1YI88YWTMZU2IXK8G68Z9,3Z7ISHFUH1YI88YWTMZU2IXK8G68Z9,254548,254548,,,,
,,,,,,,,2,7.554,0,22,22,18,1,ASFBN5SC3SGDG,19,wolfe_077_L_footrest-a_w_outline.jpg,wolfe_077_L_footrest-b_w_outline.jpg,37,m,ASFBN5SC3SGDG,2020-10-30_13h55.01.186,MetaAwareness,2020.1.2,Win32,60,3LCXHSGDLU9ZUDOFLVMKAG1GDX4ES0,3Z7ISHFUH1YI88YWTMZU2IXK8G68Z9,US7Z8,US7Z8,3Z7ISHFUH1YI88YWTMZU2IXK8G68Z9,3Z7ISHFUH1YI88YWTMZU2IXK8G68Z9,254548,254548,,,,
,,,,,,,,2,6.19,0,23,23,17,1,ASFBN5SC3SGDG,18,wolfe_088_L_clock-a_w_outline.jpg,wolfe_088_L_clock-b_w_outline.jpg,37,m,ASFBN5SC3SGDG,2020-10-30_13h55.01.186,MetaAwareness,2020.1.2,Win32,60,3LCXHSGDLU9ZUDOFLVMKAG1GDX4ES0,3Z7ISHFUH1YI88YWTMZU2IXK8G68Z9,US7Z8,US7Z8,3Z7ISHFUH1YI88YWTMZU2IXK8G68Z9,3Z7ISHFUH1YI88YWTMZU2IXK8G68Z9,254548,254548,,,,
,,,,,,,,1,6.486,0,24,24,27,1,ASFBN5SC3SGDG,28,wolfe_010_L_candle-a_w_outline.jpg,wolfe_010_L_candle-b_w_outline.jpg,37,m,ASFBN5SC3SGDG,2020-10-30_13h55.01.186,MetaAwareness,2020.1.2,Win32,60,3LCXHSGDLU9ZUDOFLVMKAG1GDX4ES0,3Z7ISHFUH1YI88YWTMZU2IXK8G68Z9,US7Z8,US7Z8,3Z7ISHFUH1YI88YWTMZU2IXK8G68Z9,3Z7ISHFUH1YI88YWTMZU2IXK8G68Z9,254548,254548,,,,
,,,,,,,,5,8.984,0,25,25,5,1,ASFBN5SC3SGDG,6,wolfe_119_L_painting-a_w_outline.jpg,wolfe_119_L_painting-b_w_outline.jpg,37,m,ASFBN5SC3SGDG,2020-10-30_13h55.01.186,MetaAwareness,2020.1.2,Win32,60,3LCXHSGDLU9ZUDOFLVMKAG1GDX4ES0,3Z7ISHFUH1YI88YWTMZU2IXK8G68Z9,US7Z8,US7Z8,3Z7ISHFUH1YI88YWTMZU2IXK8G68Z9,3Z7ISHFUH1YI88YWTMZU2IXK8G68Z9,254548,254548,,,,
,,,,,,,,5,3.906,0,26,26,22,1,ASFBN5SC3SGDG,23,wolfe_117_L_plant_sized-a_w_outline.jpg,wolfe_117_L_plant_sized-b_w_outline.jpg,37,m,ASFBN5SC3SGDG,2020-10-30_13h55.01.186,MetaAwareness,2020.1.2,Win32,60,3LCXHSGDLU9ZUDOFLVMKAG1GDX4ES0,3Z7ISHFUH1YI88YWTMZU2IXK8G68Z9,US7Z8,US7Z8,3Z7ISHFUH1YI88YWTMZU2IXK8G68Z9,3Z7ISHFUH1YI88YWTMZU2IXK8G68Z9,254548,254548,,,,
,,,,,,,,5,5.153,0,27,27,15,1,ASFBN5SC3SGDG,16,wolfe_042_L_tap-a_w_outline.jpg,wolfe_042_L_tap-b_w_outline.jpg,37,m,ASFBN5SC3SGDG,2020-10-30_13h55.01.186,MetaAwareness,2020.1.2,Win32,60,3LCXHSGDLU9ZUDOFLVMKAG1GDX4ES0,3Z7ISHFUH1YI88YWTMZU2IXK8G68Z9,US7Z8,US7Z8,3Z7ISHFUH1YI88YWTMZU2IXK8G68Z9,3Z7ISHFUH1YI88YWTMZU2IXK8G68Z9,254548,254548,,,,
,,,,,,,,3,11.784,0,28,28,0,1,ASFBN5SC3SGDG,1,wolfe_101_L_cup-a_w_outline.jpg,wolfe_101_L_cup-b_w_outline.jpg,37,m,ASFBN5SC3SGDG,2020-10-30_13h55.01.186,MetaAwareness,2020.1.2,Win32,60,3LCXHSGDLU9ZUDOFLVMKAG1GDX4ES0,3Z7ISHFUH1YI88YWTMZU2IXK8G68Z9,US7Z8,US7Z8,3Z7ISHFUH1YI88YWTMZU2IXK8G68Z9,3Z7ISHFUH1YI88YWTMZU2IXK8G68Z9,254548,254548,,,,
,,,,,,,,4,5.02,0,29,29,4,1,ASFBN5SC3SGDG,5,wolfe_116_L_basket-a_w_outline.jpg,wolfe_116_L_basket-b_w_outline.jpg,37,m,ASFBN5SC3SGDG,2020-10-30_13h55.01.186,MetaAwareness,2020.1.2,Win32,60,3LCXHSGDLU9ZUDOFLVMKAG1GDX4ES0,3Z7ISHFUH1YI88YWTMZU2IXK8G68Z9,US7Z8,US7Z8,3Z7ISHFUH1YI88YWTMZU2IXK8G68Z9,3Z7ISHFUH1YI88YWTMZU2IXK8G68Z9,254548,254548,,,,
,,,,,,,,,,,,,,,ASFBN5SC3SGDG,,,,37,m,ASFBN5SC3SGDG,2020-10-30_13h55.01.186,MetaAwareness,2020.1.2,Win32,60,3LCXHSGDLU9ZUDOFLVMKAG1GDX4ES0,3Z7ISHFUH1YI88YWTMZU2IXK8G68Z9,US7Z8,US7Z8,3Z7ISHFUH1YI88YWTMZU2IXK8G68Z9,3Z7ISHFUH1YI88YWTMZU2IXK8G68Z9,254548,254548,5,2.945,2,14.38
