consent_response.keys,consent_response.rt,key_resp_2.keys,key_resp_2.rt,Airplane_resp.keys,Airplane_resp.rt,Boat_resp.keys,Boat_resp.rt,user_resp.keys,user_resp.rt,trials.thisRepN,trials.thisTrialN,trials.thisN,trials.thisIndex,trials.ran,workerId,trial_num,image_a,image_b,age,gender (m/f),worker_ID,date,expName,psychopyVersion,OS,frameRate,hitId,assignmentId,a,tp_a,b,tp_b,c,tp_c,Cow_resp.keys,Cow_resp.rt,Garden_resp.keys,Garden_resp.rt
space,1.475885,space,16.372095,5,1.92706,5,0.845375,2,3.821785,0,0,0,4,1,AYYBMS4XQJ9AP,5,wolfe_061_R_glass-a_w_outline.jpg,wolfe_061_R_glass-b_w_outline.jpg,33,f,AYYBMS4XQJ9AP,2020-11-04_10h36.14.082,MetaAwareness,2020.1.2,Win32,60,3LCXHSGDLU9ZUDOFLVMKAG1GDX4ES0,3Z3ZLGNNSJXNTJRZU9LLK8D5OD6Q3R,NL3Z8,NL3Z8,3Z3ZLGNNSJXNTJRZU9LLK8D5OD6Q3R,3Z3ZLGNNSJXNTJRZU9LLK8D5OD6Q3R,254548,254548,,,,
,,,,,,,,3,2.96853,0,1,1,26,1,AYYBMS4XQJ9AP,27,wolfe_051_R_owl-a_w_outline.jpg,wolfe_051_R_owl-b_w_outline.jpg,33,f,AYYBMS4XQJ9AP,2020-11-04_10h36.14.082,MetaAwareness,2020.1.2,Win32,60,3LCXHSGDLU9ZUDOFLVMKAG1GDX4ES0,3Z3ZLGNNSJXNTJRZU9LLK8D5OD6Q3R,NL3Z8,NL3Z8,3Z3ZLGNNSJXNTJRZU9LLK8D5OD6Q3R,3Z3ZLGNNSJXNTJRZU9LLK8D5OD6Q3R,254548,254548,,,,
,,,,,,,,4,3.38501,0,2,2,9,1,AYYBMS4XQJ9AP,10,wolfe_014_R_lamp-a_w_outline.jpg,wolfe_014_R_lamp-b_w_outline.jpg,33,f,AYYBMS4XQJ9AP,2020-11-04_10h36.14.082,MetaAwareness,2020.1.2,Win32,60,3LCXHSGDLU9ZUDOFLVMKAG1GDX4ES0,3Z3ZLGNNSJXNTJRZU9LLK8D5OD6Q3R,NL3Z8,NL3Z8,3Z3ZLGNNSJXNTJRZU9LLK8D5OD6Q3R,3Z3ZLGNNSJXNTJRZU9LLK8D5OD6Q3R,254548,254548,,,,
,,,,,,,,4,3.79819,0,3,3,7,1,AYYBMS4XQJ9AP,8,wolfe_044_R_light-a_w_outline.jpg,wolfe_044_R_light-b_w_outline.jpg,33,f,AYYBMS4XQJ9AP,2020-11-04_10h36.14.082,MetaAwareness,2020.1.2,Win32,60,3LCXHSGDLU9ZUDOFLVMKAG1GDX4ES0,3Z3ZLGNNSJXNTJRZU9LLK8D5OD6Q3R,NL3Z8,NL3Z8,3Z3ZLGNNSJXNTJRZU9LLK8D5OD6Q3R,3Z3ZLGNNSJXNTJRZU9LLK8D5OD6Q3R,254548,254548,,,,
,,,,,,,,3,4.69108,0,4,4,5,1,AYYBMS4XQJ9AP,6,wolfe_089_R_poster-a_w_outline.jpg,wolfe_089_R_poster-b_w_outline.jpg,33,f,AYYBMS4XQJ9AP,2020-11-04_10h36.14.082,MetaAwareness,2020.1.2,Win32,60,3LCXHSGDLU9ZUDOFLVMKAG1GDX4ES0,3Z3ZLGNNSJXNTJRZU9LLK8D5OD6Q3R,NL3Z8,NL3Z8,3Z3ZLGNNSJXNTJRZU9LLK8D5OD6Q3R,3Z3ZLGNNSJXNTJRZU9LLK8D5OD6Q3R,254548,254548,,,,
,,,,,,,,3,4.590965,0,5,5,27,1,AYYBMS4XQJ9AP,28,wolfe_004_R_electricalgrid-a_w_outline.jpg,wolfe_004_R_electricalgrid-b_w_outline.jpg,33,f,AYYBMS4XQJ9AP,2020-11-04_10h36.14.082,MetaAwareness,2020.1.2,Win32,60,3LCXHSGDLU9ZUDOFLVMKAG1GDX4ES0,3Z3ZLGNNSJXNTJRZU9LLK8D5OD6Q3R,NL3Z8,NL3Z8,3Z3ZLGNNSJXNTJRZU9LLK8D5OD6Q3R,3Z3ZLGNNSJXNTJRZU9LLK8D5OD6Q3R,254548,254548,,,,
,,,,,,,,4,3.98323,0,6,6,24,1,AYYBMS4XQJ9AP,25,wolfe_123_R_pot-a_w_outline.jpg,wolfe_123_R_pot-b_w_outline.jpg,33,f,AYYBMS4XQJ9AP,2020-11-04_10h36.14.082,MetaAwareness,2020.1.2,Win32,60,3LCXHSGDLU9ZUDOFLVMKAG1GDX4ES0,3Z3ZLGNNSJXNTJRZU9LLK8D5OD6Q3R,NL3Z8,NL3Z8,3Z3ZLGNNSJXNTJRZU9LLK8D5OD6Q3R,3Z3ZLGNNSJXNTJRZU9LLK8D5OD6Q3R,254548,254548,,,,
,,,,,,,,5,3.16451,0,7,7,12,1,AYYBMS4XQJ9AP,13,wolfe_031_R_log-a_w_outline.jpg,wolfe_031_R_log-b_w_outline.jpg,33,f,AYYBMS4XQJ9AP,2020-11-04_10h36.14.082,MetaAwareness,2020.1.2,Win32,60,3LCXHSGDLU9ZUDOFLVMKAG1GDX4ES0,3Z3ZLGNNSJXNTJRZU9LLK8D5OD6Q3R,NL3Z8,NL3Z8,3Z3ZLGNNSJXNTJRZU9LLK8D5OD6Q3R,3Z3ZLGNNSJXNTJRZU9LLK8D5OD6Q3R,254548,254548,,,,
,,,,,,,,4,4.17001,0,8,8,10,1,AYYBMS4XQJ9AP,11,wolfe_024_R_towels-a_w_outline.jpg,wolfe_024_R_towels-b_w_outline.jpg,33,f,AYYBMS4XQJ9AP,2020-11-04_10h36.14.082,MetaAwareness,2020.1.2,Win32,60,3LCXHSGDLU9ZUDOFLVMKAG1GDX4ES0,3Z3ZLGNNSJXNTJRZU9LLK8D5OD6Q3R,NL3Z8,NL3Z8,3Z3ZLGNNSJXNTJRZU9LLK8D5OD6Q3R,3Z3ZLGNNSJXNTJRZU9LLK8D5OD6Q3R,254548,254548,,,,
,,,,,,,,5,3.120885,0,9,9,8,1,AYYBMS4XQJ9AP,9,wolfe_022_R_lamp-a_w_outline.jpg,wolfe_022_R_lamp-b_w_outline.jpg,33,f,AYYBMS4XQJ9AP,2020-11-04_10h36.14.082,MetaAwareness,2020.1.2,Win32,60,3LCXHSGDLU9ZUDOFLVMKAG1GDX4ES0,3Z3ZLGNNSJXNTJRZU9LLK8D5OD6Q3R,NL3Z8,NL3Z8,3Z3ZLGNNSJXNTJRZU9LLK8D5OD6Q3R,3Z3ZLGNNSJXNTJRZU9LLK8D5OD6Q3R,254548,254548,,,,
,,,,,,,,4,3.332335,0,10,10,19,1,AYYBMS4XQJ9AP,20,wolfe_060_R_pillow-a_w_outline.jpg,wolfe_060_R_pillow-b_w_outline.jpg,33,f,AYYBMS4XQJ9AP,2020-11-04_10h36.14.082,MetaAwareness,2020.1.2,Win32,60,3LCXHSGDLU9ZUDOFLVMKAG1GDX4ES0,3Z3ZLGNNSJXNTJRZU9LLK8D5OD6Q3R,NL3Z8,NL3Z8,3Z3ZLGNNSJXNTJRZU9LLK8D5OD6Q3R,3Z3ZLGNNSJXNTJRZU9LLK8D5OD6Q3R,254548,254548,,,,
,,,,,,,,4,3.884995,0,11,11,15,1,AYYBMS4XQJ9AP,16,wolfe_097_R_light-a_w_outline.jpg,wolfe_097_R_light-b_w_outline.jpg,33,f,AYYBMS4XQJ9AP,2020-11-04_10h36.14.082,MetaAwareness,2020.1.2,Win32,60,3LCXHSGDLU9ZUDOFLVMKAG1GDX4ES0,3Z3ZLGNNSJXNTJRZU9LLK8D5OD6Q3R,NL3Z8,NL3Z8,3Z3ZLGNNSJXNTJRZU9LLK8D5OD6Q3R,3Z3ZLGNNSJXNTJRZU9LLK8D5OD6Q3R,254548,254548,,,,
,,,,,,,,4,5.479515,0,12,12,11,1,AYYBMS4XQJ9AP,12,wolfe_079_R_bowl-a_w_outline.jpg,wolfe_079_R_bowl-b_w_outline.jpg,33,f,AYYBMS4XQJ9AP,2020-11-04_10h36.14.082,MetaAwareness,2020.1.2,Win32,60,3LCXHSGDLU9ZUDOFLVMKAG1GDX4ES0,3Z3ZLGNNSJXNTJRZU9LLK8D5OD6Q3R,NL3Z8,NL3Z8,3Z3ZLGNNSJXNTJRZU9LLK8D5OD6Q3R,3Z3ZLGNNSJXNTJRZU9LLK8D5OD6Q3R,254548,254548,,,,
,,,,,,,,4,4.68076,0,13,13,6,1,AYYBMS4XQJ9AP,7,wolfe_054_R_firewood-a_w_outline.jpg,wolfe_054_R_firewood-b_w_outline.jpg,33,f,AYYBMS4XQJ9AP,2020-11-04_10h36.14.082,MetaAwareness,2020.1.2,Win32,60,3LCXHSGDLU9ZUDOFLVMKAG1GDX4ES0,3Z3ZLGNNSJXNTJRZU9LLK8D5OD6Q3R,NL3Z8,NL3Z8,3Z3ZLGNNSJXNTJRZU9LLK8D5OD6Q3R,3Z3ZLGNNSJXNTJRZU9LLK8D5OD6Q3R,254548,254548,,,,
,,,,,,,,2,4.88891,0,14,14,1,1,AYYBMS4XQJ9AP,2,wolfe_030_R_drawer-a_w_outline.jpg,wolfe_030_R_drawer-b_w_outline.jpg,33,f,AYYBMS4XQJ9AP,2020-11-04_10h36.14.082,MetaAwareness,2020.1.2,Win32,60,3LCXHSGDLU9ZUDOFLVMKAG1GDX4ES0,3Z3ZLGNNSJXNTJRZU9LLK8D5OD6Q3R,NL3Z8,NL3Z8,3Z3ZLGNNSJXNTJRZU9LLK8D5OD6Q3R,3Z3ZLGNNSJXNTJRZU9LLK8D5OD6Q3R,254548,254548,,,,
,,,,,,,,4,3.28476,0,15,15,22,1,AYYBMS4XQJ9AP,23,wolfe_038_R_art-a_w_outline.jpg,wolfe_038_R_art-b_w_outline.jpg,33,f,AYYBMS4XQJ9AP,2020-11-04_10h36.14.082,MetaAwareness,2020.1.2,Win32,60,3LCXHSGDLU9ZUDOFLVMKAG1GDX4ES0,3Z3ZLGNNSJXNTJRZU9LLK8D5OD6Q3R,NL3Z8,NL3Z8,3Z3ZLGNNSJXNTJRZU9LLK8D5OD6Q3R,3Z3ZLGNNSJXNTJRZU9LLK8D5OD6Q3R,254548,254548,,,,
,,,,,,,,3,3.930355,0,16,16,13,1,AYYBMS4XQJ9AP,14,wolfe_001_R_mirror-a_w_outline.jpg,wolfe_001_R_mirror-b_w_outline.jpg,33,f,AYYBMS4XQJ9AP,2020-11-04_10h36.14.082,MetaAwareness,2020.1.2,Win32,60,3LCXHSGDLU9ZUDOFLVMKAG1GDX4ES0,3Z3ZLGNNSJXNTJRZU9LLK8D5OD6Q3R,NL3Z8,NL3Z8,3Z3ZLGNNSJXNTJRZU9LLK8D5OD6Q3R,3Z3ZLGNNSJXNTJRZU9LLK8D5OD6Q3R,254548,254548,,,,
,,,,,,,,3,5.608825,0,17,17,14,1,AYYBMS4XQJ9AP,15,wolfe_112_R_basket-a_w_outline.jpg,wolfe_112_R_basket-b_w_outline.jpg,33,f,AYYBMS4XQJ9AP,2020-11-04_10h36.14.082,MetaAwareness,2020.1.2,Win32,60,3LCXHSGDLU9ZUDOFLVMKAG1GDX4ES0,3Z3ZLGNNSJXNTJRZU9LLK8D5OD6Q3R,NL3Z8,NL3Z8,3Z3ZLGNNSJXNTJRZU9LLK8D5OD6Q3R,3Z3ZLGNNSJXNTJRZU9LLK8D5OD6Q3R,254548,254548,,,,
,,,,,,,,4,3.206915,0,18,18,20,1,AYYBMS4XQJ9AP,21,wolfe_050_R_book-a_w_outline.jpg,wolfe_050_R_book-b_w_outline.jpg,33,f,AYYBMS4XQJ9AP,2020-11-04_10h36.14.082,MetaAwareness,2020.1.2,Win32,60,3LCXHSGDLU9ZUDOFLVMKAG1GDX4ES0,3Z3ZLGNNSJXNTJRZU9LLK8D5OD6Q3R,NL3Z8,NL3Z8,3Z3ZLGNNSJXNTJRZU9LLK8D5OD6Q3R,3Z3ZLGNNSJXNTJRZU9LLK8D5OD6Q3R,254548,254548,,,,
,,,,,,,,1,5.016225,0,19,19,2,1,AYYBMS4XQJ9AP,3,wolfe_037_R_towel-a_w_outline.jpg,wolfe_037_R_towel-b_w_outline.jpg,33,f,AYYBMS4XQJ9AP,2020-11-04_10h36.14.082,MetaAwareness,2020.1.2,Win32,60,3LCXHSGDLU9ZUDOFLVMKAG1GDX4ES0,3Z3ZLGNNSJXNTJRZU9LLK8D5OD6Q3R,NL3Z8,NL3Z8,3Z3ZLGNNSJXNTJRZU9LLK8D5OD6Q3R,3Z3ZLGNNSJXNTJRZU9LLK8D5OD6Q3R,254548,254548,,,,
,,,,,,,,4,3.60109,0,20,20,28,1,AYYBMS4XQJ9AP,29,wolfe_083_R_knob-a_w_outline.jpg,wolfe_083_R_knob-b_w_outline.jpg,33,f,AYYBMS4XQJ9AP,2020-11-04_10h36.14.082,MetaAwareness,2020.1.2,Win32,60,3LCXHSGDLU9ZUDOFLVMKAG1GDX4ES0,3Z3ZLGNNSJXNTJRZU9LLK8D5OD6Q3R,NL3Z8,NL3Z8,3Z3ZLGNNSJXNTJRZU9LLK8D5OD6Q3R,3Z3ZLGNNSJXNTJRZU9LLK8D5OD6Q3R,254548,254548,,,,
,,,,,,,,1,3.71793,0,21,21,17,1,AYYBMS4XQJ9AP,18,wolfe_057_R_bin-a_w_outline.jpg,wolfe_057_R_bin-b_w_outline.jpg,33,f,AYYBMS4XQJ9AP,2020-11-04_10h36.14.082,MetaAwareness,2020.1.2,Win32,60,3LCXHSGDLU9ZUDOFLVMKAG1GDX4ES0,3Z3ZLGNNSJXNTJRZU9LLK8D5OD6Q3R,NL3Z8,NL3Z8,3Z3ZLGNNSJXNTJRZU9LLK8D5OD6Q3R,3Z3ZLGNNSJXNTJRZU9LLK8D5OD6Q3R,254548,254548,,,,
,,,,,,,,4,3.051525,0,22,22,23,1,AYYBMS4XQJ9AP,24,wolfe_015_R_ceilinglight-a_w_outline.jpg,wolfe_015_R_ceilinglight-b_w_outline.jpg,33,f,AYYBMS4XQJ9AP,2020-11-04_10h36.14.082,MetaAwareness,2020.1.2,Win32,60,3LCXHSGDLU9ZUDOFLVMKAG1GDX4ES0,3Z3ZLGNNSJXNTJRZU9LLK8D5OD6Q3R,NL3Z8,NL3Z8,3Z3ZLGNNSJXNTJRZU9LLK8D5OD6Q3R,3Z3ZLGNNSJXNTJRZU9LLK8D5OD6Q3R,254548,254548,,,,
,,,,,,,,4,3.442345,0,23,23,18,1,AYYBMS4XQJ9AP,19,wolfe_047_R_handle-a_w_outline.jpg,wolfe_047_R_handle-b_w_outline.jpg,33,f,AYYBMS4XQJ9AP,2020-11-04_10h36.14.082,MetaAwareness,2020.1.2,Win32,60,3LCXHSGDLU9ZUDOFLVMKAG1GDX4ES0,3Z3ZLGNNSJXNTJRZU9LLK8D5OD6Q3R,NL3Z8,NL3Z8,3Z3ZLGNNSJXNTJRZU9LLK8D5OD6Q3R,3Z3ZLGNNSJXNTJRZU9LLK8D5OD6Q3R,254548,254548,,,,
,,,,,,,,3,6.675435,0,24,24,16,1,AYYBMS4XQJ9AP,17,wolfe_101_R_cup-a_w_outline.jpg,wolfe_101_R_cup-b_w_outline.jpg,33,f,AYYBMS4XQJ9AP,2020-11-04_10h36.14.082,MetaAwareness,2020.1.2,Win32,60,3LCXHSGDLU9ZUDOFLVMKAG1GDX4ES0,3Z3ZLGNNSJXNTJRZU9LLK8D5OD6Q3R,NL3Z8,NL3Z8,3Z3ZLGNNSJXNTJRZU9LLK8D5OD6Q3R,3Z3ZLGNNSJXNTJRZU9LLK8D5OD6Q3R,254548,254548,,,,
,,,,,,,,4,6.562265,0,25,25,21,1,AYYBMS4XQJ9AP,22,wolfe_059_R_car-a_w_outline.jpg,wolfe_059_R_car-b_w_outline.jpg,33,f,AYYBMS4XQJ9AP,2020-11-04_10h36.14.082,MetaAwareness,2020.1.2,Win32,60,3LCXHSGDLU9ZUDOFLVMKAG1GDX4ES0,3Z3ZLGNNSJXNTJRZU9LLK8D5OD6Q3R,NL3Z8,NL3Z8,3Z3ZLGNNSJXNTJRZU9LLK8D5OD6Q3R,3Z3ZLGNNSJXNTJRZU9LLK8D5OD6Q3R,254548,254548,,,,
,,,,,,,,4,3.23314,0,26,26,0,1,AYYBMS4XQJ9AP,1,wolfe_058_R_clutch-a_w_outline.jpg,wolfe_058_R_clutch-b_w_outline.jpg,33,f,AYYBMS4XQJ9AP,2020-11-04_10h36.14.082,MetaAwareness,2020.1.2,Win32,60,3LCXHSGDLU9ZUDOFLVMKAG1GDX4ES0,3Z3ZLGNNSJXNTJRZU9LLK8D5OD6Q3R,NL3Z8,NL3Z8,3Z3ZLGNNSJXNTJRZU9LLK8D5OD6Q3R,3Z3ZLGNNSJXNTJRZU9LLK8D5OD6Q3R,254548,254548,,,,
,,,,,,,,5,2.61804,0,27,27,29,1,AYYBMS4XQJ9AP,30,wolfe_041_R_fruit-a_w_outline.jpg,wolfe_041_R_fruit-b_w_outline.jpg,33,f,AYYBMS4XQJ9AP,2020-11-04_10h36.14.082,MetaAwareness,2020.1.2,Win32,60,3LCXHSGDLU9ZUDOFLVMKAG1GDX4ES0,3Z3ZLGNNSJXNTJRZU9LLK8D5OD6Q3R,NL3Z8,NL3Z8,3Z3ZLGNNSJXNTJRZU9LLK8D5OD6Q3R,3Z3ZLGNNSJXNTJRZU9LLK8D5OD6Q3R,254548,254548,,,,
,,,,,,,,2,3.399035,0,28,28,3,1,AYYBMS4XQJ9AP,4,wolfe_088_R_clock-a_w_outline.jpg,wolfe_088_R_clock-b_w_outline.jpg,33,f,AYYBMS4XQJ9AP,2020-11-04_10h36.14.082,MetaAwareness,2020.1.2,Win32,60,3LCXHSGDLU9ZUDOFLVMKAG1GDX4ES0,3Z3ZLGNNSJXNTJRZU9LLK8D5OD6Q3R,NL3Z8,NL3Z8,3Z3ZLGNNSJXNTJRZU9LLK8D5OD6Q3R,3Z3ZLGNNSJXNTJRZU9LLK8D5OD6Q3R,254548,254548,,,,
,,,,,,,,4,2.950845,0,29,29,25,1,AYYBMS4XQJ9AP,26,wolfe_080_R_plant-a_w_outline.jpg,wolfe_080_R_plant-b_w_outline.jpg,33,f,AYYBMS4XQJ9AP,2020-11-04_10h36.14.082,MetaAwareness,2020.1.2,Win32,60,3LCXHSGDLU9ZUDOFLVMKAG1GDX4ES0,3Z3ZLGNNSJXNTJRZU9LLK8D5OD6Q3R,NL3Z8,NL3Z8,3Z3ZLGNNSJXNTJRZU9LLK8D5OD6Q3R,3Z3ZLGNNSJXNTJRZU9LLK8D5OD6Q3R,254548,254548,,,,
,,,,,,,,,,,,,,,AYYBMS4XQJ9AP,,,,33,f,AYYBMS4XQJ9AP,2020-11-04_10h36.14.082,MetaAwareness,2020.1.2,Win32,60,3LCXHSGDLU9ZUDOFLVMKAG1GDX4ES0,3Z3ZLGNNSJXNTJRZU9LLK8D5OD6Q3R,NL3Z8,NL3Z8,3Z3ZLGNNSJXNTJRZU9LLK8D5OD6Q3R,3Z3ZLGNNSJXNTJRZU9LLK8D5OD6Q3R,254548,254548,5,1.09733,1,4.65965
