consent_response.keys,consent_response.rt,key_resp_2.keys,key_resp_2.rt,Airplane_resp.keys,Airplane_resp.rt,Boat_resp.keys,Boat_resp.rt,user_resp.keys,user_resp.rt,trials.thisRepN,trials.thisTrialN,trials.thisN,trials.thisIndex,trials.ran,workerId,trial_num,image_a,image_b,age,gender (m/f),worker_ID,date,expName,psychopyVersion,OS,frameRate,hitId,assignmentId,a,tp_a,b,tp_b,c,tp_c,Cow_resp.keys,Cow_resp.rt,Garden_resp.keys,Garden_resp.rt
space,13.492415,space,28.812895,5,4.49675,5,1.53124,1,11.215675,0,0,0,10,1,A1B76WYZ47BQJ,80,wolfe_040_R_painting-a_w_outline.jpg,wolfe_040_R_painting-b_w_outline.jpg,54,m,A1B76WYZ47BQJ,2020-12-08_16h23.16.136,MetaAwareness,2020.1.2,Win32,60,3SV8KD29L5VZHP23C9RV44BOLKIKZ0,33PPO7FECWI8UD5DAQMOOF8WSUJDIC,EOP38,EOP38,33PPO7FECWI8UD5DAQMOOF8WSUJDIC,33PPO7FECWI8UD5DAQMOOF8WSUJDIC,262738,262738,,,,
,,,,,,,,5,5.13723,0,1,1,5,1,A1B76WYZ47BQJ,52,wolfe_026_R_rack-a_w_outline.jpg,wolfe_026_R_rack-b_w_outline.jpg,54,m,A1B76WYZ47BQJ,2020-12-08_16h23.16.136,MetaAwareness,2020.1.2,Win32,60,3SV8KD29L5VZHP23C9RV44BOLKIKZ0,33PPO7FECWI8UD5DAQMOOF8WSUJDIC,EOP38,EOP38,33PPO7FECWI8UD5DAQMOOF8WSUJDIC,33PPO7FECWI8UD5DAQMOOF8WSUJDIC,262738,262738,,,,
,,,,,,,,5,5.589755,0,2,2,25,1,A1B76WYZ47BQJ,218,wolfe_109_R_pillow-a_w_outline.jpg,wolfe_109_R_pillow-b_w_outline.jpg,54,m,A1B76WYZ47BQJ,2020-12-08_16h23.16.136,MetaAwareness,2020.1.2,Win32,60,3SV8KD29L5VZHP23C9RV44BOLKIKZ0,33PPO7FECWI8UD5DAQMOOF8WSUJDIC,EOP38,EOP38,33PPO7FECWI8UD5DAQMOOF8WSUJDIC,33PPO7FECWI8UD5DAQMOOF8WSUJDIC,262738,262738,,,,
,,,,,,,,5,2.403215,0,3,3,2,1,A1B76WYZ47BQJ,10,wolfe_005_R_mirror-a_w_outline.jpg,wolfe_005_R_mirror-b_w_outline.jpg,54,m,A1B76WYZ47BQJ,2020-12-08_16h23.16.136,MetaAwareness,2020.1.2,Win32,60,3SV8KD29L5VZHP23C9RV44BOLKIKZ0,33PPO7FECWI8UD5DAQMOOF8WSUJDIC,EOP38,EOP38,33PPO7FECWI8UD5DAQMOOF8WSUJDIC,33PPO7FECWI8UD5DAQMOOF8WSUJDIC,262738,262738,,,,
,,,,,,,,3,5.640075,0,4,4,12,1,A1B76WYZ47BQJ,100,wolfe_050_R_book-a_w_outline.jpg,wolfe_050_R_book-b_w_outline.jpg,54,m,A1B76WYZ47BQJ,2020-12-08_16h23.16.136,MetaAwareness,2020.1.2,Win32,60,3SV8KD29L5VZHP23C9RV44BOLKIKZ0,33PPO7FECWI8UD5DAQMOOF8WSUJDIC,EOP38,EOP38,33PPO7FECWI8UD5DAQMOOF8WSUJDIC,33PPO7FECWI8UD5DAQMOOF8WSUJDIC,262738,262738,,,,
,,,,,,,,5,3.452485,0,5,5,14,1,A1B76WYZ47BQJ,112,wolfe_056_R_comforter-a_w_outline.jpg,wolfe_056_R_comforter-b_w_outline.jpg,54,m,A1B76WYZ47BQJ,2020-12-08_16h23.16.136,MetaAwareness,2020.1.2,Win32,60,3SV8KD29L5VZHP23C9RV44BOLKIKZ0,33PPO7FECWI8UD5DAQMOOF8WSUJDIC,EOP38,EOP38,33PPO7FECWI8UD5DAQMOOF8WSUJDIC,33PPO7FECWI8UD5DAQMOOF8WSUJDIC,262738,262738,,,,
,,,,,,,,5,3.80262,0,6,6,27,1,A1B76WYZ47BQJ,230,wolfe_115_R_pot-a_w_outline.jpg,wolfe_115_R_pot-b_w_outline.jpg,54,m,A1B76WYZ47BQJ,2020-12-08_16h23.16.136,MetaAwareness,2020.1.2,Win32,60,3SV8KD29L5VZHP23C9RV44BOLKIKZ0,33PPO7FECWI8UD5DAQMOOF8WSUJDIC,EOP38,EOP38,33PPO7FECWI8UD5DAQMOOF8WSUJDIC,33PPO7FECWI8UD5DAQMOOF8WSUJDIC,262738,262738,,,,
,,,,,,,,2,5.60948,0,7,7,9,1,A1B76WYZ47BQJ,74,wolfe_037_R_towel-a_w_outline.jpg,wolfe_037_R_towel-b_w_outline.jpg,54,m,A1B76WYZ47BQJ,2020-12-08_16h23.16.136,MetaAwareness,2020.1.2,Win32,60,3SV8KD29L5VZHP23C9RV44BOLKIKZ0,33PPO7FECWI8UD5DAQMOOF8WSUJDIC,EOP38,EOP38,33PPO7FECWI8UD5DAQMOOF8WSUJDIC,33PPO7FECWI8UD5DAQMOOF8WSUJDIC,262738,262738,,,,
,,,,,,,,1,4.30516,0,8,8,6,1,A1B76WYZ47BQJ,54,wolfe_027_R_soapdish-a_w_outline.jpg,wolfe_027_R_soapdish-b_w_outline.jpg,54,m,A1B76WYZ47BQJ,2020-12-08_16h23.16.136,MetaAwareness,2020.1.2,Win32,60,3SV8KD29L5VZHP23C9RV44BOLKIKZ0,33PPO7FECWI8UD5DAQMOOF8WSUJDIC,EOP38,EOP38,33PPO7FECWI8UD5DAQMOOF8WSUJDIC,33PPO7FECWI8UD5DAQMOOF8WSUJDIC,262738,262738,,,,
,,,,,,,,1,2.53922,0,9,9,18,1,A1B76WYZ47BQJ,170,wolfe_085_R_switchboard-a_w_outline.jpg,wolfe_085_R_switchboard-b_w_outline.jpg,54,m,A1B76WYZ47BQJ,2020-12-08_16h23.16.136,MetaAwareness,2020.1.2,Win32,60,3SV8KD29L5VZHP23C9RV44BOLKIKZ0,33PPO7FECWI8UD5DAQMOOF8WSUJDIC,EOP38,EOP38,33PPO7FECWI8UD5DAQMOOF8WSUJDIC,33PPO7FECWI8UD5DAQMOOF8WSUJDIC,262738,262738,,,,
,,,,,,,,5,3.55633,0,10,10,4,1,A1B76WYZ47BQJ,46,wolfe_023_R_remote-a_w_outline.jpg,wolfe_023_R_remote-b_w_outline.jpg,54,m,A1B76WYZ47BQJ,2020-12-08_16h23.16.136,MetaAwareness,2020.1.2,Win32,60,3SV8KD29L5VZHP23C9RV44BOLKIKZ0,33PPO7FECWI8UD5DAQMOOF8WSUJDIC,EOP38,EOP38,33PPO7FECWI8UD5DAQMOOF8WSUJDIC,33PPO7FECWI8UD5DAQMOOF8WSUJDIC,262738,262738,,,,
,,,,,,,,3,4.82135,0,11,11,7,1,A1B76WYZ47BQJ,64,wolfe_032_R_bottle-a_w_outline.jpg,wolfe_032_R_bottle-b_w_outline.jpg,54,m,A1B76WYZ47BQJ,2020-12-08_16h23.16.136,MetaAwareness,2020.1.2,Win32,60,3SV8KD29L5VZHP23C9RV44BOLKIKZ0,33PPO7FECWI8UD5DAQMOOF8WSUJDIC,EOP38,EOP38,33PPO7FECWI8UD5DAQMOOF8WSUJDIC,33PPO7FECWI8UD5DAQMOOF8WSUJDIC,262738,262738,,,,
,,,,,,,,3,3.95263,0,12,12,1,1,A1B76WYZ47BQJ,6,wolfe_003_R_ducks-a_w_outline.jpg,wolfe_003_R_ducks-b_w_outline.jpg,54,m,A1B76WYZ47BQJ,2020-12-08_16h23.16.136,MetaAwareness,2020.1.2,Win32,60,3SV8KD29L5VZHP23C9RV44BOLKIKZ0,33PPO7FECWI8UD5DAQMOOF8WSUJDIC,EOP38,EOP38,33PPO7FECWI8UD5DAQMOOF8WSUJDIC,33PPO7FECWI8UD5DAQMOOF8WSUJDIC,262738,262738,,,,
,,,,,,,,4,3.81922,0,13,13,20,1,A1B76WYZ47BQJ,180,wolfe_090_R_lamp-a_w_outline.jpg,wolfe_090_R_lamp-b_w_outline.jpg,54,m,A1B76WYZ47BQJ,2020-12-08_16h23.16.136,MetaAwareness,2020.1.2,Win32,60,3SV8KD29L5VZHP23C9RV44BOLKIKZ0,33PPO7FECWI8UD5DAQMOOF8WSUJDIC,EOP38,EOP38,33PPO7FECWI8UD5DAQMOOF8WSUJDIC,33PPO7FECWI8UD5DAQMOOF8WSUJDIC,262738,262738,,,,
,,,,,,,,4,3.295345,0,14,14,0,1,A1B76WYZ47BQJ,2,wolfe_001_R_mirror-a_w_outline.jpg,wolfe_001_R_mirror-b_w_outline.jpg,54,m,A1B76WYZ47BQJ,2020-12-08_16h23.16.136,MetaAwareness,2020.1.2,Win32,60,3SV8KD29L5VZHP23C9RV44BOLKIKZ0,33PPO7FECWI8UD5DAQMOOF8WSUJDIC,EOP38,EOP38,33PPO7FECWI8UD5DAQMOOF8WSUJDIC,33PPO7FECWI8UD5DAQMOOF8WSUJDIC,262738,262738,,,,
,,,,,,,,5,3.70246,0,15,15,15,1,A1B76WYZ47BQJ,134,wolfe_067_R_painting-a_w_outline.jpg,wolfe_067_R_painting-b_w_outline.jpg,54,m,A1B76WYZ47BQJ,2020-12-08_16h23.16.136,MetaAwareness,2020.1.2,Win32,60,3SV8KD29L5VZHP23C9RV44BOLKIKZ0,33PPO7FECWI8UD5DAQMOOF8WSUJDIC,EOP38,EOP38,33PPO7FECWI8UD5DAQMOOF8WSUJDIC,33PPO7FECWI8UD5DAQMOOF8WSUJDIC,262738,262738,,,,
,,,,,,,,5,3.552245,0,16,16,13,1,A1B76WYZ47BQJ,102,wolfe_051_R_owl-a_w_outline.jpg,wolfe_051_R_owl-b_w_outline.jpg,54,m,A1B76WYZ47BQJ,2020-12-08_16h23.16.136,MetaAwareness,2020.1.2,Win32,60,3SV8KD29L5VZHP23C9RV44BOLKIKZ0,33PPO7FECWI8UD5DAQMOOF8WSUJDIC,EOP38,EOP38,33PPO7FECWI8UD5DAQMOOF8WSUJDIC,33PPO7FECWI8UD5DAQMOOF8WSUJDIC,262738,262738,,,,
,,,,,,,,3,4.2096,0,17,17,8,1,A1B76WYZ47BQJ,72,wolfe_036_R_bowl-a_w_outline.jpg,wolfe_036_R_bowl-b_w_outline.jpg,54,m,A1B76WYZ47BQJ,2020-12-08_16h23.16.136,MetaAwareness,2020.1.2,Win32,60,3SV8KD29L5VZHP23C9RV44BOLKIKZ0,33PPO7FECWI8UD5DAQMOOF8WSUJDIC,EOP38,EOP38,33PPO7FECWI8UD5DAQMOOF8WSUJDIC,33PPO7FECWI8UD5DAQMOOF8WSUJDIC,262738,262738,,,,
,,,,,,,,1,3.753725,0,18,18,21,1,A1B76WYZ47BQJ,192,wolfe_096_R_painting-a_w_outline.jpg,wolfe_096_R_painting-b_w_outline.jpg,54,m,A1B76WYZ47BQJ,2020-12-08_16h23.16.136,MetaAwareness,2020.1.2,Win32,60,3SV8KD29L5VZHP23C9RV44BOLKIKZ0,33PPO7FECWI8UD5DAQMOOF8WSUJDIC,EOP38,EOP38,33PPO7FECWI8UD5DAQMOOF8WSUJDIC,33PPO7FECWI8UD5DAQMOOF8WSUJDIC,262738,262738,,,,
,,,,,,,,2,4.48479,0,19,19,23,1,A1B76WYZ47BQJ,206,wolfe_103_R_hook-a_w_outline.jpg,wolfe_103_R_hook-b_w_outline.jpg,54,m,A1B76WYZ47BQJ,2020-12-08_16h23.16.136,MetaAwareness,2020.1.2,Win32,60,3SV8KD29L5VZHP23C9RV44BOLKIKZ0,33PPO7FECWI8UD5DAQMOOF8WSUJDIC,EOP38,EOP38,33PPO7FECWI8UD5DAQMOOF8WSUJDIC,33PPO7FECWI8UD5DAQMOOF8WSUJDIC,262738,262738,,,,
,,,,,,,,4,3.559945,0,20,20,11,1,A1B76WYZ47BQJ,90,wolfe_045_R_musicdock-a_w_outline.jpg,wolfe_045_R_musicdock-b_w_outline.jpg,54,m,A1B76WYZ47BQJ,2020-12-08_16h23.16.136,MetaAwareness,2020.1.2,Win32,60,3SV8KD29L5VZHP23C9RV44BOLKIKZ0,33PPO7FECWI8UD5DAQMOOF8WSUJDIC,EOP38,EOP38,33PPO7FECWI8UD5DAQMOOF8WSUJDIC,33PPO7FECWI8UD5DAQMOOF8WSUJDIC,262738,262738,,,,
,,,,,,,,5,5.112735,0,21,21,19,1,A1B76WYZ47BQJ,178,wolfe_089_R_poster-a_w_outline.jpg,wolfe_089_R_poster-b_w_outline.jpg,54,m,A1B76WYZ47BQJ,2020-12-08_16h23.16.136,MetaAwareness,2020.1.2,Win32,60,3SV8KD29L5VZHP23C9RV44BOLKIKZ0,33PPO7FECWI8UD5DAQMOOF8WSUJDIC,EOP38,EOP38,33PPO7FECWI8UD5DAQMOOF8WSUJDIC,33PPO7FECWI8UD5DAQMOOF8WSUJDIC,262738,262738,,,,
,,,,,,,,4,6.235935,0,22,22,24,1,A1B76WYZ47BQJ,208,wolfe_104_R_bottle-a_w_outline.jpg,wolfe_104_R_bottle-b_w_outline.jpg,54,m,A1B76WYZ47BQJ,2020-12-08_16h23.16.136,MetaAwareness,2020.1.2,Win32,60,3SV8KD29L5VZHP23C9RV44BOLKIKZ0,33PPO7FECWI8UD5DAQMOOF8WSUJDIC,EOP38,EOP38,33PPO7FECWI8UD5DAQMOOF8WSUJDIC,33PPO7FECWI8UD5DAQMOOF8WSUJDIC,262738,262738,,,,
,,,,,,,,5,3.176765,0,23,23,29,1,A1B76WYZ47BQJ,248,wolfe_124_R_vase-a_w_outline.jpg,wolfe_124_R_vase-b_w_outline.jpg,54,m,A1B76WYZ47BQJ,2020-12-08_16h23.16.136,MetaAwareness,2020.1.2,Win32,60,3SV8KD29L5VZHP23C9RV44BOLKIKZ0,33PPO7FECWI8UD5DAQMOOF8WSUJDIC,EOP38,EOP38,33PPO7FECWI8UD5DAQMOOF8WSUJDIC,33PPO7FECWI8UD5DAQMOOF8WSUJDIC,262738,262738,,,,
,,,,,,,,5,4.49116,0,24,24,28,1,A1B76WYZ47BQJ,232,wolfe_116_R_basket-a_w_outline.jpg,wolfe_116_R_basket-b_w_outline.jpg,54,m,A1B76WYZ47BQJ,2020-12-08_16h23.16.136,MetaAwareness,2020.1.2,Win32,60,3SV8KD29L5VZHP23C9RV44BOLKIKZ0,33PPO7FECWI8UD5DAQMOOF8WSUJDIC,EOP38,EOP38,33PPO7FECWI8UD5DAQMOOF8WSUJDIC,33PPO7FECWI8UD5DAQMOOF8WSUJDIC,262738,262738,,,,
,,,,,,,,2,3.73525,0,25,25,16,1,A1B76WYZ47BQJ,144,wolfe_072_R_handle-a_w_outline.jpg,wolfe_072_R_handle-b_w_outline.jpg,54,m,A1B76WYZ47BQJ,2020-12-08_16h23.16.136,MetaAwareness,2020.1.2,Win32,60,3SV8KD29L5VZHP23C9RV44BOLKIKZ0,33PPO7FECWI8UD5DAQMOOF8WSUJDIC,EOP38,EOP38,33PPO7FECWI8UD5DAQMOOF8WSUJDIC,33PPO7FECWI8UD5DAQMOOF8WSUJDIC,262738,262738,,,,
,,,,,,,,1,3.935285,0,26,26,17,1,A1B76WYZ47BQJ,154,wolfe_077_R_footrest-a_w_outline.jpg,wolfe_077_R_footrest-b_w_outline.jpg,54,m,A1B76WYZ47BQJ,2020-12-08_16h23.16.136,MetaAwareness,2020.1.2,Win32,60,3SV8KD29L5VZHP23C9RV44BOLKIKZ0,33PPO7FECWI8UD5DAQMOOF8WSUJDIC,EOP38,EOP38,33PPO7FECWI8UD5DAQMOOF8WSUJDIC,33PPO7FECWI8UD5DAQMOOF8WSUJDIC,262738,262738,,,,
,,,,,,,,5,3.302495,0,27,27,22,1,A1B76WYZ47BQJ,198,wolfe_099_R_sconce-a_w_outline.jpg,wolfe_099_R_sconce-b_w_outline.jpg,54,m,A1B76WYZ47BQJ,2020-12-08_16h23.16.136,MetaAwareness,2020.1.2,Win32,60,3SV8KD29L5VZHP23C9RV44BOLKIKZ0,33PPO7FECWI8UD5DAQMOOF8WSUJDIC,EOP38,EOP38,33PPO7FECWI8UD5DAQMOOF8WSUJDIC,33PPO7FECWI8UD5DAQMOOF8WSUJDIC,262738,262738,,,,
,,,,,,,,3,3.33656,0,28,28,26,1,A1B76WYZ47BQJ,222,wolfe_111_R_pot-a_w_outline.jpg,wolfe_111_R_pot-b_w_outline.jpg,54,m,A1B76WYZ47BQJ,2020-12-08_16h23.16.136,MetaAwareness,2020.1.2,Win32,60,3SV8KD29L5VZHP23C9RV44BOLKIKZ0,33PPO7FECWI8UD5DAQMOOF8WSUJDIC,EOP38,EOP38,33PPO7FECWI8UD5DAQMOOF8WSUJDIC,33PPO7FECWI8UD5DAQMOOF8WSUJDIC,262738,262738,,,,
,,,,,,,,4,3.919215,0,29,29,3,1,A1B76WYZ47BQJ,40,wolfe_020_R_walldeco-a_w_outline.jpg,wolfe_020_R_walldeco-b_w_outline.jpg,54,m,A1B76WYZ47BQJ,2020-12-08_16h23.16.136,MetaAwareness,2020.1.2,Win32,60,3SV8KD29L5VZHP23C9RV44BOLKIKZ0,33PPO7FECWI8UD5DAQMOOF8WSUJDIC,EOP38,EOP38,33PPO7FECWI8UD5DAQMOOF8WSUJDIC,33PPO7FECWI8UD5DAQMOOF8WSUJDIC,262738,262738,,,,
,,,,,,,,,,,,,,,A1B76WYZ47BQJ,,,,54,m,A1B76WYZ47BQJ,2020-12-08_16h23.16.136,MetaAwareness,2020.1.2,Win32,60,3SV8KD29L5VZHP23C9RV44BOLKIKZ0,33PPO7FECWI8UD5DAQMOOF8WSUJDIC,EOP38,EOP38,33PPO7FECWI8UD5DAQMOOF8WSUJDIC,33PPO7FECWI8UD5DAQMOOF8WSUJDIC,262738,262738,5,3.30378,1,7.91654
