consent_response.keys,consent_response.rt,key_resp_2.keys,key_resp_2.rt,Airplane_resp.keys,Airplane_resp.rt,Boat_resp.keys,Boat_resp.rt,user_resp.keys,user_resp.rt,trials.thisRepN,trials.thisTrialN,trials.thisN,trials.thisIndex,trials.ran,workerId,trial_num,image_a,image_b,age,gender (m/f),worker_ID,date,expName,psychopyVersion,OS,frameRate,hitId,assignmentId,a,tp_a,b,tp_b,c,tp_c,Cow_resp.keys,Cow_resp.rt,Garden_resp.keys,Garden_resp.rt
space,14.992,space,25.222,5,3.623,5,2.033,2,8.41,0,0,0,12,1,A1LSGYXKP6O1B8,90,wolfe_045_R_musicdock-a_w_outline.jpg,wolfe_045_R_musicdock-b_w_outline.jpg,35,m,A1LSGYXKP6O1B8,2020-12-08_14h18.45.108,MetaAwareness,2020.1.2,MacIntel,60,3EN4YVUOUDVF1AW6T63Y64V0YVLXJI,3B837J3LDPZRP1REX3BMX6VNGTJSRW,L78B8,L78B8,3B837J3LDPZRP1REX3BMX6VNGTJSRW,3B837J3LDPZRP1REX3BMX6VNGTJSRW,262738,262738,,,,
,,,,,,,,1,22.228,0,1,1,0,1,A1LSGYXKP6O1B8,24,wolfe_012_R_tubaccesory-a_w_outline.jpg,wolfe_012_R_tubaccesory-b_w_outline.jpg,35,m,A1LSGYXKP6O1B8,2020-12-08_14h18.45.108,MetaAwareness,2020.1.2,MacIntel,60,3EN4YVUOUDVF1AW6T63Y64V0YVLXJI,3B837J3LDPZRP1REX3BMX6VNGTJSRW,L78B8,L78B8,3B837J3LDPZRP1REX3BMX6VNGTJSRW,3B837J3LDPZRP1REX3BMX6VNGTJSRW,262738,262738,,,,
,,,,,,,,1,4.02,0,2,2,9,1,A1LSGYXKP6O1B8,72,wolfe_036_R_bowl-a_w_outline.jpg,wolfe_036_R_bowl-b_w_outline.jpg,35,m,A1LSGYXKP6O1B8,2020-12-08_14h18.45.108,MetaAwareness,2020.1.2,MacIntel,60,3EN4YVUOUDVF1AW6T63Y64V0YVLXJI,3B837J3LDPZRP1REX3BMX6VNGTJSRW,L78B8,L78B8,3B837J3LDPZRP1REX3BMX6VNGTJSRW,3B837J3LDPZRP1REX3BMX6VNGTJSRW,262738,262738,,,,
,,,,,,,,4,4.82,0,3,3,29,1,A1LSGYXKP6O1B8,256,wolfe_128_R_pot-a_w_outline.jpg,wolfe_128_R_pot-b_w_outline.jpg,35,m,A1LSGYXKP6O1B8,2020-12-08_14h18.45.108,MetaAwareness,2020.1.2,MacIntel,60,3EN4YVUOUDVF1AW6T63Y64V0YVLXJI,3B837J3LDPZRP1REX3BMX6VNGTJSRW,L78B8,L78B8,3B837J3LDPZRP1REX3BMX6VNGTJSRW,3B837J3LDPZRP1REX3BMX6VNGTJSRW,262738,262738,,,,
,,,,,,,,1,3.904,0,4,4,18,1,A1LSGYXKP6O1B8,172,wolfe_086_R_book-a_w_outline.jpg,wolfe_086_R_book-b_w_outline.jpg,35,m,A1LSGYXKP6O1B8,2020-12-08_14h18.45.108,MetaAwareness,2020.1.2,MacIntel,60,3EN4YVUOUDVF1AW6T63Y64V0YVLXJI,3B837J3LDPZRP1REX3BMX6VNGTJSRW,L78B8,L78B8,3B837J3LDPZRP1REX3BMX6VNGTJSRW,3B837J3LDPZRP1REX3BMX6VNGTJSRW,262738,262738,,,,
,,,,,,,,4,4.126,0,5,5,27,1,A1LSGYXKP6O1B8,238,wolfe_119_R_painting-a_w_outline.jpg,wolfe_119_R_painting-b_w_outline.jpg,35,m,A1LSGYXKP6O1B8,2020-12-08_14h18.45.108,MetaAwareness,2020.1.2,MacIntel,60,3EN4YVUOUDVF1AW6T63Y64V0YVLXJI,3B837J3LDPZRP1REX3BMX6VNGTJSRW,L78B8,L78B8,3B837J3LDPZRP1REX3BMX6VNGTJSRW,3B837J3LDPZRP1REX3BMX6VNGTJSRW,262738,262738,,,,
,,,,,,,,3,4.049,0,6,6,5,1,A1LSGYXKP6O1B8,48,wolfe_024_R_towels-a_w_outline.jpg,wolfe_024_R_towels-b_w_outline.jpg,35,m,A1LSGYXKP6O1B8,2020-12-08_14h18.45.108,MetaAwareness,2020.1.2,MacIntel,60,3EN4YVUOUDVF1AW6T63Y64V0YVLXJI,3B837J3LDPZRP1REX3BMX6VNGTJSRW,L78B8,L78B8,3B837J3LDPZRP1REX3BMX6VNGTJSRW,3B837J3LDPZRP1REX3BMX6VNGTJSRW,262738,262738,,,,
,,,,,,,,3,3.492,0,7,7,25,1,A1LSGYXKP6O1B8,224,wolfe_112_R_basket-a_w_outline.jpg,wolfe_112_R_basket-b_w_outline.jpg,35,m,A1LSGYXKP6O1B8,2020-12-08_14h18.45.108,MetaAwareness,2020.1.2,MacIntel,60,3EN4YVUOUDVF1AW6T63Y64V0YVLXJI,3B837J3LDPZRP1REX3BMX6VNGTJSRW,L78B8,L78B8,3B837J3LDPZRP1REX3BMX6VNGTJSRW,3B837J3LDPZRP1REX3BMX6VNGTJSRW,262738,262738,,,,
,,,,,,,,3,4.929,0,8,8,23,1,A1LSGYXKP6O1B8,212,wolfe_106_R_toweldispenser-a_w_outline.jpg,wolfe_106_R_toweldispenser-b_w_outline.jpg,35,m,A1LSGYXKP6O1B8,2020-12-08_14h18.45.108,MetaAwareness,2020.1.2,MacIntel,60,3EN4YVUOUDVF1AW6T63Y64V0YVLXJI,3B837J3LDPZRP1REX3BMX6VNGTJSRW,L78B8,L78B8,3B837J3LDPZRP1REX3BMX6VNGTJSRW,3B837J3LDPZRP1REX3BMX6VNGTJSRW,262738,262738,,,,
,,,,,,,,4,3.624,0,9,9,2,1,A1LSGYXKP6O1B8,28,wolfe_014_R_lamp-a_w_outline.jpg,wolfe_014_R_lamp-b_w_outline.jpg,35,m,A1LSGYXKP6O1B8,2020-12-08_14h18.45.108,MetaAwareness,2020.1.2,MacIntel,60,3EN4YVUOUDVF1AW6T63Y64V0YVLXJI,3B837J3LDPZRP1REX3BMX6VNGTJSRW,L78B8,L78B8,3B837J3LDPZRP1REX3BMX6VNGTJSRW,3B837J3LDPZRP1REX3BMX6VNGTJSRW,262738,262738,,,,
,,,,,,,,2,4.669,0,10,10,1,1,A1LSGYXKP6O1B8,26,wolfe_013_R_lamp-a_w_outline.jpg,wolfe_013_R_lamp-b_w_outline.jpg,35,m,A1LSGYXKP6O1B8,2020-12-08_14h18.45.108,MetaAwareness,2020.1.2,MacIntel,60,3EN4YVUOUDVF1AW6T63Y64V0YVLXJI,3B837J3LDPZRP1REX3BMX6VNGTJSRW,L78B8,L78B8,3B837J3LDPZRP1REX3BMX6VNGTJSRW,3B837J3LDPZRP1REX3BMX6VNGTJSRW,262738,262738,,,,
,,,,,,,,3,5.474,0,11,11,19,1,A1LSGYXKP6O1B8,186,wolfe_093_R_switch-a_w_outline.jpg,wolfe_093_R_switch-b_w_outline.jpg,35,m,A1LSGYXKP6O1B8,2020-12-08_14h18.45.108,MetaAwareness,2020.1.2,MacIntel,60,3EN4YVUOUDVF1AW6T63Y64V0YVLXJI,3B837J3LDPZRP1REX3BMX6VNGTJSRW,L78B8,L78B8,3B837J3LDPZRP1REX3BMX6VNGTJSRW,3B837J3LDPZRP1REX3BMX6VNGTJSRW,262738,262738,,,,
,,,,,,,,4,6.128,0,12,12,6,1,A1LSGYXKP6O1B8,50,wolfe_025_R_vase-a_w_outline.jpg,wolfe_025_R_vase-b_w_outline.jpg,35,m,A1LSGYXKP6O1B8,2020-12-08_14h18.45.108,MetaAwareness,2020.1.2,MacIntel,60,3EN4YVUOUDVF1AW6T63Y64V0YVLXJI,3B837J3LDPZRP1REX3BMX6VNGTJSRW,L78B8,L78B8,3B837J3LDPZRP1REX3BMX6VNGTJSRW,3B837J3LDPZRP1REX3BMX6VNGTJSRW,262738,262738,,,,
,,,,,,,,4,6.621,0,13,13,17,1,A1LSGYXKP6O1B8,154,wolfe_077_R_footrest-a_w_outline.jpg,wolfe_077_R_footrest-b_w_outline.jpg,35,m,A1LSGYXKP6O1B8,2020-12-08_14h18.45.108,MetaAwareness,2020.1.2,MacIntel,60,3EN4YVUOUDVF1AW6T63Y64V0YVLXJI,3B837J3LDPZRP1REX3BMX6VNGTJSRW,L78B8,L78B8,3B837J3LDPZRP1REX3BMX6VNGTJSRW,3B837J3LDPZRP1REX3BMX6VNGTJSRW,262738,262738,,,,
,,,,,,,,2,4.389,0,14,14,11,1,A1LSGYXKP6O1B8,86,wolfe_043_R_clock-a_w_outline.jpg,wolfe_043_R_clock-b_w_outline.jpg,35,m,A1LSGYXKP6O1B8,2020-12-08_14h18.45.108,MetaAwareness,2020.1.2,MacIntel,60,3EN4YVUOUDVF1AW6T63Y64V0YVLXJI,3B837J3LDPZRP1REX3BMX6VNGTJSRW,L78B8,L78B8,3B837J3LDPZRP1REX3BMX6VNGTJSRW,3B837J3LDPZRP1REX3BMX6VNGTJSRW,262738,262738,,,,
,,,,,,,,5,4.53,0,15,15,4,1,A1LSGYXKP6O1B8,38,wolfe_019_R_lamp_sized-a_w_outline.jpg,wolfe_019_R_lamp_sized-b_w_outline.jpg,35,m,A1LSGYXKP6O1B8,2020-12-08_14h18.45.108,MetaAwareness,2020.1.2,MacIntel,60,3EN4YVUOUDVF1AW6T63Y64V0YVLXJI,3B837J3LDPZRP1REX3BMX6VNGTJSRW,L78B8,L78B8,3B837J3LDPZRP1REX3BMX6VNGTJSRW,3B837J3LDPZRP1REX3BMX6VNGTJSRW,262738,262738,,,,
,,,,,,,,3,6.844,0,16,16,28,1,A1LSGYXKP6O1B8,242,wolfe_121_R_car-a_w_outline.jpg,wolfe_121_R_car-b_w_outline.jpg,35,m,A1LSGYXKP6O1B8,2020-12-08_14h18.45.108,MetaAwareness,2020.1.2,MacIntel,60,3EN4YVUOUDVF1AW6T63Y64V0YVLXJI,3B837J3LDPZRP1REX3BMX6VNGTJSRW,L78B8,L78B8,3B837J3LDPZRP1REX3BMX6VNGTJSRW,3B837J3LDPZRP1REX3BMX6VNGTJSRW,262738,262738,,,,
,,,,,,,,5,3.735,0,17,17,21,1,A1LSGYXKP6O1B8,198,wolfe_099_R_sconce-a_w_outline.jpg,wolfe_099_R_sconce-b_w_outline.jpg,35,m,A1LSGYXKP6O1B8,2020-12-08_14h18.45.108,MetaAwareness,2020.1.2,MacIntel,60,3EN4YVUOUDVF1AW6T63Y64V0YVLXJI,3B837J3LDPZRP1REX3BMX6VNGTJSRW,L78B8,L78B8,3B837J3LDPZRP1REX3BMX6VNGTJSRW,3B837J3LDPZRP1REX3BMX6VNGTJSRW,262738,262738,,,,
,,,,,,,,5,4.507,0,18,18,10,1,A1LSGYXKP6O1B8,82,wolfe_041_R_fruit-a_w_outline.jpg,wolfe_041_R_fruit-b_w_outline.jpg,35,m,A1LSGYXKP6O1B8,2020-12-08_14h18.45.108,MetaAwareness,2020.1.2,MacIntel,60,3EN4YVUOUDVF1AW6T63Y64V0YVLXJI,3B837J3LDPZRP1REX3BMX6VNGTJSRW,L78B8,L78B8,3B837J3LDPZRP1REX3BMX6VNGTJSRW,3B837J3LDPZRP1REX3BMX6VNGTJSRW,262738,262738,,,,
,,,,,,,,5,4.008,0,19,19,22,1,A1LSGYXKP6O1B8,210,wolfe_105_R_hat-a_w_outline.jpg,wolfe_105_R_hat-b_w_outline.jpg,35,m,A1LSGYXKP6O1B8,2020-12-08_14h18.45.108,MetaAwareness,2020.1.2,MacIntel,60,3EN4YVUOUDVF1AW6T63Y64V0YVLXJI,3B837J3LDPZRP1REX3BMX6VNGTJSRW,L78B8,L78B8,3B837J3LDPZRP1REX3BMX6VNGTJSRW,3B837J3LDPZRP1REX3BMX6VNGTJSRW,262738,262738,,,,
,,,,,,,,2,4.052,0,20,20,7,1,A1LSGYXKP6O1B8,66,wolfe_033_R_vase-a_w_outline.jpg,wolfe_033_R_vase-b_w_outline.jpg,35,m,A1LSGYXKP6O1B8,2020-12-08_14h18.45.108,MetaAwareness,2020.1.2,MacIntel,60,3EN4YVUOUDVF1AW6T63Y64V0YVLXJI,3B837J3LDPZRP1REX3BMX6VNGTJSRW,L78B8,L78B8,3B837J3LDPZRP1REX3BMX6VNGTJSRW,3B837J3LDPZRP1REX3BMX6VNGTJSRW,262738,262738,,,,
,,,,,,,,1,4.341,0,21,21,20,1,A1LSGYXKP6O1B8,190,wolfe_095_R_candle-a_w_outline.jpg,wolfe_095_R_candle-b_w_outline.jpg,35,m,A1LSGYXKP6O1B8,2020-12-08_14h18.45.108,MetaAwareness,2020.1.2,MacIntel,60,3EN4YVUOUDVF1AW6T63Y64V0YVLXJI,3B837J3LDPZRP1REX3BMX6VNGTJSRW,L78B8,L78B8,3B837J3LDPZRP1REX3BMX6VNGTJSRW,3B837J3LDPZRP1REX3BMX6VNGTJSRW,262738,262738,,,,
,,,,,,,,2,4.746,0,22,22,8,1,A1LSGYXKP6O1B8,70,wolfe_035_R_fruit-a_w_outline.jpg,wolfe_035_R_fruit-b_w_outline.jpg,35,m,A1LSGYXKP6O1B8,2020-12-08_14h18.45.108,MetaAwareness,2020.1.2,MacIntel,60,3EN4YVUOUDVF1AW6T63Y64V0YVLXJI,3B837J3LDPZRP1REX3BMX6VNGTJSRW,L78B8,L78B8,3B837J3LDPZRP1REX3BMX6VNGTJSRW,3B837J3LDPZRP1REX3BMX6VNGTJSRW,262738,262738,,,,
,,,,,,,,4,4.002,0,23,23,26,1,A1LSGYXKP6O1B8,236,wolfe_118_R_shoes-a_w_outline.jpg,wolfe_118_R_shoes-b_w_outline.jpg,35,m,A1LSGYXKP6O1B8,2020-12-08_14h18.45.108,MetaAwareness,2020.1.2,MacIntel,60,3EN4YVUOUDVF1AW6T63Y64V0YVLXJI,3B837J3LDPZRP1REX3BMX6VNGTJSRW,L78B8,L78B8,3B837J3LDPZRP1REX3BMX6VNGTJSRW,3B837J3LDPZRP1REX3BMX6VNGTJSRW,262738,262738,,,,
,,,,,,,,5,3.418,0,24,24,16,1,A1LSGYXKP6O1B8,148,wolfe_074_R_book-a_w_outline.jpg,wolfe_074_R_book-b_w_outline.jpg,35,m,A1LSGYXKP6O1B8,2020-12-08_14h18.45.108,MetaAwareness,2020.1.2,MacIntel,60,3EN4YVUOUDVF1AW6T63Y64V0YVLXJI,3B837J3LDPZRP1REX3BMX6VNGTJSRW,L78B8,L78B8,3B837J3LDPZRP1REX3BMX6VNGTJSRW,3B837J3LDPZRP1REX3BMX6VNGTJSRW,262738,262738,,,,
,,,,,,,,5,2.988,0,25,25,14,1,A1LSGYXKP6O1B8,112,wolfe_056_R_comforter-a_w_outline.jpg,wolfe_056_R_comforter-b_w_outline.jpg,35,m,A1LSGYXKP6O1B8,2020-12-08_14h18.45.108,MetaAwareness,2020.1.2,MacIntel,60,3EN4YVUOUDVF1AW6T63Y64V0YVLXJI,3B837J3LDPZRP1REX3BMX6VNGTJSRW,L78B8,L78B8,3B837J3LDPZRP1REX3BMX6VNGTJSRW,3B837J3LDPZRP1REX3BMX6VNGTJSRW,262738,262738,,,,
,,,,,,,,5,4.619,0,26,26,3,1,A1LSGYXKP6O1B8,36,wolfe_018_R_plant-a_w_outline.jpg,wolfe_018_R_plant-b_w_outline.jpg,35,m,A1LSGYXKP6O1B8,2020-12-08_14h18.45.108,MetaAwareness,2020.1.2,MacIntel,60,3EN4YVUOUDVF1AW6T63Y64V0YVLXJI,3B837J3LDPZRP1REX3BMX6VNGTJSRW,L78B8,L78B8,3B837J3LDPZRP1REX3BMX6VNGTJSRW,3B837J3LDPZRP1REX3BMX6VNGTJSRW,262738,262738,,,,
,,,,,,,,2,4.291,0,27,27,15,1,A1LSGYXKP6O1B8,132,wolfe_066_R_vase-a_w_outline.jpg,wolfe_066_R_vase-b_w_outline.jpg,35,m,A1LSGYXKP6O1B8,2020-12-08_14h18.45.108,MetaAwareness,2020.1.2,MacIntel,60,3EN4YVUOUDVF1AW6T63Y64V0YVLXJI,3B837J3LDPZRP1REX3BMX6VNGTJSRW,L78B8,L78B8,3B837J3LDPZRP1REX3BMX6VNGTJSRW,3B837J3LDPZRP1REX3BMX6VNGTJSRW,262738,262738,,,,
,,,,,,,,4,4.941,0,28,28,13,1,A1LSGYXKP6O1B8,102,wolfe_051_R_owl-a_w_outline.jpg,wolfe_051_R_owl-b_w_outline.jpg,35,m,A1LSGYXKP6O1B8,2020-12-08_14h18.45.108,MetaAwareness,2020.1.2,MacIntel,60,3EN4YVUOUDVF1AW6T63Y64V0YVLXJI,3B837J3LDPZRP1REX3BMX6VNGTJSRW,L78B8,L78B8,3B837J3LDPZRP1REX3BMX6VNGTJSRW,3B837J3LDPZRP1REX3BMX6VNGTJSRW,262738,262738,,,,
,,,,,,,,2,6.937,0,29,29,24,1,A1LSGYXKP6O1B8,216,wolfe_108_R_boa-a_w_outline.jpg,wolfe_108_R_boa-b_w_outline.jpg,35,m,A1LSGYXKP6O1B8,2020-12-08_14h18.45.108,MetaAwareness,2020.1.2,MacIntel,60,3EN4YVUOUDVF1AW6T63Y64V0YVLXJI,3B837J3LDPZRP1REX3BMX6VNGTJSRW,L78B8,L78B8,3B837J3LDPZRP1REX3BMX6VNGTJSRW,3B837J3LDPZRP1REX3BMX6VNGTJSRW,262738,262738,,,,
,,,,,,,,,,,,,,,A1LSGYXKP6O1B8,,,,35,m,A1LSGYXKP6O1B8,2020-12-08_14h18.45.108,MetaAwareness,2020.1.2,MacIntel,60,3EN4YVUOUDVF1AW6T63Y64V0YVLXJI,3B837J3LDPZRP1REX3BMX6VNGTJSRW,L78B8,L78B8,3B837J3LDPZRP1REX3BMX6VNGTJSRW,3B837J3LDPZRP1REX3BMX6VNGTJSRW,262738,262738,5,2.81,1,11.765
