consent_response.keys,consent_response.rt,key_resp_2.keys,key_resp_2.rt,Airplane_resp.keys,Airplane_resp.rt,Boat_resp.keys,Boat_resp.rt,user_resp.keys,user_resp.rt,trials.thisRepN,trials.thisTrialN,trials.thisN,trials.thisIndex,trials.ran,workerId,trial_num,image_a,image_b,age,gender (m/f),worker_ID,date,expName,psychopyVersion,OS,frameRate,hitId,assignmentId,a,tp_a,b,tp_b,c,tp_c,Cow_resp.keys,Cow_resp.rt,Garden_resp.keys,Garden_resp.rt
space,18.97822,space,21.36978,5,2.888515,5,2.5532,4,9.15357,0,0,0,9,1,A1OKNQ2JEXW34Q,87,wolfe_044_L_light-a_w_outline.jpg,wolfe_044_L_light-b_w_outline.jpg,34,m,A1OKNQ2JEXW34Q,2020-12-11_13h21.30.980,MetaAwareness,2020.1.2,Win32,60,3PMR2DOWOP4GW9TBKTXZ8JFXN2J45S,3PQ8K71NHYNVQOJ3ES39HGC7UT3AA9,NKQP5,NKQP5,3PQ8K71NHYNVQOJ3ES39HGC7UT3AA9,3PQ8K71NHYNVQOJ3ES39HGC7UT3AA9,263495,263495,,,,
,,,,,,,,1,5.10124,0,1,1,21,1,A1OKNQ2JEXW34Q,153,wolfe_077_L_footrest-a_w_outline.jpg,wolfe_077_L_footrest-b_w_outline.jpg,34,m,A1OKNQ2JEXW34Q,2020-12-11_13h21.30.980,MetaAwareness,2020.1.2,Win32,60,3PMR2DOWOP4GW9TBKTXZ8JFXN2J45S,3PQ8K71NHYNVQOJ3ES39HGC7UT3AA9,NKQP5,NKQP5,3PQ8K71NHYNVQOJ3ES39HGC7UT3AA9,3PQ8K71NHYNVQOJ3ES39HGC7UT3AA9,263495,263495,,,,
,,,,,,,,4,6.105235,0,2,2,18,1,A1OKNQ2JEXW34Q,141,wolfe_071_L_art-a_w_outline.jpg,wolfe_071_L_art-b_w_outline.jpg,34,m,A1OKNQ2JEXW34Q,2020-12-11_13h21.30.980,MetaAwareness,2020.1.2,Win32,60,3PMR2DOWOP4GW9TBKTXZ8JFXN2J45S,3PQ8K71NHYNVQOJ3ES39HGC7UT3AA9,NKQP5,NKQP5,3PQ8K71NHYNVQOJ3ES39HGC7UT3AA9,3PQ8K71NHYNVQOJ3ES39HGC7UT3AA9,263495,263495,,,,
,,,,,,,,4,3.239005,0,3,3,24,1,A1OKNQ2JEXW34Q,199,wolfe_100_L_mirror-a_w_outline.jpg,wolfe_100_L_mirror-b_w_outline.jpg,34,m,A1OKNQ2JEXW34Q,2020-12-11_13h21.30.980,MetaAwareness,2020.1.2,Win32,60,3PMR2DOWOP4GW9TBKTXZ8JFXN2J45S,3PQ8K71NHYNVQOJ3ES39HGC7UT3AA9,NKQP5,NKQP5,3PQ8K71NHYNVQOJ3ES39HGC7UT3AA9,3PQ8K71NHYNVQOJ3ES39HGC7UT3AA9,263495,263495,,,,
,,,,,,,,1,4.837955,0,4,4,26,1,A1OKNQ2JEXW34Q,205,wolfe_103_L_hook-a_w_outline.jpg,wolfe_103_L_hook-b_w_outline.jpg,34,m,A1OKNQ2JEXW34Q,2020-12-11_13h21.30.980,MetaAwareness,2020.1.2,Win32,60,3PMR2DOWOP4GW9TBKTXZ8JFXN2J45S,3PQ8K71NHYNVQOJ3ES39HGC7UT3AA9,NKQP5,NKQP5,3PQ8K71NHYNVQOJ3ES39HGC7UT3AA9,3PQ8K71NHYNVQOJ3ES39HGC7UT3AA9,263495,263495,,,,
,,,,,,,,4,4.12551,0,5,5,16,1,A1OKNQ2JEXW34Q,131,wolfe_066_L_vase-a_w_outline.jpg,wolfe_066_L_vase-b_w_outline.jpg,34,m,A1OKNQ2JEXW34Q,2020-12-11_13h21.30.980,MetaAwareness,2020.1.2,Win32,60,3PMR2DOWOP4GW9TBKTXZ8JFXN2J45S,3PQ8K71NHYNVQOJ3ES39HGC7UT3AA9,NKQP5,NKQP5,3PQ8K71NHYNVQOJ3ES39HGC7UT3AA9,3PQ8K71NHYNVQOJ3ES39HGC7UT3AA9,263495,263495,,,,
,,,,,,,,2,3.755885,0,6,6,14,1,A1OKNQ2JEXW34Q,117,wolfe_059_L_car-a_w_outline.jpg,wolfe_059_L_car-b_w_outline.jpg,34,m,A1OKNQ2JEXW34Q,2020-12-11_13h21.30.980,MetaAwareness,2020.1.2,Win32,60,3PMR2DOWOP4GW9TBKTXZ8JFXN2J45S,3PQ8K71NHYNVQOJ3ES39HGC7UT3AA9,NKQP5,NKQP5,3PQ8K71NHYNVQOJ3ES39HGC7UT3AA9,3PQ8K71NHYNVQOJ3ES39HGC7UT3AA9,263495,263495,,,,
,,,,,,,,4,3.608145,0,7,7,7,1,A1OKNQ2JEXW34Q,81,wolfe_041_L_fruit-a_w_outline.jpg,wolfe_041_L_fruit-b_w_outline.jpg,34,m,A1OKNQ2JEXW34Q,2020-12-11_13h21.30.980,MetaAwareness,2020.1.2,Win32,60,3PMR2DOWOP4GW9TBKTXZ8JFXN2J45S,3PQ8K71NHYNVQOJ3ES39HGC7UT3AA9,NKQP5,NKQP5,3PQ8K71NHYNVQOJ3ES39HGC7UT3AA9,3PQ8K71NHYNVQOJ3ES39HGC7UT3AA9,263495,263495,,,,
,,,,,,,,5,5.638665,0,8,8,3,1,A1OKNQ2JEXW34Q,43,wolfe_022_L_lamp-a_w_outline.jpg,wolfe_022_L_lamp-b_w_outline.jpg,34,m,A1OKNQ2JEXW34Q,2020-12-11_13h21.30.980,MetaAwareness,2020.1.2,Win32,60,3PMR2DOWOP4GW9TBKTXZ8JFXN2J45S,3PQ8K71NHYNVQOJ3ES39HGC7UT3AA9,NKQP5,NKQP5,3PQ8K71NHYNVQOJ3ES39HGC7UT3AA9,3PQ8K71NHYNVQOJ3ES39HGC7UT3AA9,263495,263495,,,,
,,,,,,,,4,4.858915,0,9,9,11,1,A1OKNQ2JEXW34Q,99,wolfe_050_L_book-a_w_outline.jpg,wolfe_050_L_book-b_w_outline.jpg,34,m,A1OKNQ2JEXW34Q,2020-12-11_13h21.30.980,MetaAwareness,2020.1.2,Win32,60,3PMR2DOWOP4GW9TBKTXZ8JFXN2J45S,3PQ8K71NHYNVQOJ3ES39HGC7UT3AA9,NKQP5,NKQP5,3PQ8K71NHYNVQOJ3ES39HGC7UT3AA9,3PQ8K71NHYNVQOJ3ES39HGC7UT3AA9,263495,263495,,,,
,,,,,,,,4,2.75726,0,10,10,23,1,A1OKNQ2JEXW34Q,197,wolfe_099_L_sconce-a_w_outline.jpg,wolfe_099_L_sconce-b_w_outline.jpg,34,m,A1OKNQ2JEXW34Q,2020-12-11_13h21.30.980,MetaAwareness,2020.1.2,Win32,60,3PMR2DOWOP4GW9TBKTXZ8JFXN2J45S,3PQ8K71NHYNVQOJ3ES39HGC7UT3AA9,NKQP5,NKQP5,3PQ8K71NHYNVQOJ3ES39HGC7UT3AA9,3PQ8K71NHYNVQOJ3ES39HGC7UT3AA9,263495,263495,,,,
,,,,,,,,4,3.771805,0,11,11,2,1,A1OKNQ2JEXW34Q,31,wolfe_016_L_art-a_w_outline.jpg,wolfe_016_L_art-b_w_outline.jpg,34,m,A1OKNQ2JEXW34Q,2020-12-11_13h21.30.980,MetaAwareness,2020.1.2,Win32,60,3PMR2DOWOP4GW9TBKTXZ8JFXN2J45S,3PQ8K71NHYNVQOJ3ES39HGC7UT3AA9,NKQP5,NKQP5,3PQ8K71NHYNVQOJ3ES39HGC7UT3AA9,3PQ8K71NHYNVQOJ3ES39HGC7UT3AA9,263495,263495,,,,
,,,,,,,,2,8.68256,0,12,12,4,1,A1OKNQ2JEXW34Q,59,wolfe_030_L_drawer-a_w_outline.jpg,wolfe_030_L_drawer-b_w_outline.jpg,34,m,A1OKNQ2JEXW34Q,2020-12-11_13h21.30.980,MetaAwareness,2020.1.2,Win32,60,3PMR2DOWOP4GW9TBKTXZ8JFXN2J45S,3PQ8K71NHYNVQOJ3ES39HGC7UT3AA9,NKQP5,NKQP5,3PQ8K71NHYNVQOJ3ES39HGC7UT3AA9,3PQ8K71NHYNVQOJ3ES39HGC7UT3AA9,263495,263495,,,,
,,,,,,,,4,3.759065,0,13,13,10,1,A1OKNQ2JEXW34Q,97,wolfe_049_L_painting-a_w_outline.jpg,wolfe_049_L_painting-b_w_outline.jpg,34,m,A1OKNQ2JEXW34Q,2020-12-11_13h21.30.980,MetaAwareness,2020.1.2,Win32,60,3PMR2DOWOP4GW9TBKTXZ8JFXN2J45S,3PQ8K71NHYNVQOJ3ES39HGC7UT3AA9,NKQP5,NKQP5,3PQ8K71NHYNVQOJ3ES39HGC7UT3AA9,3PQ8K71NHYNVQOJ3ES39HGC7UT3AA9,263495,263495,,,,
,,,,,,,,2,5.1412,0,14,14,28,1,A1OKNQ2JEXW34Q,243,wolfe_122_L_chair-a_w_outline.jpg,wolfe_122_L_chair-b_w_outline.jpg,34,m,A1OKNQ2JEXW34Q,2020-12-11_13h21.30.980,MetaAwareness,2020.1.2,Win32,60,3PMR2DOWOP4GW9TBKTXZ8JFXN2J45S,3PQ8K71NHYNVQOJ3ES39HGC7UT3AA9,NKQP5,NKQP5,3PQ8K71NHYNVQOJ3ES39HGC7UT3AA9,3PQ8K71NHYNVQOJ3ES39HGC7UT3AA9,263495,263495,,,,
,,,,,,,,4,4.22033,0,15,15,25,1,A1OKNQ2JEXW34Q,203,wolfe_102_L_shoppingbag-a_w_outline.jpg,wolfe_102_L_shoppingbag-b_w_outline.jpg,34,m,A1OKNQ2JEXW34Q,2020-12-11_13h21.30.980,MetaAwareness,2020.1.2,Win32,60,3PMR2DOWOP4GW9TBKTXZ8JFXN2J45S,3PQ8K71NHYNVQOJ3ES39HGC7UT3AA9,NKQP5,NKQP5,3PQ8K71NHYNVQOJ3ES39HGC7UT3AA9,3PQ8K71NHYNVQOJ3ES39HGC7UT3AA9,263495,263495,,,,
,,,,,,,,4,7.73785,0,16,16,15,1,A1OKNQ2JEXW34Q,129,wolfe_065_L_cd-a_w_outline.jpg,wolfe_065_L_cd-b_w_outline.jpg,34,m,A1OKNQ2JEXW34Q,2020-12-11_13h21.30.980,MetaAwareness,2020.1.2,Win32,60,3PMR2DOWOP4GW9TBKTXZ8JFXN2J45S,3PQ8K71NHYNVQOJ3ES39HGC7UT3AA9,NKQP5,NKQP5,3PQ8K71NHYNVQOJ3ES39HGC7UT3AA9,3PQ8K71NHYNVQOJ3ES39HGC7UT3AA9,263495,263495,,,,
,,,,,,,,5,5.021455,0,17,17,8,1,A1OKNQ2JEXW34Q,83,wolfe_042_L_tap-a_w_outline.jpg,wolfe_042_L_tap-b_w_outline.jpg,34,m,A1OKNQ2JEXW34Q,2020-12-11_13h21.30.980,MetaAwareness,2020.1.2,Win32,60,3PMR2DOWOP4GW9TBKTXZ8JFXN2J45S,3PQ8K71NHYNVQOJ3ES39HGC7UT3AA9,NKQP5,NKQP5,3PQ8K71NHYNVQOJ3ES39HGC7UT3AA9,3PQ8K71NHYNVQOJ3ES39HGC7UT3AA9,263495,263495,,,,
,,,,,,,,1,5.039985,0,18,18,1,1,A1OKNQ2JEXW34Q,19,wolfe_010_L_candle-a_w_outline.jpg,wolfe_010_L_candle-b_w_outline.jpg,34,m,A1OKNQ2JEXW34Q,2020-12-11_13h21.30.980,MetaAwareness,2020.1.2,Win32,60,3PMR2DOWOP4GW9TBKTXZ8JFXN2J45S,3PQ8K71NHYNVQOJ3ES39HGC7UT3AA9,NKQP5,NKQP5,3PQ8K71NHYNVQOJ3ES39HGC7UT3AA9,3PQ8K71NHYNVQOJ3ES39HGC7UT3AA9,263495,263495,,,,
,,,,,,,,5,3.36938,0,19,19,6,1,A1OKNQ2JEXW34Q,79,wolfe_040_L_painting-a_w_outline.jpg,wolfe_040_L_painting-b_w_outline.jpg,34,m,A1OKNQ2JEXW34Q,2020-12-11_13h21.30.980,MetaAwareness,2020.1.2,Win32,60,3PMR2DOWOP4GW9TBKTXZ8JFXN2J45S,3PQ8K71NHYNVQOJ3ES39HGC7UT3AA9,NKQP5,NKQP5,3PQ8K71NHYNVQOJ3ES39HGC7UT3AA9,3PQ8K71NHYNVQOJ3ES39HGC7UT3AA9,263495,263495,,,,
,,,,,,,,4,3.388055,0,20,20,29,1,A1OKNQ2JEXW34Q,253,wolfe_127_L_light-a_w_outline.jpg,wolfe_127_L_light-b_w_outline.jpg,34,m,A1OKNQ2JEXW34Q,2020-12-11_13h21.30.980,MetaAwareness,2020.1.2,Win32,60,3PMR2DOWOP4GW9TBKTXZ8JFXN2J45S,3PQ8K71NHYNVQOJ3ES39HGC7UT3AA9,NKQP5,NKQP5,3PQ8K71NHYNVQOJ3ES39HGC7UT3AA9,3PQ8K71NHYNVQOJ3ES39HGC7UT3AA9,263495,263495,,,,
,,,,,,,,5,2.87173,0,21,21,12,1,A1OKNQ2JEXW34Q,103,wolfe_052_L_speaker-a_w_outline.jpg,wolfe_052_L_speaker-b_w_outline.jpg,34,m,A1OKNQ2JEXW34Q,2020-12-11_13h21.30.980,MetaAwareness,2020.1.2,Win32,60,3PMR2DOWOP4GW9TBKTXZ8JFXN2J45S,3PQ8K71NHYNVQOJ3ES39HGC7UT3AA9,NKQP5,NKQP5,3PQ8K71NHYNVQOJ3ES39HGC7UT3AA9,3PQ8K71NHYNVQOJ3ES39HGC7UT3AA9,263495,263495,,,,
,,,,,,,,2,6.01179,0,22,22,22,1,A1OKNQ2JEXW34Q,179,wolfe_090_L_lamp-a_w_outline.jpg,wolfe_090_L_lamp-b_w_outline.jpg,34,m,A1OKNQ2JEXW34Q,2020-12-11_13h21.30.980,MetaAwareness,2020.1.2,Win32,60,3PMR2DOWOP4GW9TBKTXZ8JFXN2J45S,3PQ8K71NHYNVQOJ3ES39HGC7UT3AA9,NKQP5,NKQP5,3PQ8K71NHYNVQOJ3ES39HGC7UT3AA9,3PQ8K71NHYNVQOJ3ES39HGC7UT3AA9,263495,263495,,,,
,,,,,,,,4,5.31802,0,23,23,13,1,A1OKNQ2JEXW34Q,109,wolfe_055_L_carpet-a_w_outline.jpg,wolfe_055_L_carpet-b_w_outline.jpg,34,m,A1OKNQ2JEXW34Q,2020-12-11_13h21.30.980,MetaAwareness,2020.1.2,Win32,60,3PMR2DOWOP4GW9TBKTXZ8JFXN2J45S,3PQ8K71NHYNVQOJ3ES39HGC7UT3AA9,NKQP5,NKQP5,3PQ8K71NHYNVQOJ3ES39HGC7UT3AA9,3PQ8K71NHYNVQOJ3ES39HGC7UT3AA9,263495,263495,,,,
,,,,,,,,2,5.53596,0,24,24,27,1,A1OKNQ2JEXW34Q,239,wolfe_120_L_art-a_w_outline.jpg,wolfe_120_L_art-b_w_outline.jpg,34,m,A1OKNQ2JEXW34Q,2020-12-11_13h21.30.980,MetaAwareness,2020.1.2,Win32,60,3PMR2DOWOP4GW9TBKTXZ8JFXN2J45S,3PQ8K71NHYNVQOJ3ES39HGC7UT3AA9,NKQP5,NKQP5,3PQ8K71NHYNVQOJ3ES39HGC7UT3AA9,3PQ8K71NHYNVQOJ3ES39HGC7UT3AA9,263495,263495,,,,
,,,,,,,,4,3.23676,0,25,25,20,1,A1OKNQ2JEXW34Q,151,wolfe_076_L_hook-a_w_outline.jpg,wolfe_076_L_hook-b_w_outline.jpg,34,m,A1OKNQ2JEXW34Q,2020-12-11_13h21.30.980,MetaAwareness,2020.1.2,Win32,60,3PMR2DOWOP4GW9TBKTXZ8JFXN2J45S,3PQ8K71NHYNVQOJ3ES39HGC7UT3AA9,NKQP5,NKQP5,3PQ8K71NHYNVQOJ3ES39HGC7UT3AA9,3PQ8K71NHYNVQOJ3ES39HGC7UT3AA9,263495,263495,,,,
,,,,,,,,4,3.28749,0,26,26,17,1,A1OKNQ2JEXW34Q,135,wolfe_068_L_faucet-a_w_outline.jpg,wolfe_068_L_faucet-b_w_outline.jpg,34,m,A1OKNQ2JEXW34Q,2020-12-11_13h21.30.980,MetaAwareness,2020.1.2,Win32,60,3PMR2DOWOP4GW9TBKTXZ8JFXN2J45S,3PQ8K71NHYNVQOJ3ES39HGC7UT3AA9,NKQP5,NKQP5,3PQ8K71NHYNVQOJ3ES39HGC7UT3AA9,3PQ8K71NHYNVQOJ3ES39HGC7UT3AA9,263495,263495,,,,
,,,,,,,,2,5.23838,0,27,27,5,1,A1OKNQ2JEXW34Q,65,wolfe_033_L_vase-a_w_outline.jpg,wolfe_033_L_vase-b_w_outline.jpg,34,m,A1OKNQ2JEXW34Q,2020-12-11_13h21.30.980,MetaAwareness,2020.1.2,Win32,60,3PMR2DOWOP4GW9TBKTXZ8JFXN2J45S,3PQ8K71NHYNVQOJ3ES39HGC7UT3AA9,NKQP5,NKQP5,3PQ8K71NHYNVQOJ3ES39HGC7UT3AA9,3PQ8K71NHYNVQOJ3ES39HGC7UT3AA9,263495,263495,,,,
,,,,,,,,5,2.93929,0,28,28,0,1,A1OKNQ2JEXW34Q,9,wolfe_005_L_mirror-a_w_outline.jpg,wolfe_005_L_mirror-b_w_outline.jpg,34,m,A1OKNQ2JEXW34Q,2020-12-11_13h21.30.980,MetaAwareness,2020.1.2,Win32,60,3PMR2DOWOP4GW9TBKTXZ8JFXN2J45S,3PQ8K71NHYNVQOJ3ES39HGC7UT3AA9,NKQP5,NKQP5,3PQ8K71NHYNVQOJ3ES39HGC7UT3AA9,3PQ8K71NHYNVQOJ3ES39HGC7UT3AA9,263495,263495,,,,
,,,,,,,,4,3.48703,0,29,29,19,1,A1OKNQ2JEXW34Q,149,wolfe_075_L_light-a_w_outline.jpg,wolfe_075_L_light-b_w_outline.jpg,34,m,A1OKNQ2JEXW34Q,2020-12-11_13h21.30.980,MetaAwareness,2020.1.2,Win32,60,3PMR2DOWOP4GW9TBKTXZ8JFXN2J45S,3PQ8K71NHYNVQOJ3ES39HGC7UT3AA9,NKQP5,NKQP5,3PQ8K71NHYNVQOJ3ES39HGC7UT3AA9,3PQ8K71NHYNVQOJ3ES39HGC7UT3AA9,263495,263495,,,,
,,,,,,,,,,,,,,,A1OKNQ2JEXW34Q,,,,34,m,A1OKNQ2JEXW34Q,2020-12-11_13h21.30.980,MetaAwareness,2020.1.2,Win32,60,3PMR2DOWOP4GW9TBKTXZ8JFXN2J45S,3PQ8K71NHYNVQOJ3ES39HGC7UT3AA9,NKQP5,NKQP5,3PQ8K71NHYNVQOJ3ES39HGC7UT3AA9,3PQ8K71NHYNVQOJ3ES39HGC7UT3AA9,263495,263495,5,1.26981,2,5.40419
