consent_response.keys,consent_response.rt,key_resp_2.keys,key_resp_2.rt,Airplane_resp.keys,Airplane_resp.rt,Boat_resp.keys,Boat_resp.rt,user_resp.keys,user_resp.rt,trials.thisRepN,trials.thisTrialN,trials.thisN,trials.thisIndex,trials.ran,workerId,trial_num,image_a,image_b,age,gender (m/f),worker_ID,date,expName,psychopyVersion,OS,frameRate,hitId,assignmentId,a,tp_a,b,tp_b,c,tp_c,Cow_resp.keys,Cow_resp.rt,Garden_resp.keys,Garden_resp.rt
space,7.891,space,26.675,5,7.349,3,8.729,1,15.216,0,0,0,15,1,A1YQPMQQB1IS1Q,79,wolfe_040_L_painting-a_w_outline.jpg,wolfe_040_L_painting-b_w_outline.jpg,32,m,A1YQPMQQB1IS1Q,2020-12-11_13h46.48.001,MetaAwareness,2020.1.2,Win32,60,3Y3N5A7N4HCU2NS11Z2S5AUQ4Y8YMX,3RRCEFRB7NFL798EB5TEZOADK1WB4Y,BERR5,BERR5,3RRCEFRB7NFL798EB5TEZOADK1WB4Y,3RRCEFRB7NFL798EB5TEZOADK1WB4Y,263495,263495,,,,
,,,,,,,,4,7.103,0,1,1,4,1,A1YQPMQQB1IS1Q,21,wolfe_011_L_parfum-a_w_outline.jpg,wolfe_011_L_parfum-b_w_outline.jpg,32,m,A1YQPMQQB1IS1Q,2020-12-11_13h46.48.001,MetaAwareness,2020.1.2,Win32,60,3Y3N5A7N4HCU2NS11Z2S5AUQ4Y8YMX,3RRCEFRB7NFL798EB5TEZOADK1WB4Y,BERR5,BERR5,3RRCEFRB7NFL798EB5TEZOADK1WB4Y,3RRCEFRB7NFL798EB5TEZOADK1WB4Y,263495,263495,,,,
,,,,,,,,5,5.33,0,2,2,24,1,A1YQPMQQB1IS1Q,215,wolfe_108_L_boa-a_w_outline.jpg,wolfe_108_L_boa-b_w_outline.jpg,32,m,A1YQPMQQB1IS1Q,2020-12-11_13h46.48.001,MetaAwareness,2020.1.2,Win32,60,3Y3N5A7N4HCU2NS11Z2S5AUQ4Y8YMX,3RRCEFRB7NFL798EB5TEZOADK1WB4Y,BERR5,BERR5,3RRCEFRB7NFL798EB5TEZOADK1WB4Y,3RRCEFRB7NFL798EB5TEZOADK1WB4Y,263495,263495,,,,
,,,,,,,,4,7.047,0,3,3,21,1,A1YQPMQQB1IS1Q,189,wolfe_095_L_candle-a_w_outline.jpg,wolfe_095_L_candle-b_w_outline.jpg,32,m,A1YQPMQQB1IS1Q,2020-12-11_13h46.48.001,MetaAwareness,2020.1.2,Win32,60,3Y3N5A7N4HCU2NS11Z2S5AUQ4Y8YMX,3RRCEFRB7NFL798EB5TEZOADK1WB4Y,BERR5,BERR5,3RRCEFRB7NFL798EB5TEZOADK1WB4Y,3RRCEFRB7NFL798EB5TEZOADK1WB4Y,263495,263495,,,,
,,,,,,,,5,6.003,0,4,4,17,1,A1YQPMQQB1IS1Q,107,wolfe_054_L_firewood-a_w_outline.jpg,wolfe_054_L_firewood-b_w_outline.jpg,32,m,A1YQPMQQB1IS1Q,2020-12-11_13h46.48.001,MetaAwareness,2020.1.2,Win32,60,3Y3N5A7N4HCU2NS11Z2S5AUQ4Y8YMX,3RRCEFRB7NFL798EB5TEZOADK1WB4Y,BERR5,BERR5,3RRCEFRB7NFL798EB5TEZOADK1WB4Y,3RRCEFRB7NFL798EB5TEZOADK1WB4Y,263495,263495,,,,
,,,,,,,,3,6.992,0,5,5,29,1,A1YQPMQQB1IS1Q,255,wolfe_128_L_pot-a_w_outline.jpg,wolfe_128_L_pot-b_w_outline.jpg,32,m,A1YQPMQQB1IS1Q,2020-12-11_13h46.48.001,MetaAwareness,2020.1.2,Win32,60,3Y3N5A7N4HCU2NS11Z2S5AUQ4Y8YMX,3RRCEFRB7NFL798EB5TEZOADK1WB4Y,BERR5,BERR5,3RRCEFRB7NFL798EB5TEZOADK1WB4Y,3RRCEFRB7NFL798EB5TEZOADK1WB4Y,263495,263495,,,,
,,,,,,,,5,7.871,0,6,6,9,1,A1YQPMQQB1IS1Q,43,wolfe_022_L_lamp-a_w_outline.jpg,wolfe_022_L_lamp-b_w_outline.jpg,32,m,A1YQPMQQB1IS1Q,2020-12-11_13h46.48.001,MetaAwareness,2020.1.2,Win32,60,3Y3N5A7N4HCU2NS11Z2S5AUQ4Y8YMX,3RRCEFRB7NFL798EB5TEZOADK1WB4Y,BERR5,BERR5,3RRCEFRB7NFL798EB5TEZOADK1WB4Y,3RRCEFRB7NFL798EB5TEZOADK1WB4Y,263495,263495,,,,
,,,,,,,,4,5.172,0,7,7,10,1,A1YQPMQQB1IS1Q,59,wolfe_030_L_drawer-a_w_outline.jpg,wolfe_030_L_drawer-b_w_outline.jpg,32,m,A1YQPMQQB1IS1Q,2020-12-11_13h46.48.001,MetaAwareness,2020.1.2,Win32,60,3Y3N5A7N4HCU2NS11Z2S5AUQ4Y8YMX,3RRCEFRB7NFL798EB5TEZOADK1WB4Y,BERR5,BERR5,3RRCEFRB7NFL798EB5TEZOADK1WB4Y,3RRCEFRB7NFL798EB5TEZOADK1WB4Y,263495,263495,,,,
,,,,,,,,3,4.109,0,8,8,23,1,A1YQPMQQB1IS1Q,213,wolfe_107_L_shirts-a_w_outline.jpg,wolfe_107_L_shirts-b_w_outline.jpg,32,m,A1YQPMQQB1IS1Q,2020-12-11_13h46.48.001,MetaAwareness,2020.1.2,Win32,60,3Y3N5A7N4HCU2NS11Z2S5AUQ4Y8YMX,3RRCEFRB7NFL798EB5TEZOADK1WB4Y,BERR5,BERR5,3RRCEFRB7NFL798EB5TEZOADK1WB4Y,3RRCEFRB7NFL798EB5TEZOADK1WB4Y,263495,263495,,,,
,,,,,,,,4,4.692,0,9,9,13,1,A1YQPMQQB1IS1Q,67,wolfe_034_L_handle-a_w_outline.jpg,wolfe_034_L_handle-b_w_outline.jpg,32,m,A1YQPMQQB1IS1Q,2020-12-11_13h46.48.001,MetaAwareness,2020.1.2,Win32,60,3Y3N5A7N4HCU2NS11Z2S5AUQ4Y8YMX,3RRCEFRB7NFL798EB5TEZOADK1WB4Y,BERR5,BERR5,3RRCEFRB7NFL798EB5TEZOADK1WB4Y,3RRCEFRB7NFL798EB5TEZOADK1WB4Y,263495,263495,,,,
,,,,,,,,5,4.786,0,10,10,0,1,A1YQPMQQB1IS1Q,3,wolfe_002_L_napkin-a_w_outline.jpg,wolfe_002_L_napkin-b_w_outline.jpg,32,m,A1YQPMQQB1IS1Q,2020-12-11_13h46.48.001,MetaAwareness,2020.1.2,Win32,60,3Y3N5A7N4HCU2NS11Z2S5AUQ4Y8YMX,3RRCEFRB7NFL798EB5TEZOADK1WB4Y,BERR5,BERR5,3RRCEFRB7NFL798EB5TEZOADK1WB4Y,3RRCEFRB7NFL798EB5TEZOADK1WB4Y,263495,263495,,,,
,,,,,,,,4,4.444,0,11,11,27,1,A1YQPMQQB1IS1Q,243,wolfe_122_L_chair-a_w_outline.jpg,wolfe_122_L_chair-b_w_outline.jpg,32,m,A1YQPMQQB1IS1Q,2020-12-11_13h46.48.001,MetaAwareness,2020.1.2,Win32,60,3Y3N5A7N4HCU2NS11Z2S5AUQ4Y8YMX,3RRCEFRB7NFL798EB5TEZOADK1WB4Y,BERR5,BERR5,3RRCEFRB7NFL798EB5TEZOADK1WB4Y,3RRCEFRB7NFL798EB5TEZOADK1WB4Y,263495,263495,,,,
,,,,,,,,5,4.393,0,12,12,6,1,A1YQPMQQB1IS1Q,25,wolfe_013_L_lamp-a_w_outline.jpg,wolfe_013_L_lamp-b_w_outline.jpg,32,m,A1YQPMQQB1IS1Q,2020-12-11_13h46.48.001,MetaAwareness,2020.1.2,Win32,60,3Y3N5A7N4HCU2NS11Z2S5AUQ4Y8YMX,3RRCEFRB7NFL798EB5TEZOADK1WB4Y,BERR5,BERR5,3RRCEFRB7NFL798EB5TEZOADK1WB4Y,3RRCEFRB7NFL798EB5TEZOADK1WB4Y,263495,263495,,,,
,,,,,,,,4,6.416,0,13,13,1,1,A1YQPMQQB1IS1Q,5,wolfe_003_L_ducks-a_w_outline.jpg,wolfe_003_L_ducks-b_w_outline.jpg,32,m,A1YQPMQQB1IS1Q,2020-12-11_13h46.48.001,MetaAwareness,2020.1.2,Win32,60,3Y3N5A7N4HCU2NS11Z2S5AUQ4Y8YMX,3RRCEFRB7NFL798EB5TEZOADK1WB4Y,BERR5,BERR5,3RRCEFRB7NFL798EB5TEZOADK1WB4Y,3RRCEFRB7NFL798EB5TEZOADK1WB4Y,263495,263495,,,,
,,,,,,,,3,4.387,0,14,14,26,1,A1YQPMQQB1IS1Q,227,wolfe_114_L_bird-a_w_outline.jpg,wolfe_114_L_bird-b_w_outline.jpg,32,m,A1YQPMQQB1IS1Q,2020-12-11_13h46.48.001,MetaAwareness,2020.1.2,Win32,60,3Y3N5A7N4HCU2NS11Z2S5AUQ4Y8YMX,3RRCEFRB7NFL798EB5TEZOADK1WB4Y,BERR5,BERR5,3RRCEFRB7NFL798EB5TEZOADK1WB4Y,3RRCEFRB7NFL798EB5TEZOADK1WB4Y,263495,263495,,,,
,,,,,,,,4,5.331,0,15,15,25,1,A1YQPMQQB1IS1Q,219,wolfe_110_L_plant-a_w_outline.jpg,wolfe_110_L_plant-b_w_outline.jpg,32,m,A1YQPMQQB1IS1Q,2020-12-11_13h46.48.001,MetaAwareness,2020.1.2,Win32,60,3Y3N5A7N4HCU2NS11Z2S5AUQ4Y8YMX,3RRCEFRB7NFL798EB5TEZOADK1WB4Y,BERR5,BERR5,3RRCEFRB7NFL798EB5TEZOADK1WB4Y,3RRCEFRB7NFL798EB5TEZOADK1WB4Y,263495,263495,,,,
,,,,,,,,5,6.047,0,16,16,19,1,A1YQPMQQB1IS1Q,135,wolfe_068_L_faucet-a_w_outline.jpg,wolfe_068_L_faucet-b_w_outline.jpg,32,m,A1YQPMQQB1IS1Q,2020-12-11_13h46.48.001,MetaAwareness,2020.1.2,Win32,60,3Y3N5A7N4HCU2NS11Z2S5AUQ4Y8YMX,3RRCEFRB7NFL798EB5TEZOADK1WB4Y,BERR5,BERR5,3RRCEFRB7NFL798EB5TEZOADK1WB4Y,3RRCEFRB7NFL798EB5TEZOADK1WB4Y,263495,263495,,,,
,,,,,,,,5,6.024,0,17,17,16,1,A1YQPMQQB1IS1Q,101,wolfe_051_L_owl-a_w_outline.jpg,wolfe_051_L_owl-b_w_outline.jpg,32,m,A1YQPMQQB1IS1Q,2020-12-11_13h46.48.001,MetaAwareness,2020.1.2,Win32,60,3Y3N5A7N4HCU2NS11Z2S5AUQ4Y8YMX,3RRCEFRB7NFL798EB5TEZOADK1WB4Y,BERR5,BERR5,3RRCEFRB7NFL798EB5TEZOADK1WB4Y,3RRCEFRB7NFL798EB5TEZOADK1WB4Y,263495,263495,,,,
,,,,,,,,4,5.243,0,18,18,8,1,A1YQPMQQB1IS1Q,35,wolfe_018_L_plant-a_w_outline.jpg,wolfe_018_L_plant-b_w_outline.jpg,32,m,A1YQPMQQB1IS1Q,2020-12-11_13h46.48.001,MetaAwareness,2020.1.2,Win32,60,3Y3N5A7N4HCU2NS11Z2S5AUQ4Y8YMX,3RRCEFRB7NFL798EB5TEZOADK1WB4Y,BERR5,BERR5,3RRCEFRB7NFL798EB5TEZOADK1WB4Y,3RRCEFRB7NFL798EB5TEZOADK1WB4Y,263495,263495,,,,
,,,,,,,,4,4.68,0,19,19,28,1,A1YQPMQQB1IS1Q,253,wolfe_127_L_light-a_w_outline.jpg,wolfe_127_L_light-b_w_outline.jpg,32,m,A1YQPMQQB1IS1Q,2020-12-11_13h46.48.001,MetaAwareness,2020.1.2,Win32,60,3Y3N5A7N4HCU2NS11Z2S5AUQ4Y8YMX,3RRCEFRB7NFL798EB5TEZOADK1WB4Y,BERR5,BERR5,3RRCEFRB7NFL798EB5TEZOADK1WB4Y,3RRCEFRB7NFL798EB5TEZOADK1WB4Y,263495,263495,,,,
,,,,,,,,5,4.079,0,20,20,7,1,A1YQPMQQB1IS1Q,29,wolfe_015_L_ceilinglight-a_w_outline.jpg,wolfe_015_L_ceilinglight-b_w_outline.jpg,32,m,A1YQPMQQB1IS1Q,2020-12-11_13h46.48.001,MetaAwareness,2020.1.2,Win32,60,3Y3N5A7N4HCU2NS11Z2S5AUQ4Y8YMX,3RRCEFRB7NFL798EB5TEZOADK1WB4Y,BERR5,BERR5,3RRCEFRB7NFL798EB5TEZOADK1WB4Y,3RRCEFRB7NFL798EB5TEZOADK1WB4Y,263495,263495,,,,
,,,,,,,,4,4.73,0,21,21,22,1,A1YQPMQQB1IS1Q,209,wolfe_105_L_hat-a_w_outline.jpg,wolfe_105_L_hat-b_w_outline.jpg,32,m,A1YQPMQQB1IS1Q,2020-12-11_13h46.48.001,MetaAwareness,2020.1.2,Win32,60,3Y3N5A7N4HCU2NS11Z2S5AUQ4Y8YMX,3RRCEFRB7NFL798EB5TEZOADK1WB4Y,BERR5,BERR5,3RRCEFRB7NFL798EB5TEZOADK1WB4Y,3RRCEFRB7NFL798EB5TEZOADK1WB4Y,263495,263495,,,,
,,,,,,,,5,4.428,0,22,22,12,1,A1YQPMQQB1IS1Q,63,wolfe_032_L_bottle-a_w_outline.jpg,wolfe_032_L_bottle-b_w_outline.jpg,32,m,A1YQPMQQB1IS1Q,2020-12-11_13h46.48.001,MetaAwareness,2020.1.2,Win32,60,3Y3N5A7N4HCU2NS11Z2S5AUQ4Y8YMX,3RRCEFRB7NFL798EB5TEZOADK1WB4Y,BERR5,BERR5,3RRCEFRB7NFL798EB5TEZOADK1WB4Y,3RRCEFRB7NFL798EB5TEZOADK1WB4Y,263495,263495,,,,
,,,,,,,,5,4.279,0,23,23,14,1,A1YQPMQQB1IS1Q,73,wolfe_037_L_towel-a_w_outline.jpg,wolfe_037_L_towel-b_w_outline.jpg,32,m,A1YQPMQQB1IS1Q,2020-12-11_13h46.48.001,MetaAwareness,2020.1.2,Win32,60,3Y3N5A7N4HCU2NS11Z2S5AUQ4Y8YMX,3RRCEFRB7NFL798EB5TEZOADK1WB4Y,BERR5,BERR5,3RRCEFRB7NFL798EB5TEZOADK1WB4Y,3RRCEFRB7NFL798EB5TEZOADK1WB4Y,263495,263495,,,,
,,,,,,,,4,3.725,0,24,24,18,1,A1YQPMQQB1IS1Q,113,wolfe_057_L_bin-a_w_outline.jpg,wolfe_057_L_bin-b_w_outline.jpg,32,m,A1YQPMQQB1IS1Q,2020-12-11_13h46.48.001,MetaAwareness,2020.1.2,Win32,60,3Y3N5A7N4HCU2NS11Z2S5AUQ4Y8YMX,3RRCEFRB7NFL798EB5TEZOADK1WB4Y,BERR5,BERR5,3RRCEFRB7NFL798EB5TEZOADK1WB4Y,3RRCEFRB7NFL798EB5TEZOADK1WB4Y,263495,263495,,,,
,,,,,,,,5,3.671,0,25,25,5,1,A1YQPMQQB1IS1Q,23,wolfe_012_L_tubaccesory-a_w_outline.jpg,wolfe_012_L_tubaccesory-b_w_outline.jpg,32,m,A1YQPMQQB1IS1Q,2020-12-11_13h46.48.001,MetaAwareness,2020.1.2,Win32,60,3Y3N5A7N4HCU2NS11Z2S5AUQ4Y8YMX,3RRCEFRB7NFL798EB5TEZOADK1WB4Y,BERR5,BERR5,3RRCEFRB7NFL798EB5TEZOADK1WB4Y,3RRCEFRB7NFL798EB5TEZOADK1WB4Y,263495,263495,,,,
,,,,,,,,4,3.739,0,26,26,2,1,A1YQPMQQB1IS1Q,11,wolfe_006_L_vase-a_w_outline.jpg,wolfe_006_L_vase-b_w_outline.jpg,32,m,A1YQPMQQB1IS1Q,2020-12-11_13h46.48.001,MetaAwareness,2020.1.2,Win32,60,3Y3N5A7N4HCU2NS11Z2S5AUQ4Y8YMX,3RRCEFRB7NFL798EB5TEZOADK1WB4Y,BERR5,BERR5,3RRCEFRB7NFL798EB5TEZOADK1WB4Y,3RRCEFRB7NFL798EB5TEZOADK1WB4Y,263495,263495,,,,
,,,,,,,,3,3.587,0,27,27,3,1,A1YQPMQQB1IS1Q,13,wolfe_007_L_soap-a_w_outline.jpg,wolfe_007_L_soap-b_w_outline.jpg,32,m,A1YQPMQQB1IS1Q,2020-12-11_13h46.48.001,MetaAwareness,2020.1.2,Win32,60,3Y3N5A7N4HCU2NS11Z2S5AUQ4Y8YMX,3RRCEFRB7NFL798EB5TEZOADK1WB4Y,BERR5,BERR5,3RRCEFRB7NFL798EB5TEZOADK1WB4Y,3RRCEFRB7NFL798EB5TEZOADK1WB4Y,263495,263495,,,,
,,,,,,,,4,3.264,0,28,28,20,1,A1YQPMQQB1IS1Q,181,wolfe_091_L_airfreshener-a_w_outline.jpg,wolfe_091_L_airfreshener-b_w_outline.jpg,32,m,A1YQPMQQB1IS1Q,2020-12-11_13h46.48.001,MetaAwareness,2020.1.2,Win32,60,3Y3N5A7N4HCU2NS11Z2S5AUQ4Y8YMX,3RRCEFRB7NFL798EB5TEZOADK1WB4Y,BERR5,BERR5,3RRCEFRB7NFL798EB5TEZOADK1WB4Y,3RRCEFRB7NFL798EB5TEZOADK1WB4Y,263495,263495,,,,
,,,,,,,,5,2.921,0,29,29,11,1,A1YQPMQQB1IS1Q,61,wolfe_031_L_log-a_w_outline.jpg,wolfe_031_L_log-b_w_outline.jpg,32,m,A1YQPMQQB1IS1Q,2020-12-11_13h46.48.001,MetaAwareness,2020.1.2,Win32,60,3Y3N5A7N4HCU2NS11Z2S5AUQ4Y8YMX,3RRCEFRB7NFL798EB5TEZOADK1WB4Y,BERR5,BERR5,3RRCEFRB7NFL798EB5TEZOADK1WB4Y,3RRCEFRB7NFL798EB5TEZOADK1WB4Y,263495,263495,,,,
,,,,,,,,,,,,,,,A1YQPMQQB1IS1Q,,,,32,m,A1YQPMQQB1IS1Q,2020-12-11_13h46.48.001,MetaAwareness,2020.1.2,Win32,60,3Y3N5A7N4HCU2NS11Z2S5AUQ4Y8YMX,3RRCEFRB7NFL798EB5TEZOADK1WB4Y,BERR5,BERR5,3RRCEFRB7NFL798EB5TEZOADK1WB4Y,3RRCEFRB7NFL798EB5TEZOADK1WB4Y,263495,263495,5,3.071,4,4.497
