consent_response.keys,consent_response.rt,key_resp_2.keys,key_resp_2.rt,Airplane_resp.keys,Airplane_resp.rt,Boat_resp.keys,Boat_resp.rt,user_resp.keys,user_resp.rt,trials.thisRepN,trials.thisTrialN,trials.thisN,trials.thisIndex,trials.ran,workerId,trial_num,image_a,image_b,age,gender (m/f),worker_ID,date,expName,psychopyVersion,OS,frameRate,hitId,assignmentId,a,tp_a,b,tp_b,c,tp_c,Cow_resp.keys,Cow_resp.rt,Garden_resp.keys,Garden_resp.rt
space,35.11511,space,30.56336,5,5.66747,5,2.10997,2,6.752335,0,0,0,12,1,A1YZ0ETOCJO1B2,69,wolfe_035_L_fruit-a_w_outline.jpg,wolfe_035_L_fruit-b_w_outline.jpg,36,m,A1YZ0ETOCJO1B2,2020-12-08_09h36.17.902,MetaAwareness,2020.1.2,Win32,60,3HEA4ZVWVEPYSSXBYYG9DBLBNV855M,37TRT2X24RUBARRZECGI5QZW2NTJBI,2TT79,2TT79,37TRT2X24RUBARRZECGI5QZW2NTJBI,37TRT2X24RUBARRZECGI5QZW2NTJBI,262619,262619,,,,
,,,,,,,,4,5.5679,0,1,1,25,1,A1YZ0ETOCJO1B2,185,wolfe_093_L_switch-a_w_outline.jpg,wolfe_093_L_switch-b_w_outline.jpg,36,m,A1YZ0ETOCJO1B2,2020-12-08_09h36.17.902,MetaAwareness,2020.1.2,Win32,60,3HEA4ZVWVEPYSSXBYYG9DBLBNV855M,37TRT2X24RUBARRZECGI5QZW2NTJBI,2TT79,2TT79,37TRT2X24RUBARRZECGI5QZW2NTJBI,37TRT2X24RUBARRZECGI5QZW2NTJBI,262619,262619,,,,
,,,,,,,,1,11.21147,0,2,2,4,1,A1YZ0ETOCJO1B2,29,wolfe_015_L_ceilinglight-a_w_outline.jpg,wolfe_015_L_ceilinglight-b_w_outline.jpg,36,m,A1YZ0ETOCJO1B2,2020-12-08_09h36.17.902,MetaAwareness,2020.1.2,Win32,60,3HEA4ZVWVEPYSSXBYYG9DBLBNV855M,37TRT2X24RUBARRZECGI5QZW2NTJBI,2TT79,2TT79,37TRT2X24RUBARRZECGI5QZW2NTJBI,37TRT2X24RUBARRZECGI5QZW2NTJBI,262619,262619,,,,
,,,,,,,,2,5.052655,0,3,3,7,1,A1YZ0ETOCJO1B2,53,wolfe_027_L_soapdish-a_w_outline.jpg,wolfe_027_L_soapdish-b_w_outline.jpg,36,m,A1YZ0ETOCJO1B2,2020-12-08_09h36.17.902,MetaAwareness,2020.1.2,Win32,60,3HEA4ZVWVEPYSSXBYYG9DBLBNV855M,37TRT2X24RUBARRZECGI5QZW2NTJBI,2TT79,2TT79,37TRT2X24RUBARRZECGI5QZW2NTJBI,37TRT2X24RUBARRZECGI5QZW2NTJBI,262619,262619,,,,
,,,,,,,,4,7.22745,0,4,4,15,1,A1YZ0ETOCJO1B2,123,wolfe_062_L_flowers-a_w_outline.jpg,wolfe_062_L_flowers-b_w_outline.jpg,36,m,A1YZ0ETOCJO1B2,2020-12-08_09h36.17.902,MetaAwareness,2020.1.2,Win32,60,3HEA4ZVWVEPYSSXBYYG9DBLBNV855M,37TRT2X24RUBARRZECGI5QZW2NTJBI,2TT79,2TT79,37TRT2X24RUBARRZECGI5QZW2NTJBI,37TRT2X24RUBARRZECGI5QZW2NTJBI,262619,262619,,,,
,,,,,,,,4,6.05746,0,5,5,28,1,A1YZ0ETOCJO1B2,223,wolfe_112_L_basket-a_w_outline.jpg,wolfe_112_L_basket-b_w_outline.jpg,36,m,A1YZ0ETOCJO1B2,2020-12-08_09h36.17.902,MetaAwareness,2020.1.2,Win32,60,3HEA4ZVWVEPYSSXBYYG9DBLBNV855M,37TRT2X24RUBARRZECGI5QZW2NTJBI,2TT79,2TT79,37TRT2X24RUBARRZECGI5QZW2NTJBI,37TRT2X24RUBARRZECGI5QZW2NTJBI,262619,262619,,,,
,,,,,,,,5,5.74493,0,6,6,0,1,A1YZ0ETOCJO1B2,1,wolfe_001_L_mirror-a_w_outline.jpg,wolfe_001_L_mirror-b_w_outline.jpg,36,m,A1YZ0ETOCJO1B2,2020-12-08_09h36.17.902,MetaAwareness,2020.1.2,Win32,60,3HEA4ZVWVEPYSSXBYYG9DBLBNV855M,37TRT2X24RUBARRZECGI5QZW2NTJBI,2TT79,2TT79,37TRT2X24RUBARRZECGI5QZW2NTJBI,37TRT2X24RUBARRZECGI5QZW2NTJBI,262619,262619,,,,
,,,,,,,,4,4.369455,0,7,7,14,1,A1YZ0ETOCJO1B2,109,wolfe_055_L_carpet-a_w_outline.jpg,wolfe_055_L_carpet-b_w_outline.jpg,36,m,A1YZ0ETOCJO1B2,2020-12-08_09h36.17.902,MetaAwareness,2020.1.2,Win32,60,3HEA4ZVWVEPYSSXBYYG9DBLBNV855M,37TRT2X24RUBARRZECGI5QZW2NTJBI,2TT79,2TT79,37TRT2X24RUBARRZECGI5QZW2NTJBI,37TRT2X24RUBARRZECGI5QZW2NTJBI,262619,262619,,,,
,,,,,,,,4,4.999145,0,8,8,8,1,A1YZ0ETOCJO1B2,57,wolfe_029_L_glass-a_w_outline.jpg,wolfe_029_L_glass-b_w_outline.jpg,36,m,A1YZ0ETOCJO1B2,2020-12-08_09h36.17.902,MetaAwareness,2020.1.2,Win32,60,3HEA4ZVWVEPYSSXBYYG9DBLBNV855M,37TRT2X24RUBARRZECGI5QZW2NTJBI,2TT79,2TT79,37TRT2X24RUBARRZECGI5QZW2NTJBI,37TRT2X24RUBARRZECGI5QZW2NTJBI,262619,262619,,,,
,,,,,,,,5,5.02772,0,9,9,11,1,A1YZ0ETOCJO1B2,67,wolfe_034_L_handle-a_w_outline.jpg,wolfe_034_L_handle-b_w_outline.jpg,36,m,A1YZ0ETOCJO1B2,2020-12-08_09h36.17.902,MetaAwareness,2020.1.2,Win32,60,3HEA4ZVWVEPYSSXBYYG9DBLBNV855M,37TRT2X24RUBARRZECGI5QZW2NTJBI,2TT79,2TT79,37TRT2X24RUBARRZECGI5QZW2NTJBI,37TRT2X24RUBARRZECGI5QZW2NTJBI,262619,262619,,,,
,,,,,,,,5,4.45673,0,10,10,6,1,A1YZ0ETOCJO1B2,41,wolfe_021_L_keyboard-a_w_outline.jpg,wolfe_021_L_keyboard-b_w_outline.jpg,36,m,A1YZ0ETOCJO1B2,2020-12-08_09h36.17.902,MetaAwareness,2020.1.2,Win32,60,3HEA4ZVWVEPYSSXBYYG9DBLBNV855M,37TRT2X24RUBARRZECGI5QZW2NTJBI,2TT79,2TT79,37TRT2X24RUBARRZECGI5QZW2NTJBI,37TRT2X24RUBARRZECGI5QZW2NTJBI,262619,262619,,,,
,,,,,,,,4,5.57379,0,11,11,18,1,A1YZ0ETOCJO1B2,143,wolfe_072_L_handle-a_w_outline.jpg,wolfe_072_L_handle-b_w_outline.jpg,36,m,A1YZ0ETOCJO1B2,2020-12-08_09h36.17.902,MetaAwareness,2020.1.2,Win32,60,3HEA4ZVWVEPYSSXBYYG9DBLBNV855M,37TRT2X24RUBARRZECGI5QZW2NTJBI,2TT79,2TT79,37TRT2X24RUBARRZECGI5QZW2NTJBI,37TRT2X24RUBARRZECGI5QZW2NTJBI,262619,262619,,,,
,,,,,,,,5,4.1277,0,12,12,1,1,A1YZ0ETOCJO1B2,9,wolfe_005_L_mirror-a_w_outline.jpg,wolfe_005_L_mirror-b_w_outline.jpg,36,m,A1YZ0ETOCJO1B2,2020-12-08_09h36.17.902,MetaAwareness,2020.1.2,Win32,60,3HEA4ZVWVEPYSSXBYYG9DBLBNV855M,37TRT2X24RUBARRZECGI5QZW2NTJBI,2TT79,2TT79,37TRT2X24RUBARRZECGI5QZW2NTJBI,37TRT2X24RUBARRZECGI5QZW2NTJBI,262619,262619,,,,
,,,,,,,,5,4.04408,0,13,13,5,1,A1YZ0ETOCJO1B2,31,wolfe_016_L_art-a_w_outline.jpg,wolfe_016_L_art-b_w_outline.jpg,36,m,A1YZ0ETOCJO1B2,2020-12-08_09h36.17.902,MetaAwareness,2020.1.2,Win32,60,3HEA4ZVWVEPYSSXBYYG9DBLBNV855M,37TRT2X24RUBARRZECGI5QZW2NTJBI,2TT79,2TT79,37TRT2X24RUBARRZECGI5QZW2NTJBI,37TRT2X24RUBARRZECGI5QZW2NTJBI,262619,262619,,,,
,,,,,,,,2,4.55048,0,14,14,9,1,A1YZ0ETOCJO1B2,59,wolfe_030_L_drawer-a_w_outline.jpg,wolfe_030_L_drawer-b_w_outline.jpg,36,m,A1YZ0ETOCJO1B2,2020-12-08_09h36.17.902,MetaAwareness,2020.1.2,Win32,60,3HEA4ZVWVEPYSSXBYYG9DBLBNV855M,37TRT2X24RUBARRZECGI5QZW2NTJBI,2TT79,2TT79,37TRT2X24RUBARRZECGI5QZW2NTJBI,37TRT2X24RUBARRZECGI5QZW2NTJBI,262619,262619,,,,
,,,,,,,,4,12.31188,0,15,15,27,1,A1YZ0ETOCJO1B2,217,wolfe_109_L_pillow-a_w_outline.jpg,wolfe_109_L_pillow-b_w_outline.jpg,36,m,A1YZ0ETOCJO1B2,2020-12-08_09h36.17.902,MetaAwareness,2020.1.2,Win32,60,3HEA4ZVWVEPYSSXBYYG9DBLBNV855M,37TRT2X24RUBARRZECGI5QZW2NTJBI,2TT79,2TT79,37TRT2X24RUBARRZECGI5QZW2NTJBI,37TRT2X24RUBARRZECGI5QZW2NTJBI,262619,262619,,,,
,,,,,,,,3,7.743055,0,16,16,29,1,A1YZ0ETOCJO1B2,225,wolfe_113_L_plant-a_w_outline.jpg,wolfe_113_L_plant-b_w_outline.jpg,36,m,A1YZ0ETOCJO1B2,2020-12-08_09h36.17.902,MetaAwareness,2020.1.2,Win32,60,3HEA4ZVWVEPYSSXBYYG9DBLBNV855M,37TRT2X24RUBARRZECGI5QZW2NTJBI,2TT79,2TT79,37TRT2X24RUBARRZECGI5QZW2NTJBI,37TRT2X24RUBARRZECGI5QZW2NTJBI,262619,262619,,,,
,,,,,,,,1,4.62391,0,17,17,21,1,A1YZ0ETOCJO1B2,161,wolfe_081_L_football-a_w_outline.jpg,wolfe_081_L_football-b_w_outline.jpg,36,m,A1YZ0ETOCJO1B2,2020-12-08_09h36.17.902,MetaAwareness,2020.1.2,Win32,60,3HEA4ZVWVEPYSSXBYYG9DBLBNV855M,37TRT2X24RUBARRZECGI5QZW2NTJBI,2TT79,2TT79,37TRT2X24RUBARRZECGI5QZW2NTJBI,37TRT2X24RUBARRZECGI5QZW2NTJBI,262619,262619,,,,
,,,,,,,,4,6.50792,0,18,18,26,1,A1YZ0ETOCJO1B2,205,wolfe_103_L_hook-a_w_outline.jpg,wolfe_103_L_hook-b_w_outline.jpg,36,m,A1YZ0ETOCJO1B2,2020-12-08_09h36.17.902,MetaAwareness,2020.1.2,Win32,60,3HEA4ZVWVEPYSSXBYYG9DBLBNV855M,37TRT2X24RUBARRZECGI5QZW2NTJBI,2TT79,2TT79,37TRT2X24RUBARRZECGI5QZW2NTJBI,37TRT2X24RUBARRZECGI5QZW2NTJBI,262619,262619,,,,
,,,,,,,,4,5.605375,0,19,19,2,1,A1YZ0ETOCJO1B2,13,wolfe_007_L_soap-a_w_outline.jpg,wolfe_007_L_soap-b_w_outline.jpg,36,m,A1YZ0ETOCJO1B2,2020-12-08_09h36.17.902,MetaAwareness,2020.1.2,Win32,60,3HEA4ZVWVEPYSSXBYYG9DBLBNV855M,37TRT2X24RUBARRZECGI5QZW2NTJBI,2TT79,2TT79,37TRT2X24RUBARRZECGI5QZW2NTJBI,37TRT2X24RUBARRZECGI5QZW2NTJBI,262619,262619,,,,
,,,,,,,,5,4.030295,0,20,20,19,1,A1YZ0ETOCJO1B2,147,wolfe_074_L_book-a_w_outline.jpg,wolfe_074_L_book-b_w_outline.jpg,36,m,A1YZ0ETOCJO1B2,2020-12-08_09h36.17.902,MetaAwareness,2020.1.2,Win32,60,3HEA4ZVWVEPYSSXBYYG9DBLBNV855M,37TRT2X24RUBARRZECGI5QZW2NTJBI,2TT79,2TT79,37TRT2X24RUBARRZECGI5QZW2NTJBI,37TRT2X24RUBARRZECGI5QZW2NTJBI,262619,262619,,,,
,,,,,,,,1,5.55998,0,21,21,16,1,A1YZ0ETOCJO1B2,125,wolfe_063_L_laptop-a_w_outline.jpg,wolfe_063_L_laptop-b_w_outline.jpg,36,m,A1YZ0ETOCJO1B2,2020-12-08_09h36.17.902,MetaAwareness,2020.1.2,Win32,60,3HEA4ZVWVEPYSSXBYYG9DBLBNV855M,37TRT2X24RUBARRZECGI5QZW2NTJBI,2TT79,2TT79,37TRT2X24RUBARRZECGI5QZW2NTJBI,37TRT2X24RUBARRZECGI5QZW2NTJBI,262619,262619,,,,
,,,,,,,,4,5.12092,0,22,22,24,1,A1YZ0ETOCJO1B2,179,wolfe_090_L_lamp-a_w_outline.jpg,wolfe_090_L_lamp-b_w_outline.jpg,36,m,A1YZ0ETOCJO1B2,2020-12-08_09h36.17.902,MetaAwareness,2020.1.2,Win32,60,3HEA4ZVWVEPYSSXBYYG9DBLBNV855M,37TRT2X24RUBARRZECGI5QZW2NTJBI,2TT79,2TT79,37TRT2X24RUBARRZECGI5QZW2NTJBI,37TRT2X24RUBARRZECGI5QZW2NTJBI,262619,262619,,,,
,,,,,,,,2,5.249325,0,23,23,10,1,A1YZ0ETOCJO1B2,63,wolfe_032_L_bottle-a_w_outline.jpg,wolfe_032_L_bottle-b_w_outline.jpg,36,m,A1YZ0ETOCJO1B2,2020-12-08_09h36.17.902,MetaAwareness,2020.1.2,Win32,60,3HEA4ZVWVEPYSSXBYYG9DBLBNV855M,37TRT2X24RUBARRZECGI5QZW2NTJBI,2TT79,2TT79,37TRT2X24RUBARRZECGI5QZW2NTJBI,37TRT2X24RUBARRZECGI5QZW2NTJBI,262619,262619,,,,
,,,,,,,,5,4.653605,0,24,24,20,1,A1YZ0ETOCJO1B2,155,wolfe_078_L_faucet-a_w_outline.jpg,wolfe_078_L_faucet-b_w_outline.jpg,36,m,A1YZ0ETOCJO1B2,2020-12-08_09h36.17.902,MetaAwareness,2020.1.2,Win32,60,3HEA4ZVWVEPYSSXBYYG9DBLBNV855M,37TRT2X24RUBARRZECGI5QZW2NTJBI,2TT79,2TT79,37TRT2X24RUBARRZECGI5QZW2NTJBI,37TRT2X24RUBARRZECGI5QZW2NTJBI,262619,262619,,,,
,,,,,,,,4,4.736265,0,25,25,13,1,A1YZ0ETOCJO1B2,81,wolfe_041_L_fruit-a_w_outline.jpg,wolfe_041_L_fruit-b_w_outline.jpg,36,m,A1YZ0ETOCJO1B2,2020-12-08_09h36.17.902,MetaAwareness,2020.1.2,Win32,60,3HEA4ZVWVEPYSSXBYYG9DBLBNV855M,37TRT2X24RUBARRZECGI5QZW2NTJBI,2TT79,2TT79,37TRT2X24RUBARRZECGI5QZW2NTJBI,37TRT2X24RUBARRZECGI5QZW2NTJBI,262619,262619,,,,
,,,,,,,,3,6.67172,0,26,26,3,1,A1YZ0ETOCJO1B2,23,wolfe_012_L_tubaccesory-a_w_outline.jpg,wolfe_012_L_tubaccesory-b_w_outline.jpg,36,m,A1YZ0ETOCJO1B2,2020-12-08_09h36.17.902,MetaAwareness,2020.1.2,Win32,60,3HEA4ZVWVEPYSSXBYYG9DBLBNV855M,37TRT2X24RUBARRZECGI5QZW2NTJBI,2TT79,2TT79,37TRT2X24RUBARRZECGI5QZW2NTJBI,37TRT2X24RUBARRZECGI5QZW2NTJBI,262619,262619,,,,
,,,,,,,,5,3.565725,0,27,27,22,1,A1YZ0ETOCJO1B2,165,wolfe_083_L_knob-a_w_outline.jpg,wolfe_083_L_knob-b_w_outline.jpg,36,m,A1YZ0ETOCJO1B2,2020-12-08_09h36.17.902,MetaAwareness,2020.1.2,Win32,60,3HEA4ZVWVEPYSSXBYYG9DBLBNV855M,37TRT2X24RUBARRZECGI5QZW2NTJBI,2TT79,2TT79,37TRT2X24RUBARRZECGI5QZW2NTJBI,37TRT2X24RUBARRZECGI5QZW2NTJBI,262619,262619,,,,
,,,,,,,,4,5.57145,0,28,28,23,1,A1YZ0ETOCJO1B2,175,wolfe_088_L_clock-a_w_outline.jpg,wolfe_088_L_clock-b_w_outline.jpg,36,m,A1YZ0ETOCJO1B2,2020-12-08_09h36.17.902,MetaAwareness,2020.1.2,Win32,60,3HEA4ZVWVEPYSSXBYYG9DBLBNV855M,37TRT2X24RUBARRZECGI5QZW2NTJBI,2TT79,2TT79,37TRT2X24RUBARRZECGI5QZW2NTJBI,37TRT2X24RUBARRZECGI5QZW2NTJBI,262619,262619,,,,
,,,,,,,,5,3.355345,0,29,29,17,1,A1YZ0ETOCJO1B2,127,wolfe_064_L_bottles-a_w_outline.jpg,wolfe_064_L_bottles-b_w_outline.jpg,36,m,A1YZ0ETOCJO1B2,2020-12-08_09h36.17.902,MetaAwareness,2020.1.2,Win32,60,3HEA4ZVWVEPYSSXBYYG9DBLBNV855M,37TRT2X24RUBARRZECGI5QZW2NTJBI,2TT79,2TT79,37TRT2X24RUBARRZECGI5QZW2NTJBI,37TRT2X24RUBARRZECGI5QZW2NTJBI,262619,262619,,,,
,,,,,,,,,,,,,,,A1YZ0ETOCJO1B2,,,,36,m,A1YZ0ETOCJO1B2,2020-12-08_09h36.17.902,MetaAwareness,2020.1.2,Win32,60,3HEA4ZVWVEPYSSXBYYG9DBLBNV855M,37TRT2X24RUBARRZECGI5QZW2NTJBI,2TT79,2TT79,37TRT2X24RUBARRZECGI5QZW2NTJBI,37TRT2X24RUBARRZECGI5QZW2NTJBI,262619,262619,5,2.03709,4,17.024
