consent_response.keys,consent_response.rt,key_resp_2.keys,key_resp_2.rt,Airplane_resp.keys,Airplane_resp.rt,Boat_resp.keys,Boat_resp.rt,user_resp.keys,user_resp.rt,trials.thisRepN,trials.thisTrialN,trials.thisN,trials.thisIndex,trials.ran,workerId,trial_num,image_a,image_b,age,gender (m/f),worker_ID,date,expName,psychopyVersion,OS,frameRate,hitId,assignmentId,a,tp_a,b,tp_b,c,tp_c,Cow_resp.keys,Cow_resp.rt,Garden_resp.keys,Garden_resp.rt
space,6.07611,space,24.20199,5,2.496495,5,2.439175,3,4.0745,0,0,0,29,1,A1ZT30BGR3266K,251,wolfe_126_L_candles-a_w_outline.jpg,wolfe_126_L_candles-b_w_outline.jpg,36,f,A1ZT30BGR3266K,2020-12-08_20h16.45.079,MetaAwareness,2020.1.2,Win32,60,30Y6N4AHYQZI1SA2ABBVEOEZSU7DRS,3M0BCWMB8WZXGBRYLBZXUGT44LVBW2,BC0M8,BC0M8,3M0BCWMB8WZXGBRYLBZXUGT44LVBW2,3M0BCWMB8WZXGBRYLBZXUGT44LVBW2,262738,262738,,,,
,,,,,,,,4,5.140885,0,1,1,26,1,A1ZT30BGR3266K,239,wolfe_120_L_art-a_w_outline.jpg,wolfe_120_L_art-b_w_outline.jpg,36,f,A1ZT30BGR3266K,2020-12-08_20h16.45.079,MetaAwareness,2020.1.2,Win32,60,30Y6N4AHYQZI1SA2ABBVEOEZSU7DRS,3M0BCWMB8WZXGBRYLBZXUGT44LVBW2,BC0M8,BC0M8,3M0BCWMB8WZXGBRYLBZXUGT44LVBW2,3M0BCWMB8WZXGBRYLBZXUGT44LVBW2,262738,262738,,,,
,,,,,,,,2,4.608075,0,2,2,14,1,A1ZT30BGR3266K,161,wolfe_081_L_football-a_w_outline.jpg,wolfe_081_L_football-b_w_outline.jpg,36,f,A1ZT30BGR3266K,2020-12-08_20h16.45.079,MetaAwareness,2020.1.2,Win32,60,30Y6N4AHYQZI1SA2ABBVEOEZSU7DRS,3M0BCWMB8WZXGBRYLBZXUGT44LVBW2,BC0M8,BC0M8,3M0BCWMB8WZXGBRYLBZXUGT44LVBW2,3M0BCWMB8WZXGBRYLBZXUGT44LVBW2,262738,262738,,,,
,,,,,,,,1,4.45761,0,3,3,13,1,A1ZT30BGR3266K,145,wolfe_073_L_coffeemug-a_w_outline.jpg,wolfe_073_L_coffeemug-b_w_outline.jpg,36,f,A1ZT30BGR3266K,2020-12-08_20h16.45.079,MetaAwareness,2020.1.2,Win32,60,30Y6N4AHYQZI1SA2ABBVEOEZSU7DRS,3M0BCWMB8WZXGBRYLBZXUGT44LVBW2,BC0M8,BC0M8,3M0BCWMB8WZXGBRYLBZXUGT44LVBW2,3M0BCWMB8WZXGBRYLBZXUGT44LVBW2,262738,262738,,,,
,,,,,,,,4,3.60613,0,4,4,22,1,A1ZT30BGR3266K,203,wolfe_102_L_shoppingbag-a_w_outline.jpg,wolfe_102_L_shoppingbag-b_w_outline.jpg,36,f,A1ZT30BGR3266K,2020-12-08_20h16.45.079,MetaAwareness,2020.1.2,Win32,60,30Y6N4AHYQZI1SA2ABBVEOEZSU7DRS,3M0BCWMB8WZXGBRYLBZXUGT44LVBW2,BC0M8,BC0M8,3M0BCWMB8WZXGBRYLBZXUGT44LVBW2,3M0BCWMB8WZXGBRYLBZXUGT44LVBW2,262738,262738,,,,
,,,,,,,,2,5.84632,0,5,5,18,1,A1ZT30BGR3266K,181,wolfe_091_L_airfreshener-a_w_outline.jpg,wolfe_091_L_airfreshener-b_w_outline.jpg,36,f,A1ZT30BGR3266K,2020-12-08_20h16.45.079,MetaAwareness,2020.1.2,Win32,60,30Y6N4AHYQZI1SA2ABBVEOEZSU7DRS,3M0BCWMB8WZXGBRYLBZXUGT44LVBW2,BC0M8,BC0M8,3M0BCWMB8WZXGBRYLBZXUGT44LVBW2,3M0BCWMB8WZXGBRYLBZXUGT44LVBW2,262738,262738,,,,
,,,,,,,,5,3.52113,0,6,6,25,1,A1ZT30BGR3266K,233,wolfe_117_L_plant_sized-a_w_outline.jpg,wolfe_117_L_plant_sized-b_w_outline.jpg,36,f,A1ZT30BGR3266K,2020-12-08_20h16.45.079,MetaAwareness,2020.1.2,Win32,60,30Y6N4AHYQZI1SA2ABBVEOEZSU7DRS,3M0BCWMB8WZXGBRYLBZXUGT44LVBW2,BC0M8,BC0M8,3M0BCWMB8WZXGBRYLBZXUGT44LVBW2,3M0BCWMB8WZXGBRYLBZXUGT44LVBW2,262738,262738,,,,
,,,,,,,,2,4.1677,0,7,7,23,1,A1ZT30BGR3266K,207,wolfe_104_L_bottle-a_w_outline.jpg,wolfe_104_L_bottle-b_w_outline.jpg,36,f,A1ZT30BGR3266K,2020-12-08_20h16.45.079,MetaAwareness,2020.1.2,Win32,60,30Y6N4AHYQZI1SA2ABBVEOEZSU7DRS,3M0BCWMB8WZXGBRYLBZXUGT44LVBW2,BC0M8,BC0M8,3M0BCWMB8WZXGBRYLBZXUGT44LVBW2,3M0BCWMB8WZXGBRYLBZXUGT44LVBW2,262738,262738,,,,
,,,,,,,,3,5.02236,0,8,8,11,1,A1ZT30BGR3266K,127,wolfe_064_L_bottles-a_w_outline.jpg,wolfe_064_L_bottles-b_w_outline.jpg,36,f,A1ZT30BGR3266K,2020-12-08_20h16.45.079,MetaAwareness,2020.1.2,Win32,60,30Y6N4AHYQZI1SA2ABBVEOEZSU7DRS,3M0BCWMB8WZXGBRYLBZXUGT44LVBW2,BC0M8,BC0M8,3M0BCWMB8WZXGBRYLBZXUGT44LVBW2,3M0BCWMB8WZXGBRYLBZXUGT44LVBW2,262738,262738,,,,
,,,,,,,,2,4.691535,0,9,9,17,1,A1ZT30BGR3266K,177,wolfe_089_L_poster-a_w_outline.jpg,wolfe_089_L_poster-b_w_outline.jpg,36,f,A1ZT30BGR3266K,2020-12-08_20h16.45.079,MetaAwareness,2020.1.2,Win32,60,30Y6N4AHYQZI1SA2ABBVEOEZSU7DRS,3M0BCWMB8WZXGBRYLBZXUGT44LVBW2,BC0M8,BC0M8,3M0BCWMB8WZXGBRYLBZXUGT44LVBW2,3M0BCWMB8WZXGBRYLBZXUGT44LVBW2,262738,262738,,,,
,,,,,,,,1,4.601265,0,10,10,7,1,A1ZT30BGR3266K,105,wolfe_053_L_handle-a_w_outline.jpg,wolfe_053_L_handle-b_w_outline.jpg,36,f,A1ZT30BGR3266K,2020-12-08_20h16.45.079,MetaAwareness,2020.1.2,Win32,60,30Y6N4AHYQZI1SA2ABBVEOEZSU7DRS,3M0BCWMB8WZXGBRYLBZXUGT44LVBW2,BC0M8,BC0M8,3M0BCWMB8WZXGBRYLBZXUGT44LVBW2,3M0BCWMB8WZXGBRYLBZXUGT44LVBW2,262738,262738,,,,
,,,,,,,,2,3.60839,0,11,11,20,1,A1ZT30BGR3266K,191,wolfe_096_L_painting-a_w_outline.jpg,wolfe_096_L_painting-b_w_outline.jpg,36,f,A1ZT30BGR3266K,2020-12-08_20h16.45.079,MetaAwareness,2020.1.2,Win32,60,30Y6N4AHYQZI1SA2ABBVEOEZSU7DRS,3M0BCWMB8WZXGBRYLBZXUGT44LVBW2,BC0M8,BC0M8,3M0BCWMB8WZXGBRYLBZXUGT44LVBW2,3M0BCWMB8WZXGBRYLBZXUGT44LVBW2,262738,262738,,,,
,,,,,,,,3,3.723525,0,12,12,10,1,A1ZT30BGR3266K,119,wolfe_060_L_pillow-a_w_outline.jpg,wolfe_060_L_pillow-b_w_outline.jpg,36,f,A1ZT30BGR3266K,2020-12-08_20h16.45.079,MetaAwareness,2020.1.2,Win32,60,30Y6N4AHYQZI1SA2ABBVEOEZSU7DRS,3M0BCWMB8WZXGBRYLBZXUGT44LVBW2,BC0M8,BC0M8,3M0BCWMB8WZXGBRYLBZXUGT44LVBW2,3M0BCWMB8WZXGBRYLBZXUGT44LVBW2,262738,262738,,,,
,,,,,,,,4,3.157455,0,13,13,16,1,A1ZT30BGR3266K,173,wolfe_087_L_towelhandle-a_w_outline.jpg,wolfe_087_L_towelhandle-b_w_outline.jpg,36,f,A1ZT30BGR3266K,2020-12-08_20h16.45.079,MetaAwareness,2020.1.2,Win32,60,30Y6N4AHYQZI1SA2ABBVEOEZSU7DRS,3M0BCWMB8WZXGBRYLBZXUGT44LVBW2,BC0M8,BC0M8,3M0BCWMB8WZXGBRYLBZXUGT44LVBW2,3M0BCWMB8WZXGBRYLBZXUGT44LVBW2,262738,262738,,,,
,,,,,,,,2,4.361705,0,14,14,28,1,A1ZT30BGR3266K,249,wolfe_125_L_sofa-a_w_outline.jpg,wolfe_125_L_sofa-b_w_outline.jpg,36,f,A1ZT30BGR3266K,2020-12-08_20h16.45.079,MetaAwareness,2020.1.2,Win32,60,30Y6N4AHYQZI1SA2ABBVEOEZSU7DRS,3M0BCWMB8WZXGBRYLBZXUGT44LVBW2,BC0M8,BC0M8,3M0BCWMB8WZXGBRYLBZXUGT44LVBW2,3M0BCWMB8WZXGBRYLBZXUGT44LVBW2,262738,262738,,,,
,,,,,,,,4,3.52958,0,15,15,6,1,A1ZT30BGR3266K,97,wolfe_049_L_painting-a_w_outline.jpg,wolfe_049_L_painting-b_w_outline.jpg,36,f,A1ZT30BGR3266K,2020-12-08_20h16.45.079,MetaAwareness,2020.1.2,Win32,60,30Y6N4AHYQZI1SA2ABBVEOEZSU7DRS,3M0BCWMB8WZXGBRYLBZXUGT44LVBW2,BC0M8,BC0M8,3M0BCWMB8WZXGBRYLBZXUGT44LVBW2,3M0BCWMB8WZXGBRYLBZXUGT44LVBW2,262738,262738,,,,
,,,,,,,,4,3.1719,0,16,16,5,1,A1ZT30BGR3266K,79,wolfe_040_L_painting-a_w_outline.jpg,wolfe_040_L_painting-b_w_outline.jpg,36,f,A1ZT30BGR3266K,2020-12-08_20h16.45.079,MetaAwareness,2020.1.2,Win32,60,30Y6N4AHYQZI1SA2ABBVEOEZSU7DRS,3M0BCWMB8WZXGBRYLBZXUGT44LVBW2,BC0M8,BC0M8,3M0BCWMB8WZXGBRYLBZXUGT44LVBW2,3M0BCWMB8WZXGBRYLBZXUGT44LVBW2,262738,262738,,,,
,,,,,,,,4,3.47302,0,17,17,27,1,A1ZT30BGR3266K,247,wolfe_124_L_vase-a_w_outline.jpg,wolfe_124_L_vase-b_w_outline.jpg,36,f,A1ZT30BGR3266K,2020-12-08_20h16.45.079,MetaAwareness,2020.1.2,Win32,60,30Y6N4AHYQZI1SA2ABBVEOEZSU7DRS,3M0BCWMB8WZXGBRYLBZXUGT44LVBW2,BC0M8,BC0M8,3M0BCWMB8WZXGBRYLBZXUGT44LVBW2,3M0BCWMB8WZXGBRYLBZXUGT44LVBW2,262738,262738,,,,
,,,,,,,,3,3.241815,0,18,18,9,1,A1ZT30BGR3266K,109,wolfe_055_L_carpet-a_w_outline.jpg,wolfe_055_L_carpet-b_w_outline.jpg,36,f,A1ZT30BGR3266K,2020-12-08_20h16.45.079,MetaAwareness,2020.1.2,Win32,60,30Y6N4AHYQZI1SA2ABBVEOEZSU7DRS,3M0BCWMB8WZXGBRYLBZXUGT44LVBW2,BC0M8,BC0M8,3M0BCWMB8WZXGBRYLBZXUGT44LVBW2,3M0BCWMB8WZXGBRYLBZXUGT44LVBW2,262738,262738,,,,
,,,,,,,,3,4.112225,0,19,19,12,1,A1ZT30BGR3266K,137,wolfe_069_L_things-a_w_outline.jpg,wolfe_069_L_things-b_w_outline.jpg,36,f,A1ZT30BGR3266K,2020-12-08_20h16.45.079,MetaAwareness,2020.1.2,Win32,60,30Y6N4AHYQZI1SA2ABBVEOEZSU7DRS,3M0BCWMB8WZXGBRYLBZXUGT44LVBW2,BC0M8,BC0M8,3M0BCWMB8WZXGBRYLBZXUGT44LVBW2,3M0BCWMB8WZXGBRYLBZXUGT44LVBW2,262738,262738,,,,
,,,,,,,,4,3.19295,0,20,20,0,1,A1ZT30BGR3266K,9,wolfe_005_L_mirror-a_w_outline.jpg,wolfe_005_L_mirror-b_w_outline.jpg,36,f,A1ZT30BGR3266K,2020-12-08_20h16.45.079,MetaAwareness,2020.1.2,Win32,60,30Y6N4AHYQZI1SA2ABBVEOEZSU7DRS,3M0BCWMB8WZXGBRYLBZXUGT44LVBW2,BC0M8,BC0M8,3M0BCWMB8WZXGBRYLBZXUGT44LVBW2,3M0BCWMB8WZXGBRYLBZXUGT44LVBW2,262738,262738,,,,
,,,,,,,,2,4.53868,0,21,21,24,1,A1ZT30BGR3266K,217,wolfe_109_L_pillow-a_w_outline.jpg,wolfe_109_L_pillow-b_w_outline.jpg,36,f,A1ZT30BGR3266K,2020-12-08_20h16.45.079,MetaAwareness,2020.1.2,Win32,60,30Y6N4AHYQZI1SA2ABBVEOEZSU7DRS,3M0BCWMB8WZXGBRYLBZXUGT44LVBW2,BC0M8,BC0M8,3M0BCWMB8WZXGBRYLBZXUGT44LVBW2,3M0BCWMB8WZXGBRYLBZXUGT44LVBW2,262738,262738,,,,
,,,,,,,,1,3.856465,0,22,22,4,1,A1ZT30BGR3266K,73,wolfe_037_L_towel-a_w_outline.jpg,wolfe_037_L_towel-b_w_outline.jpg,36,f,A1ZT30BGR3266K,2020-12-08_20h16.45.079,MetaAwareness,2020.1.2,Win32,60,30Y6N4AHYQZI1SA2ABBVEOEZSU7DRS,3M0BCWMB8WZXGBRYLBZXUGT44LVBW2,BC0M8,BC0M8,3M0BCWMB8WZXGBRYLBZXUGT44LVBW2,3M0BCWMB8WZXGBRYLBZXUGT44LVBW2,262738,262738,,,,
,,,,,,,,2,3.339385,0,23,23,1,1,A1ZT30BGR3266K,29,wolfe_015_L_ceilinglight-a_w_outline.jpg,wolfe_015_L_ceilinglight-b_w_outline.jpg,36,f,A1ZT30BGR3266K,2020-12-08_20h16.45.079,MetaAwareness,2020.1.2,Win32,60,30Y6N4AHYQZI1SA2ABBVEOEZSU7DRS,3M0BCWMB8WZXGBRYLBZXUGT44LVBW2,BC0M8,BC0M8,3M0BCWMB8WZXGBRYLBZXUGT44LVBW2,3M0BCWMB8WZXGBRYLBZXUGT44LVBW2,262738,262738,,,,
,,,,,,,,4,2.944205,0,24,24,2,1,A1ZT30BGR3266K,37,wolfe_019_L_lamp_sized-a_w_outline.jpg,wolfe_019_L_lamp_sized-b_w_outline.jpg,36,f,A1ZT30BGR3266K,2020-12-08_20h16.45.079,MetaAwareness,2020.1.2,Win32,60,30Y6N4AHYQZI1SA2ABBVEOEZSU7DRS,3M0BCWMB8WZXGBRYLBZXUGT44LVBW2,BC0M8,BC0M8,3M0BCWMB8WZXGBRYLBZXUGT44LVBW2,3M0BCWMB8WZXGBRYLBZXUGT44LVBW2,262738,262738,,,,
,,,,,,,,2,4.324215,0,25,25,3,1,A1ZT30BGR3266K,71,wolfe_036_L_bowl-a_w_outline.jpg,wolfe_036_L_bowl-b_w_outline.jpg,36,f,A1ZT30BGR3266K,2020-12-08_20h16.45.079,MetaAwareness,2020.1.2,Win32,60,30Y6N4AHYQZI1SA2ABBVEOEZSU7DRS,3M0BCWMB8WZXGBRYLBZXUGT44LVBW2,BC0M8,BC0M8,3M0BCWMB8WZXGBRYLBZXUGT44LVBW2,3M0BCWMB8WZXGBRYLBZXUGT44LVBW2,262738,262738,,,,
,,,,,,,,2,4.49785,0,26,26,19,1,A1ZT30BGR3266K,189,wolfe_095_L_candle-a_w_outline.jpg,wolfe_095_L_candle-b_w_outline.jpg,36,f,A1ZT30BGR3266K,2020-12-08_20h16.45.079,MetaAwareness,2020.1.2,Win32,60,30Y6N4AHYQZI1SA2ABBVEOEZSU7DRS,3M0BCWMB8WZXGBRYLBZXUGT44LVBW2,BC0M8,BC0M8,3M0BCWMB8WZXGBRYLBZXUGT44LVBW2,3M0BCWMB8WZXGBRYLBZXUGT44LVBW2,262738,262738,,,,
,,,,,,,,4,3.287855,0,27,27,21,1,A1ZT30BGR3266K,197,wolfe_099_L_sconce-a_w_outline.jpg,wolfe_099_L_sconce-b_w_outline.jpg,36,f,A1ZT30BGR3266K,2020-12-08_20h16.45.079,MetaAwareness,2020.1.2,Win32,60,30Y6N4AHYQZI1SA2ABBVEOEZSU7DRS,3M0BCWMB8WZXGBRYLBZXUGT44LVBW2,BC0M8,BC0M8,3M0BCWMB8WZXGBRYLBZXUGT44LVBW2,3M0BCWMB8WZXGBRYLBZXUGT44LVBW2,262738,262738,,,,
,,,,,,,,1,4.257485,0,28,28,15,1,A1ZT30BGR3266K,169,wolfe_085_L_switchboard-a_w_outline.jpg,wolfe_085_L_switchboard-b_w_outline.jpg,36,f,A1ZT30BGR3266K,2020-12-08_20h16.45.079,MetaAwareness,2020.1.2,Win32,60,30Y6N4AHYQZI1SA2ABBVEOEZSU7DRS,3M0BCWMB8WZXGBRYLBZXUGT44LVBW2,BC0M8,BC0M8,3M0BCWMB8WZXGBRYLBZXUGT44LVBW2,3M0BCWMB8WZXGBRYLBZXUGT44LVBW2,262738,262738,,,,
,,,,,,,,4,3.692665,0,29,29,8,1,A1ZT30BGR3266K,107,wolfe_054_L_firewood-a_w_outline.jpg,wolfe_054_L_firewood-b_w_outline.jpg,36,f,A1ZT30BGR3266K,2020-12-08_20h16.45.079,MetaAwareness,2020.1.2,Win32,60,30Y6N4AHYQZI1SA2ABBVEOEZSU7DRS,3M0BCWMB8WZXGBRYLBZXUGT44LVBW2,BC0M8,BC0M8,3M0BCWMB8WZXGBRYLBZXUGT44LVBW2,3M0BCWMB8WZXGBRYLBZXUGT44LVBW2,262738,262738,,,,
,,,,,,,,,,,,,,,A1ZT30BGR3266K,,,,36,f,A1ZT30BGR3266K,2020-12-08_20h16.45.079,MetaAwareness,2020.1.2,Win32,60,30Y6N4AHYQZI1SA2ABBVEOEZSU7DRS,3M0BCWMB8WZXGBRYLBZXUGT44LVBW2,BC0M8,BC0M8,3M0BCWMB8WZXGBRYLBZXUGT44LVBW2,3M0BCWMB8WZXGBRYLBZXUGT44LVBW2,262738,262738,5,1.52144,1,5.10413
