consent_response.keys,consent_response.rt,key_resp_2.keys,key_resp_2.rt,Airplane_resp.keys,Airplane_resp.rt,Boat_resp.keys,Boat_resp.rt,user_resp.keys,user_resp.rt,trials.thisRepN,trials.thisTrialN,trials.thisN,trials.thisIndex,trials.ran,workerId,trial_num,image_a,image_b,age,gender (m/f),worker_ID,date,expName,psychopyVersion,OS,frameRate,hitId,assignmentId,a,tp_a,b,tp_b,c,tp_c,Cow_resp.keys,Cow_resp.rt,Garden_resp.keys,Garden_resp.rt
space,54.78728,space,3.164095,5,37.20197,4,22.491305,4,14.19152,0,0,0,19,1,A2HMQE0UEJFMR4,189,wolfe_095_L_candle-a_w_outline.jpg,wolfe_095_L_candle-b_w_outline.jpg,50,female,A2HMQE0UEJFMR4,2020-12-09_10h38.50.914,MetaAwareness,2020.1.2,Win32,60,3F6045TU7ER0U21Z4E6717VFVO1991,3GS6S824SR0ZHKGVO146LBTYLBPNWL,4SSG8,4SSG8,3GS6S824SR0ZHKGVO146LBTYLBPNWL,3GS6S824SR0ZHKGVO146LBTYLBPNWL,262738,262738,,,,
,,,,,,,,3,14.86226,0,1,1,20,1,A2HMQE0UEJFMR4,193,wolfe_097_L_light-a_w_outline.jpg,wolfe_097_L_light-b_w_outline.jpg,50,female,A2HMQE0UEJFMR4,2020-12-09_10h38.50.914,MetaAwareness,2020.1.2,Win32,60,3F6045TU7ER0U21Z4E6717VFVO1991,3GS6S824SR0ZHKGVO146LBTYLBPNWL,4SSG8,4SSG8,3GS6S824SR0ZHKGVO146LBTYLBPNWL,3GS6S824SR0ZHKGVO146LBTYLBPNWL,262738,262738,,,,
,,,,,,,,4,8.488075,0,2,2,5,1,A2HMQE0UEJFMR4,63,wolfe_032_L_bottle-a_w_outline.jpg,wolfe_032_L_bottle-b_w_outline.jpg,50,female,A2HMQE0UEJFMR4,2020-12-09_10h38.50.914,MetaAwareness,2020.1.2,Win32,60,3F6045TU7ER0U21Z4E6717VFVO1991,3GS6S824SR0ZHKGVO146LBTYLBPNWL,4SSG8,4SSG8,3GS6S824SR0ZHKGVO146LBTYLBPNWL,3GS6S824SR0ZHKGVO146LBTYLBPNWL,262738,262738,,,,
,,,,,,,,2,4.4683,0,3,3,18,1,A2HMQE0UEJFMR4,183,wolfe_092_L_candles-a_w_outline.jpg,wolfe_092_L_candles-b_w_outline.jpg,50,female,A2HMQE0UEJFMR4,2020-12-09_10h38.50.914,MetaAwareness,2020.1.2,Win32,60,3F6045TU7ER0U21Z4E6717VFVO1991,3GS6S824SR0ZHKGVO146LBTYLBPNWL,4SSG8,4SSG8,3GS6S824SR0ZHKGVO146LBTYLBPNWL,3GS6S824SR0ZHKGVO146LBTYLBPNWL,262738,262738,,,,
,,,,,,,,5,7.111315,0,4,4,14,1,A2HMQE0UEJFMR4,165,wolfe_083_L_knob-a_w_outline.jpg,wolfe_083_L_knob-b_w_outline.jpg,50,female,A2HMQE0UEJFMR4,2020-12-09_10h38.50.914,MetaAwareness,2020.1.2,Win32,60,3F6045TU7ER0U21Z4E6717VFVO1991,3GS6S824SR0ZHKGVO146LBTYLBPNWL,4SSG8,4SSG8,3GS6S824SR0ZHKGVO146LBTYLBPNWL,3GS6S824SR0ZHKGVO146LBTYLBPNWL,262738,262738,,,,
,,,,,,,,3,4.0498,0,5,5,6,1,A2HMQE0UEJFMR4,83,wolfe_042_L_tap-a_w_outline.jpg,wolfe_042_L_tap-b_w_outline.jpg,50,female,A2HMQE0UEJFMR4,2020-12-09_10h38.50.914,MetaAwareness,2020.1.2,Win32,60,3F6045TU7ER0U21Z4E6717VFVO1991,3GS6S824SR0ZHKGVO146LBTYLBPNWL,4SSG8,4SSG8,3GS6S824SR0ZHKGVO146LBTYLBPNWL,3GS6S824SR0ZHKGVO146LBTYLBPNWL,262738,262738,,,,
,,,,,,,,4,4.45143,0,6,6,27,1,A2HMQE0UEJFMR4,235,wolfe_118_L_shoes-a_w_outline.jpg,wolfe_118_L_shoes-b_w_outline.jpg,50,female,A2HMQE0UEJFMR4,2020-12-09_10h38.50.914,MetaAwareness,2020.1.2,Win32,60,3F6045TU7ER0U21Z4E6717VFVO1991,3GS6S824SR0ZHKGVO146LBTYLBPNWL,4SSG8,4SSG8,3GS6S824SR0ZHKGVO146LBTYLBPNWL,3GS6S824SR0ZHKGVO146LBTYLBPNWL,262738,262738,,,,
,,,,,,,,4,5.37466,0,7,7,16,1,A2HMQE0UEJFMR4,173,wolfe_087_L_towelhandle-a_w_outline.jpg,wolfe_087_L_towelhandle-b_w_outline.jpg,50,female,A2HMQE0UEJFMR4,2020-12-09_10h38.50.914,MetaAwareness,2020.1.2,Win32,60,3F6045TU7ER0U21Z4E6717VFVO1991,3GS6S824SR0ZHKGVO146LBTYLBPNWL,4SSG8,4SSG8,3GS6S824SR0ZHKGVO146LBTYLBPNWL,3GS6S824SR0ZHKGVO146LBTYLBPNWL,262738,262738,,,,
,,,,,,,,4,5.84735,0,8,8,10,1,A2HMQE0UEJFMR4,119,wolfe_060_L_pillow-a_w_outline.jpg,wolfe_060_L_pillow-b_w_outline.jpg,50,female,A2HMQE0UEJFMR4,2020-12-09_10h38.50.914,MetaAwareness,2020.1.2,Win32,60,3F6045TU7ER0U21Z4E6717VFVO1991,3GS6S824SR0ZHKGVO146LBTYLBPNWL,4SSG8,4SSG8,3GS6S824SR0ZHKGVO146LBTYLBPNWL,3GS6S824SR0ZHKGVO146LBTYLBPNWL,262738,262738,,,,
,,,,,,,,3,4.93573,0,9,9,23,1,A2HMQE0UEJFMR4,213,wolfe_107_L_shirts-a_w_outline.jpg,wolfe_107_L_shirts-b_w_outline.jpg,50,female,A2HMQE0UEJFMR4,2020-12-09_10h38.50.914,MetaAwareness,2020.1.2,Win32,60,3F6045TU7ER0U21Z4E6717VFVO1991,3GS6S824SR0ZHKGVO146LBTYLBPNWL,4SSG8,4SSG8,3GS6S824SR0ZHKGVO146LBTYLBPNWL,3GS6S824SR0ZHKGVO146LBTYLBPNWL,262738,262738,,,,
,,,,,,,,3,3.63054,0,10,10,21,1,A2HMQE0UEJFMR4,195,wolfe_098_L_slippers-a_w_outline.jpg,wolfe_098_L_slippers-b_w_outline.jpg,50,female,A2HMQE0UEJFMR4,2020-12-09_10h38.50.914,MetaAwareness,2020.1.2,Win32,60,3F6045TU7ER0U21Z4E6717VFVO1991,3GS6S824SR0ZHKGVO146LBTYLBPNWL,4SSG8,4SSG8,3GS6S824SR0ZHKGVO146LBTYLBPNWL,3GS6S824SR0ZHKGVO146LBTYLBPNWL,262738,262738,,,,
,,,,,,,,4,4.32779,0,11,11,28,1,A2HMQE0UEJFMR4,239,wolfe_120_L_art-a_w_outline.jpg,wolfe_120_L_art-b_w_outline.jpg,50,female,A2HMQE0UEJFMR4,2020-12-09_10h38.50.914,MetaAwareness,2020.1.2,Win32,60,3F6045TU7ER0U21Z4E6717VFVO1991,3GS6S824SR0ZHKGVO146LBTYLBPNWL,4SSG8,4SSG8,3GS6S824SR0ZHKGVO146LBTYLBPNWL,3GS6S824SR0ZHKGVO146LBTYLBPNWL,262738,262738,,,,
,,,,,,,,2,5.18268,0,12,12,3,1,A2HMQE0UEJFMR4,35,wolfe_018_L_plant-a_w_outline.jpg,wolfe_018_L_plant-b_w_outline.jpg,50,female,A2HMQE0UEJFMR4,2020-12-09_10h38.50.914,MetaAwareness,2020.1.2,Win32,60,3F6045TU7ER0U21Z4E6717VFVO1991,3GS6S824SR0ZHKGVO146LBTYLBPNWL,4SSG8,4SSG8,3GS6S824SR0ZHKGVO146LBTYLBPNWL,3GS6S824SR0ZHKGVO146LBTYLBPNWL,262738,262738,,,,
,,,,,,,,4,2.91753,0,13,13,12,1,A2HMQE0UEJFMR4,157,wolfe_079_L_bowl-a_w_outline.jpg,wolfe_079_L_bowl-b_w_outline.jpg,50,female,A2HMQE0UEJFMR4,2020-12-09_10h38.50.914,MetaAwareness,2020.1.2,Win32,60,3F6045TU7ER0U21Z4E6717VFVO1991,3GS6S824SR0ZHKGVO146LBTYLBPNWL,4SSG8,4SSG8,3GS6S824SR0ZHKGVO146LBTYLBPNWL,3GS6S824SR0ZHKGVO146LBTYLBPNWL,262738,262738,,,,
,,,,,,,,3,2.172825,0,14,14,13,1,A2HMQE0UEJFMR4,161,wolfe_081_L_football-a_w_outline.jpg,wolfe_081_L_football-b_w_outline.jpg,50,female,A2HMQE0UEJFMR4,2020-12-09_10h38.50.914,MetaAwareness,2020.1.2,Win32,60,3F6045TU7ER0U21Z4E6717VFVO1991,3GS6S824SR0ZHKGVO146LBTYLBPNWL,4SSG8,4SSG8,3GS6S824SR0ZHKGVO146LBTYLBPNWL,3GS6S824SR0ZHKGVO146LBTYLBPNWL,262738,262738,,,,
,,,,,,,,3,3.60657,0,15,15,11,1,A2HMQE0UEJFMR4,127,wolfe_064_L_bottles-a_w_outline.jpg,wolfe_064_L_bottles-b_w_outline.jpg,50,female,A2HMQE0UEJFMR4,2020-12-09_10h38.50.914,MetaAwareness,2020.1.2,Win32,60,3F6045TU7ER0U21Z4E6717VFVO1991,3GS6S824SR0ZHKGVO146LBTYLBPNWL,4SSG8,4SSG8,3GS6S824SR0ZHKGVO146LBTYLBPNWL,3GS6S824SR0ZHKGVO146LBTYLBPNWL,262738,262738,,,,
,,,,,,,,4,3.01796,0,16,16,2,1,A2HMQE0UEJFMR4,23,wolfe_012_L_tubaccesory-a_w_outline.jpg,wolfe_012_L_tubaccesory-b_w_outline.jpg,50,female,A2HMQE0UEJFMR4,2020-12-09_10h38.50.914,MetaAwareness,2020.1.2,Win32,60,3F6045TU7ER0U21Z4E6717VFVO1991,3GS6S824SR0ZHKGVO146LBTYLBPNWL,4SSG8,4SSG8,3GS6S824SR0ZHKGVO146LBTYLBPNWL,3GS6S824SR0ZHKGVO146LBTYLBPNWL,262738,262738,,,,
,,,,,,,,3,2.13397,0,17,17,15,1,A2HMQE0UEJFMR4,167,wolfe_084_L_light-a_w_outline.jpg,wolfe_084_L_light-b_w_outline.jpg,50,female,A2HMQE0UEJFMR4,2020-12-09_10h38.50.914,MetaAwareness,2020.1.2,Win32,60,3F6045TU7ER0U21Z4E6717VFVO1991,3GS6S824SR0ZHKGVO146LBTYLBPNWL,4SSG8,4SSG8,3GS6S824SR0ZHKGVO146LBTYLBPNWL,3GS6S824SR0ZHKGVO146LBTYLBPNWL,262738,262738,,,,
,,,,,,,,4,4.799335,0,18,18,8,1,A2HMQE0UEJFMR4,105,wolfe_053_L_handle-a_w_outline.jpg,wolfe_053_L_handle-b_w_outline.jpg,50,female,A2HMQE0UEJFMR4,2020-12-09_10h38.50.914,MetaAwareness,2020.1.2,Win32,60,3F6045TU7ER0U21Z4E6717VFVO1991,3GS6S824SR0ZHKGVO146LBTYLBPNWL,4SSG8,4SSG8,3GS6S824SR0ZHKGVO146LBTYLBPNWL,3GS6S824SR0ZHKGVO146LBTYLBPNWL,262738,262738,,,,
,,,,,,,,3,2.69036,0,19,19,4,1,A2HMQE0UEJFMR4,55,wolfe_028_L_vase-a_w_outline.jpg,wolfe_028_L_vase-b_w_outline.jpg,50,female,A2HMQE0UEJFMR4,2020-12-09_10h38.50.914,MetaAwareness,2020.1.2,Win32,60,3F6045TU7ER0U21Z4E6717VFVO1991,3GS6S824SR0ZHKGVO146LBTYLBPNWL,4SSG8,4SSG8,3GS6S824SR0ZHKGVO146LBTYLBPNWL,3GS6S824SR0ZHKGVO146LBTYLBPNWL,262738,262738,,,,
,,,,,,,,3,2.287805,0,20,20,22,1,A2HMQE0UEJFMR4,205,wolfe_103_L_hook-a_w_outline.jpg,wolfe_103_L_hook-b_w_outline.jpg,50,female,A2HMQE0UEJFMR4,2020-12-09_10h38.50.914,MetaAwareness,2020.1.2,Win32,60,3F6045TU7ER0U21Z4E6717VFVO1991,3GS6S824SR0ZHKGVO146LBTYLBPNWL,4SSG8,4SSG8,3GS6S824SR0ZHKGVO146LBTYLBPNWL,3GS6S824SR0ZHKGVO146LBTYLBPNWL,262738,262738,,,,
,,,,,,,,4,1.808605,0,21,21,7,1,A2HMQE0UEJFMR4,87,wolfe_044_L_light-a_w_outline.jpg,wolfe_044_L_light-b_w_outline.jpg,50,female,A2HMQE0UEJFMR4,2020-12-09_10h38.50.914,MetaAwareness,2020.1.2,Win32,60,3F6045TU7ER0U21Z4E6717VFVO1991,3GS6S824SR0ZHKGVO146LBTYLBPNWL,4SSG8,4SSG8,3GS6S824SR0ZHKGVO146LBTYLBPNWL,3GS6S824SR0ZHKGVO146LBTYLBPNWL,262738,262738,,,,
,,,,,,,,4,2.24872,0,22,22,25,1,A2HMQE0UEJFMR4,227,wolfe_114_L_bird-a_w_outline.jpg,wolfe_114_L_bird-b_w_outline.jpg,50,female,A2HMQE0UEJFMR4,2020-12-09_10h38.50.914,MetaAwareness,2020.1.2,Win32,60,3F6045TU7ER0U21Z4E6717VFVO1991,3GS6S824SR0ZHKGVO146LBTYLBPNWL,4SSG8,4SSG8,3GS6S824SR0ZHKGVO146LBTYLBPNWL,3GS6S824SR0ZHKGVO146LBTYLBPNWL,262738,262738,,,,
,,,,,,,,3,2.87668,0,23,23,26,1,A2HMQE0UEJFMR4,231,wolfe_116_L_basket-a_w_outline.jpg,wolfe_116_L_basket-b_w_outline.jpg,50,female,A2HMQE0UEJFMR4,2020-12-09_10h38.50.914,MetaAwareness,2020.1.2,Win32,60,3F6045TU7ER0U21Z4E6717VFVO1991,3GS6S824SR0ZHKGVO146LBTYLBPNWL,4SSG8,4SSG8,3GS6S824SR0ZHKGVO146LBTYLBPNWL,3GS6S824SR0ZHKGVO146LBTYLBPNWL,262738,262738,,,,
,,,,,,,,4,2.493635,0,24,24,29,1,A2HMQE0UEJFMR4,249,wolfe_125_L_sofa-a_w_outline.jpg,wolfe_125_L_sofa-b_w_outline.jpg,50,female,A2HMQE0UEJFMR4,2020-12-09_10h38.50.914,MetaAwareness,2020.1.2,Win32,60,3F6045TU7ER0U21Z4E6717VFVO1991,3GS6S824SR0ZHKGVO146LBTYLBPNWL,4SSG8,4SSG8,3GS6S824SR0ZHKGVO146LBTYLBPNWL,3GS6S824SR0ZHKGVO146LBTYLBPNWL,262738,262738,,,,
,,,,,,,,3,2.35983,0,25,25,24,1,A2HMQE0UEJFMR4,219,wolfe_110_L_plant-a_w_outline.jpg,wolfe_110_L_plant-b_w_outline.jpg,50,female,A2HMQE0UEJFMR4,2020-12-09_10h38.50.914,MetaAwareness,2020.1.2,Win32,60,3F6045TU7ER0U21Z4E6717VFVO1991,3GS6S824SR0ZHKGVO146LBTYLBPNWL,4SSG8,4SSG8,3GS6S824SR0ZHKGVO146LBTYLBPNWL,3GS6S824SR0ZHKGVO146LBTYLBPNWL,262738,262738,,,,
,,,,,,,,3,2.46097,0,26,26,9,1,A2HMQE0UEJFMR4,117,wolfe_059_L_car-a_w_outline.jpg,wolfe_059_L_car-b_w_outline.jpg,50,female,A2HMQE0UEJFMR4,2020-12-09_10h38.50.914,MetaAwareness,2020.1.2,Win32,60,3F6045TU7ER0U21Z4E6717VFVO1991,3GS6S824SR0ZHKGVO146LBTYLBPNWL,4SSG8,4SSG8,3GS6S824SR0ZHKGVO146LBTYLBPNWL,3GS6S824SR0ZHKGVO146LBTYLBPNWL,262738,262738,,,,
,,,,,,,,4,2.042145,0,27,27,0,1,A2HMQE0UEJFMR4,1,wolfe_001_L_mirror-a_w_outline.jpg,wolfe_001_L_mirror-b_w_outline.jpg,50,female,A2HMQE0UEJFMR4,2020-12-09_10h38.50.914,MetaAwareness,2020.1.2,Win32,60,3F6045TU7ER0U21Z4E6717VFVO1991,3GS6S824SR0ZHKGVO146LBTYLBPNWL,4SSG8,4SSG8,3GS6S824SR0ZHKGVO146LBTYLBPNWL,3GS6S824SR0ZHKGVO146LBTYLBPNWL,262738,262738,,,,
,,,,,,,,4,1.838965,0,28,28,17,1,A2HMQE0UEJFMR4,175,wolfe_088_L_clock-a_w_outline.jpg,wolfe_088_L_clock-b_w_outline.jpg,50,female,A2HMQE0UEJFMR4,2020-12-09_10h38.50.914,MetaAwareness,2020.1.2,Win32,60,3F6045TU7ER0U21Z4E6717VFVO1991,3GS6S824SR0ZHKGVO146LBTYLBPNWL,4SSG8,4SSG8,3GS6S824SR0ZHKGVO146LBTYLBPNWL,3GS6S824SR0ZHKGVO146LBTYLBPNWL,262738,262738,,,,
,,,,,,,,4,1.938875,0,29,29,1,1,A2HMQE0UEJFMR4,19,wolfe_010_L_candle-a_w_outline.jpg,wolfe_010_L_candle-b_w_outline.jpg,50,female,A2HMQE0UEJFMR4,2020-12-09_10h38.50.914,MetaAwareness,2020.1.2,Win32,60,3F6045TU7ER0U21Z4E6717VFVO1991,3GS6S824SR0ZHKGVO146LBTYLBPNWL,4SSG8,4SSG8,3GS6S824SR0ZHKGVO146LBTYLBPNWL,3GS6S824SR0ZHKGVO146LBTYLBPNWL,262738,262738,,,,
,,,,,,,,,,,,,,,A2HMQE0UEJFMR4,,,,50,female,A2HMQE0UEJFMR4,2020-12-09_10h38.50.914,MetaAwareness,2020.1.2,Win32,60,3F6045TU7ER0U21Z4E6717VFVO1991,3GS6S824SR0ZHKGVO146LBTYLBPNWL,4SSG8,4SSG8,3GS6S824SR0ZHKGVO146LBTYLBPNWL,3GS6S824SR0ZHKGVO146LBTYLBPNWL,262738,262738,1,2.72706,5,6.595835
