consent_response.keys,consent_response.rt,key_resp_2.keys,key_resp_2.rt,Airplane_resp.keys,Airplane_resp.rt,Boat_resp.keys,Boat_resp.rt,user_resp.keys,user_resp.rt,trials.thisRepN,trials.thisTrialN,trials.thisN,trials.thisIndex,trials.ran,workerId,trial_num,image_a,image_b,age,gender (m/f),worker_ID,date,expName,psychopyVersion,OS,frameRate,hitId,assignmentId,a,tp_a,b,tp_b,c,tp_c,Cow_resp.keys,Cow_resp.rt,Garden_resp.keys,Garden_resp.rt
space,12.79447,space,23.60159,5,3.223675,5,3.325135,1,4.313965,0,0,0,4,1,A2XQ3CFB5HT2ZQ,25,wolfe_013_L_lamp-a_w_outline.jpg,wolfe_013_L_lamp-b_w_outline.jpg,58,f,A2XQ3CFB5HT2ZQ,2020-12-18_08h42.43.751,MetaAwareness,2020.1.2,Win32,60,3APP19WN72HSRTM9KD959EQ0ACAG6Z,3LS2AMNW5GTCF8KLD75D8BBHPTUQO0,WASL0,WASL0,3LS2AMNW5GTCF8KLD75D8BBHPTUQO0,3LS2AMNW5GTCF8KLD75D8BBHPTUQO0,265030,265030,,,,
,,,,,,,,4,5.768865,0,1,1,3,1,A2XQ3CFB5HT2ZQ,17,wolfe_009_L_carpet-a_w_outline.jpg,wolfe_009_L_carpet-b_w_outline.jpg,58,f,A2XQ3CFB5HT2ZQ,2020-12-18_08h42.43.751,MetaAwareness,2020.1.2,Win32,60,3APP19WN72HSRTM9KD959EQ0ACAG6Z,3LS2AMNW5GTCF8KLD75D8BBHPTUQO0,WASL0,WASL0,3LS2AMNW5GTCF8KLD75D8BBHPTUQO0,3LS2AMNW5GTCF8KLD75D8BBHPTUQO0,265030,265030,,,,
,,,,,,,,1,3.142585,0,2,2,28,1,A2XQ3CFB5HT2ZQ,237,wolfe_119_L_painting-a_w_outline.jpg,wolfe_119_L_painting-b_w_outline.jpg,58,f,A2XQ3CFB5HT2ZQ,2020-12-18_08h42.43.751,MetaAwareness,2020.1.2,Win32,60,3APP19WN72HSRTM9KD959EQ0ACAG6Z,3LS2AMNW5GTCF8KLD75D8BBHPTUQO0,WASL0,WASL0,3LS2AMNW5GTCF8KLD75D8BBHPTUQO0,3LS2AMNW5GTCF8KLD75D8BBHPTUQO0,265030,265030,,,,
,,,,,,,,1,3.237305,0,3,3,18,1,A2XQ3CFB5HT2ZQ,181,wolfe_091_L_airfreshener-a_w_outline.jpg,wolfe_091_L_airfreshener-b_w_outline.jpg,58,f,A2XQ3CFB5HT2ZQ,2020-12-18_08h42.43.751,MetaAwareness,2020.1.2,Win32,60,3APP19WN72HSRTM9KD959EQ0ACAG6Z,3LS2AMNW5GTCF8KLD75D8BBHPTUQO0,WASL0,WASL0,3LS2AMNW5GTCF8KLD75D8BBHPTUQO0,3LS2AMNW5GTCF8KLD75D8BBHPTUQO0,265030,265030,,,,
,,,,,,,,1,2.470985,0,4,4,29,1,A2XQ3CFB5HT2ZQ,243,wolfe_122_L_chair-a_w_outline.jpg,wolfe_122_L_chair-b_w_outline.jpg,58,f,A2XQ3CFB5HT2ZQ,2020-12-18_08h42.43.751,MetaAwareness,2020.1.2,Win32,60,3APP19WN72HSRTM9KD959EQ0ACAG6Z,3LS2AMNW5GTCF8KLD75D8BBHPTUQO0,WASL0,WASL0,3LS2AMNW5GTCF8KLD75D8BBHPTUQO0,3LS2AMNW5GTCF8KLD75D8BBHPTUQO0,265030,265030,,,,
,,,,,,,,1,2.835615,0,5,5,14,1,A2XQ3CFB5HT2ZQ,153,wolfe_077_L_footrest-a_w_outline.jpg,wolfe_077_L_footrest-b_w_outline.jpg,58,f,A2XQ3CFB5HT2ZQ,2020-12-18_08h42.43.751,MetaAwareness,2020.1.2,Win32,60,3APP19WN72HSRTM9KD959EQ0ACAG6Z,3LS2AMNW5GTCF8KLD75D8BBHPTUQO0,WASL0,WASL0,3LS2AMNW5GTCF8KLD75D8BBHPTUQO0,3LS2AMNW5GTCF8KLD75D8BBHPTUQO0,265030,265030,,,,
,,,,,,,,2,4.170415,0,6,6,27,1,A2XQ3CFB5HT2ZQ,233,wolfe_117_L_plant_sized-a_w_outline.jpg,wolfe_117_L_plant_sized-b_w_outline.jpg,58,f,A2XQ3CFB5HT2ZQ,2020-12-18_08h42.43.751,MetaAwareness,2020.1.2,Win32,60,3APP19WN72HSRTM9KD959EQ0ACAG6Z,3LS2AMNW5GTCF8KLD75D8BBHPTUQO0,WASL0,WASL0,3LS2AMNW5GTCF8KLD75D8BBHPTUQO0,3LS2AMNW5GTCF8KLD75D8BBHPTUQO0,265030,265030,,,,
,,,,,,,,1,2.844335,0,7,7,8,1,A2XQ3CFB5HT2ZQ,45,wolfe_023_L_remote-a_w_outline.jpg,wolfe_023_L_remote-b_w_outline.jpg,58,f,A2XQ3CFB5HT2ZQ,2020-12-18_08h42.43.751,MetaAwareness,2020.1.2,Win32,60,3APP19WN72HSRTM9KD959EQ0ACAG6Z,3LS2AMNW5GTCF8KLD75D8BBHPTUQO0,WASL0,WASL0,3LS2AMNW5GTCF8KLD75D8BBHPTUQO0,3LS2AMNW5GTCF8KLD75D8BBHPTUQO0,265030,265030,,,,
,,,,,,,,1,2.818255,0,8,8,11,1,A2XQ3CFB5HT2ZQ,81,wolfe_041_L_fruit-a_w_outline.jpg,wolfe_041_L_fruit-b_w_outline.jpg,58,f,A2XQ3CFB5HT2ZQ,2020-12-18_08h42.43.751,MetaAwareness,2020.1.2,Win32,60,3APP19WN72HSRTM9KD959EQ0ACAG6Z,3LS2AMNW5GTCF8KLD75D8BBHPTUQO0,WASL0,WASL0,3LS2AMNW5GTCF8KLD75D8BBHPTUQO0,3LS2AMNW5GTCF8KLD75D8BBHPTUQO0,265030,265030,,,,
,,,,,,,,1,2.41283,0,9,9,0,1,A2XQ3CFB5HT2ZQ,1,wolfe_001_L_mirror-a_w_outline.jpg,wolfe_001_L_mirror-b_w_outline.jpg,58,f,A2XQ3CFB5HT2ZQ,2020-12-18_08h42.43.751,MetaAwareness,2020.1.2,Win32,60,3APP19WN72HSRTM9KD959EQ0ACAG6Z,3LS2AMNW5GTCF8KLD75D8BBHPTUQO0,WASL0,WASL0,3LS2AMNW5GTCF8KLD75D8BBHPTUQO0,3LS2AMNW5GTCF8KLD75D8BBHPTUQO0,265030,265030,,,,
,,,,,,,,1,2.60144,0,10,10,26,1,A2XQ3CFB5HT2ZQ,221,wolfe_111_L_pot-a_w_outline.jpg,wolfe_111_L_pot-b_w_outline.jpg,58,f,A2XQ3CFB5HT2ZQ,2020-12-18_08h42.43.751,MetaAwareness,2020.1.2,Win32,60,3APP19WN72HSRTM9KD959EQ0ACAG6Z,3LS2AMNW5GTCF8KLD75D8BBHPTUQO0,WASL0,WASL0,3LS2AMNW5GTCF8KLD75D8BBHPTUQO0,3LS2AMNW5GTCF8KLD75D8BBHPTUQO0,265030,265030,,,,
,,,,,,,,1,4.192775,0,11,11,7,1,A2XQ3CFB5HT2ZQ,39,wolfe_020_L_walldeco-a_w_outline.jpg,wolfe_020_L_walldeco-b_w_outline.jpg,58,f,A2XQ3CFB5HT2ZQ,2020-12-18_08h42.43.751,MetaAwareness,2020.1.2,Win32,60,3APP19WN72HSRTM9KD959EQ0ACAG6Z,3LS2AMNW5GTCF8KLD75D8BBHPTUQO0,WASL0,WASL0,3LS2AMNW5GTCF8KLD75D8BBHPTUQO0,3LS2AMNW5GTCF8KLD75D8BBHPTUQO0,265030,265030,,,,
,,,,,,,,1,2.20834,0,12,12,15,1,A2XQ3CFB5HT2ZQ,163,wolfe_082_L_bowl-a_w_outline.jpg,wolfe_082_L_bowl-b_w_outline.jpg,58,f,A2XQ3CFB5HT2ZQ,2020-12-18_08h42.43.751,MetaAwareness,2020.1.2,Win32,60,3APP19WN72HSRTM9KD959EQ0ACAG6Z,3LS2AMNW5GTCF8KLD75D8BBHPTUQO0,WASL0,WASL0,3LS2AMNW5GTCF8KLD75D8BBHPTUQO0,3LS2AMNW5GTCF8KLD75D8BBHPTUQO0,265030,265030,,,,
,,,,,,,,1,3.55733,0,13,13,23,1,A2XQ3CFB5HT2ZQ,213,wolfe_107_L_shirts-a_w_outline.jpg,wolfe_107_L_shirts-b_w_outline.jpg,58,f,A2XQ3CFB5HT2ZQ,2020-12-18_08h42.43.751,MetaAwareness,2020.1.2,Win32,60,3APP19WN72HSRTM9KD959EQ0ACAG6Z,3LS2AMNW5GTCF8KLD75D8BBHPTUQO0,WASL0,WASL0,3LS2AMNW5GTCF8KLD75D8BBHPTUQO0,3LS2AMNW5GTCF8KLD75D8BBHPTUQO0,265030,265030,,,,
,,,,,,,,1,4.809875,0,14,14,17,1,A2XQ3CFB5HT2ZQ,177,wolfe_089_L_poster-a_w_outline.jpg,wolfe_089_L_poster-b_w_outline.jpg,58,f,A2XQ3CFB5HT2ZQ,2020-12-18_08h42.43.751,MetaAwareness,2020.1.2,Win32,60,3APP19WN72HSRTM9KD959EQ0ACAG6Z,3LS2AMNW5GTCF8KLD75D8BBHPTUQO0,WASL0,WASL0,3LS2AMNW5GTCF8KLD75D8BBHPTUQO0,3LS2AMNW5GTCF8KLD75D8BBHPTUQO0,265030,265030,,,,
,,,,,,,,2,2.59425,0,15,15,2,1,A2XQ3CFB5HT2ZQ,11,wolfe_006_L_vase-a_w_outline.jpg,wolfe_006_L_vase-b_w_outline.jpg,58,f,A2XQ3CFB5HT2ZQ,2020-12-18_08h42.43.751,MetaAwareness,2020.1.2,Win32,60,3APP19WN72HSRTM9KD959EQ0ACAG6Z,3LS2AMNW5GTCF8KLD75D8BBHPTUQO0,WASL0,WASL0,3LS2AMNW5GTCF8KLD75D8BBHPTUQO0,3LS2AMNW5GTCF8KLD75D8BBHPTUQO0,265030,265030,,,,
,,,,,,,,1,2.455435,0,16,16,16,1,A2XQ3CFB5HT2ZQ,167,wolfe_084_L_light-a_w_outline.jpg,wolfe_084_L_light-b_w_outline.jpg,58,f,A2XQ3CFB5HT2ZQ,2020-12-18_08h42.43.751,MetaAwareness,2020.1.2,Win32,60,3APP19WN72HSRTM9KD959EQ0ACAG6Z,3LS2AMNW5GTCF8KLD75D8BBHPTUQO0,WASL0,WASL0,3LS2AMNW5GTCF8KLD75D8BBHPTUQO0,3LS2AMNW5GTCF8KLD75D8BBHPTUQO0,265030,265030,,,,
,,,,,,,,1,2.733135,0,17,17,10,1,A2XQ3CFB5HT2ZQ,65,wolfe_033_L_vase-a_w_outline.jpg,wolfe_033_L_vase-b_w_outline.jpg,58,f,A2XQ3CFB5HT2ZQ,2020-12-18_08h42.43.751,MetaAwareness,2020.1.2,Win32,60,3APP19WN72HSRTM9KD959EQ0ACAG6Z,3LS2AMNW5GTCF8KLD75D8BBHPTUQO0,WASL0,WASL0,3LS2AMNW5GTCF8KLD75D8BBHPTUQO0,3LS2AMNW5GTCF8KLD75D8BBHPTUQO0,265030,265030,,,,
,,,,,,,,2,3.512105,0,18,18,20,1,A2XQ3CFB5HT2ZQ,185,wolfe_093_L_switch-a_w_outline.jpg,wolfe_093_L_switch-b_w_outline.jpg,58,f,A2XQ3CFB5HT2ZQ,2020-12-18_08h42.43.751,MetaAwareness,2020.1.2,Win32,60,3APP19WN72HSRTM9KD959EQ0ACAG6Z,3LS2AMNW5GTCF8KLD75D8BBHPTUQO0,WASL0,WASL0,3LS2AMNW5GTCF8KLD75D8BBHPTUQO0,3LS2AMNW5GTCF8KLD75D8BBHPTUQO0,265030,265030,,,,
,,,,,,,,1,2.12987,0,19,19,12,1,A2XQ3CFB5HT2ZQ,113,wolfe_057_L_bin-a_w_outline.jpg,wolfe_057_L_bin-b_w_outline.jpg,58,f,A2XQ3CFB5HT2ZQ,2020-12-18_08h42.43.751,MetaAwareness,2020.1.2,Win32,60,3APP19WN72HSRTM9KD959EQ0ACAG6Z,3LS2AMNW5GTCF8KLD75D8BBHPTUQO0,WASL0,WASL0,3LS2AMNW5GTCF8KLD75D8BBHPTUQO0,3LS2AMNW5GTCF8KLD75D8BBHPTUQO0,265030,265030,,,,
,,,,,,,,1,2.777065,0,20,20,19,1,A2XQ3CFB5HT2ZQ,183,wolfe_092_L_candles-a_w_outline.jpg,wolfe_092_L_candles-b_w_outline.jpg,58,f,A2XQ3CFB5HT2ZQ,2020-12-18_08h42.43.751,MetaAwareness,2020.1.2,Win32,60,3APP19WN72HSRTM9KD959EQ0ACAG6Z,3LS2AMNW5GTCF8KLD75D8BBHPTUQO0,WASL0,WASL0,3LS2AMNW5GTCF8KLD75D8BBHPTUQO0,3LS2AMNW5GTCF8KLD75D8BBHPTUQO0,265030,265030,,,,
,,,,,,,,1,2.41094,0,21,21,9,1,A2XQ3CFB5HT2ZQ,55,wolfe_028_L_vase-a_w_outline.jpg,wolfe_028_L_vase-b_w_outline.jpg,58,f,A2XQ3CFB5HT2ZQ,2020-12-18_08h42.43.751,MetaAwareness,2020.1.2,Win32,60,3APP19WN72HSRTM9KD959EQ0ACAG6Z,3LS2AMNW5GTCF8KLD75D8BBHPTUQO0,WASL0,WASL0,3LS2AMNW5GTCF8KLD75D8BBHPTUQO0,3LS2AMNW5GTCF8KLD75D8BBHPTUQO0,265030,265030,,,,
,,,,,,,,4,3.886595,0,22,22,5,1,A2XQ3CFB5HT2ZQ,27,wolfe_014_L_lamp-a_w_outline.jpg,wolfe_014_L_lamp-b_w_outline.jpg,58,f,A2XQ3CFB5HT2ZQ,2020-12-18_08h42.43.751,MetaAwareness,2020.1.2,Win32,60,3APP19WN72HSRTM9KD959EQ0ACAG6Z,3LS2AMNW5GTCF8KLD75D8BBHPTUQO0,WASL0,WASL0,3LS2AMNW5GTCF8KLD75D8BBHPTUQO0,3LS2AMNW5GTCF8KLD75D8BBHPTUQO0,265030,265030,,,,
,,,,,,,,4,3.94097,0,23,23,6,1,A2XQ3CFB5HT2ZQ,35,wolfe_018_L_plant-a_w_outline.jpg,wolfe_018_L_plant-b_w_outline.jpg,58,f,A2XQ3CFB5HT2ZQ,2020-12-18_08h42.43.751,MetaAwareness,2020.1.2,Win32,60,3APP19WN72HSRTM9KD959EQ0ACAG6Z,3LS2AMNW5GTCF8KLD75D8BBHPTUQO0,WASL0,WASL0,3LS2AMNW5GTCF8KLD75D8BBHPTUQO0,3LS2AMNW5GTCF8KLD75D8BBHPTUQO0,265030,265030,,,,
,,,,,,,,1,10.54518,0,24,24,22,1,A2XQ3CFB5HT2ZQ,201,wolfe_101_L_cup-a_w_outline.jpg,wolfe_101_L_cup-b_w_outline.jpg,58,f,A2XQ3CFB5HT2ZQ,2020-12-18_08h42.43.751,MetaAwareness,2020.1.2,Win32,60,3APP19WN72HSRTM9KD959EQ0ACAG6Z,3LS2AMNW5GTCF8KLD75D8BBHPTUQO0,WASL0,WASL0,3LS2AMNW5GTCF8KLD75D8BBHPTUQO0,3LS2AMNW5GTCF8KLD75D8BBHPTUQO0,265030,265030,,,,
,,,,,,,,1,2.067205,0,25,25,24,1,A2XQ3CFB5HT2ZQ,215,wolfe_108_L_boa-a_w_outline.jpg,wolfe_108_L_boa-b_w_outline.jpg,58,f,A2XQ3CFB5HT2ZQ,2020-12-18_08h42.43.751,MetaAwareness,2020.1.2,Win32,60,3APP19WN72HSRTM9KD959EQ0ACAG6Z,3LS2AMNW5GTCF8KLD75D8BBHPTUQO0,WASL0,WASL0,3LS2AMNW5GTCF8KLD75D8BBHPTUQO0,3LS2AMNW5GTCF8KLD75D8BBHPTUQO0,265030,265030,,,,
,,,,,,,,1,2.34724,0,26,26,25,1,A2XQ3CFB5HT2ZQ,217,wolfe_109_L_pillow-a_w_outline.jpg,wolfe_109_L_pillow-b_w_outline.jpg,58,f,A2XQ3CFB5HT2ZQ,2020-12-18_08h42.43.751,MetaAwareness,2020.1.2,Win32,60,3APP19WN72HSRTM9KD959EQ0ACAG6Z,3LS2AMNW5GTCF8KLD75D8BBHPTUQO0,WASL0,WASL0,3LS2AMNW5GTCF8KLD75D8BBHPTUQO0,3LS2AMNW5GTCF8KLD75D8BBHPTUQO0,265030,265030,,,,
,,,,,,,,4,4.506135,0,27,27,1,1,A2XQ3CFB5HT2ZQ,9,wolfe_005_L_mirror-a_w_outline.jpg,wolfe_005_L_mirror-b_w_outline.jpg,58,f,A2XQ3CFB5HT2ZQ,2020-12-18_08h42.43.751,MetaAwareness,2020.1.2,Win32,60,3APP19WN72HSRTM9KD959EQ0ACAG6Z,3LS2AMNW5GTCF8KLD75D8BBHPTUQO0,WASL0,WASL0,3LS2AMNW5GTCF8KLD75D8BBHPTUQO0,3LS2AMNW5GTCF8KLD75D8BBHPTUQO0,265030,265030,,,,
,,,,,,,,1,2.855435,0,28,28,13,1,A2XQ3CFB5HT2ZQ,117,wolfe_059_L_car-a_w_outline.jpg,wolfe_059_L_car-b_w_outline.jpg,58,f,A2XQ3CFB5HT2ZQ,2020-12-18_08h42.43.751,MetaAwareness,2020.1.2,Win32,60,3APP19WN72HSRTM9KD959EQ0ACAG6Z,3LS2AMNW5GTCF8KLD75D8BBHPTUQO0,WASL0,WASL0,3LS2AMNW5GTCF8KLD75D8BBHPTUQO0,3LS2AMNW5GTCF8KLD75D8BBHPTUQO0,265030,265030,,,,
,,,,,,,,1,3.257485,0,29,29,21,1,A2XQ3CFB5HT2ZQ,195,wolfe_098_L_slippers-a_w_outline.jpg,wolfe_098_L_slippers-b_w_outline.jpg,58,f,A2XQ3CFB5HT2ZQ,2020-12-18_08h42.43.751,MetaAwareness,2020.1.2,Win32,60,3APP19WN72HSRTM9KD959EQ0ACAG6Z,3LS2AMNW5GTCF8KLD75D8BBHPTUQO0,WASL0,WASL0,3LS2AMNW5GTCF8KLD75D8BBHPTUQO0,3LS2AMNW5GTCF8KLD75D8BBHPTUQO0,265030,265030,,,,
,,,,,,,,,,,,,,,A2XQ3CFB5HT2ZQ,,,,58,f,A2XQ3CFB5HT2ZQ,2020-12-18_08h42.43.751,MetaAwareness,2020.1.2,Win32,60,3APP19WN72HSRTM9KD959EQ0ACAG6Z,3LS2AMNW5GTCF8KLD75D8BBHPTUQO0,WASL0,WASL0,3LS2AMNW5GTCF8KLD75D8BBHPTUQO0,3LS2AMNW5GTCF8KLD75D8BBHPTUQO0,265030,265030,5,3.06763,1,11.585515
