consent_response.keys,consent_response.rt,key_resp_2.keys,key_resp_2.rt,Airplane_resp.keys,Airplane_resp.rt,Boat_resp.keys,Boat_resp.rt,user_resp.keys,user_resp.rt,trials.thisRepN,trials.thisTrialN,trials.thisN,trials.thisIndex,trials.ran,workerId,trial_num,image_a,image_b,age,gender (m/f),worker_ID,date,expName,psychopyVersion,OS,frameRate,hitId,assignmentId,a,tp_a,b,tp_b,c,tp_c,Cow_resp.keys,Cow_resp.rt,Garden_resp.keys,Garden_resp.rt
space,62.91256,space,18.26003,5,14.87932,5,5.275815,2,4.0993,0,0,0,26,1,A33D6XFZHIRXMM,233,wolfe_117_L_plant_sized-a_w_outline.jpg,wolfe_117_L_plant_sized-b_w_outline.jpg,25,f,A33D6XFZHIRXMM,2020-12-08_14h22.17.200,MetaAwareness,2020.1.2,Win32,60,3EN4YVUOUDVF1AW6T63Y64V0YVLXJI,3OS46CRSLG2EVAAYZADTXYOYJAZV66,S6SO8,S6SO8,3OS46CRSLG2EVAAYZADTXYOYJAZV66,3OS46CRSLG2EVAAYZADTXYOYJAZV66,262738,262738,,,,
,,,,,,,,1,4.15872,0,1,1,2,1,A33D6XFZHIRXMM,25,wolfe_013_L_lamp-a_w_outline.jpg,wolfe_013_L_lamp-b_w_outline.jpg,25,f,A33D6XFZHIRXMM,2020-12-08_14h22.17.200,MetaAwareness,2020.1.2,Win32,60,3EN4YVUOUDVF1AW6T63Y64V0YVLXJI,3OS46CRSLG2EVAAYZADTXYOYJAZV66,S6SO8,S6SO8,3OS46CRSLG2EVAAYZADTXYOYJAZV66,3OS46CRSLG2EVAAYZADTXYOYJAZV66,262738,262738,,,,
,,,,,,,,1,6.46729,0,2,2,16,1,A33D6XFZHIRXMM,143,wolfe_072_L_handle-a_w_outline.jpg,wolfe_072_L_handle-b_w_outline.jpg,25,f,A33D6XFZHIRXMM,2020-12-08_14h22.17.200,MetaAwareness,2020.1.2,Win32,60,3EN4YVUOUDVF1AW6T63Y64V0YVLXJI,3OS46CRSLG2EVAAYZADTXYOYJAZV66,S6SO8,S6SO8,3OS46CRSLG2EVAAYZADTXYOYJAZV66,3OS46CRSLG2EVAAYZADTXYOYJAZV66,262738,262738,,,,
,,,,,,,,1,2.15237,0,3,3,29,1,A33D6XFZHIRXMM,255,wolfe_128_L_pot-a_w_outline.jpg,wolfe_128_L_pot-b_w_outline.jpg,25,f,A33D6XFZHIRXMM,2020-12-08_14h22.17.200,MetaAwareness,2020.1.2,Win32,60,3EN4YVUOUDVF1AW6T63Y64V0YVLXJI,3OS46CRSLG2EVAAYZADTXYOYJAZV66,S6SO8,S6SO8,3OS46CRSLG2EVAAYZADTXYOYJAZV66,3OS46CRSLG2EVAAYZADTXYOYJAZV66,262738,262738,,,,
,,,,,,,,1,3.158895,0,4,4,27,1,A33D6XFZHIRXMM,243,wolfe_122_L_chair-a_w_outline.jpg,wolfe_122_L_chair-b_w_outline.jpg,25,f,A33D6XFZHIRXMM,2020-12-08_14h22.17.200,MetaAwareness,2020.1.2,Win32,60,3EN4YVUOUDVF1AW6T63Y64V0YVLXJI,3OS46CRSLG2EVAAYZADTXYOYJAZV66,S6SO8,S6SO8,3OS46CRSLG2EVAAYZADTXYOYJAZV66,3OS46CRSLG2EVAAYZADTXYOYJAZV66,262738,262738,,,,
,,,,,,,,2,3.05793,0,5,5,7,1,A33D6XFZHIRXMM,83,wolfe_042_L_tap-a_w_outline.jpg,wolfe_042_L_tap-b_w_outline.jpg,25,f,A33D6XFZHIRXMM,2020-12-08_14h22.17.200,MetaAwareness,2020.1.2,Win32,60,3EN4YVUOUDVF1AW6T63Y64V0YVLXJI,3OS46CRSLG2EVAAYZADTXYOYJAZV66,S6SO8,S6SO8,3OS46CRSLG2EVAAYZADTXYOYJAZV66,3OS46CRSLG2EVAAYZADTXYOYJAZV66,262738,262738,,,,
,,,,,,,,1,2.589015,0,6,6,0,1,A33D6XFZHIRXMM,5,wolfe_003_L_ducks-a_w_outline.jpg,wolfe_003_L_ducks-b_w_outline.jpg,25,f,A33D6XFZHIRXMM,2020-12-08_14h22.17.200,MetaAwareness,2020.1.2,Win32,60,3EN4YVUOUDVF1AW6T63Y64V0YVLXJI,3OS46CRSLG2EVAAYZADTXYOYJAZV66,S6SO8,S6SO8,3OS46CRSLG2EVAAYZADTXYOYJAZV66,3OS46CRSLG2EVAAYZADTXYOYJAZV66,262738,262738,,,,
,,,,,,,,1,2.3057,0,7,7,23,1,A33D6XFZHIRXMM,215,wolfe_108_L_boa-a_w_outline.jpg,wolfe_108_L_boa-b_w_outline.jpg,25,f,A33D6XFZHIRXMM,2020-12-08_14h22.17.200,MetaAwareness,2020.1.2,Win32,60,3EN4YVUOUDVF1AW6T63Y64V0YVLXJI,3OS46CRSLG2EVAAYZADTXYOYJAZV66,S6SO8,S6SO8,3OS46CRSLG2EVAAYZADTXYOYJAZV66,3OS46CRSLG2EVAAYZADTXYOYJAZV66,262738,262738,,,,
,,,,,,,,1,2.895725,0,8,8,11,1,A33D6XFZHIRXMM,123,wolfe_062_L_flowers-a_w_outline.jpg,wolfe_062_L_flowers-b_w_outline.jpg,25,f,A33D6XFZHIRXMM,2020-12-08_14h22.17.200,MetaAwareness,2020.1.2,Win32,60,3EN4YVUOUDVF1AW6T63Y64V0YVLXJI,3OS46CRSLG2EVAAYZADTXYOYJAZV66,S6SO8,S6SO8,3OS46CRSLG2EVAAYZADTXYOYJAZV66,3OS46CRSLG2EVAAYZADTXYOYJAZV66,262738,262738,,,,
,,,,,,,,1,2.84896,0,9,9,6,1,A33D6XFZHIRXMM,65,wolfe_033_L_vase-a_w_outline.jpg,wolfe_033_L_vase-b_w_outline.jpg,25,f,A33D6XFZHIRXMM,2020-12-08_14h22.17.200,MetaAwareness,2020.1.2,Win32,60,3EN4YVUOUDVF1AW6T63Y64V0YVLXJI,3OS46CRSLG2EVAAYZADTXYOYJAZV66,S6SO8,S6SO8,3OS46CRSLG2EVAAYZADTXYOYJAZV66,3OS46CRSLG2EVAAYZADTXYOYJAZV66,262738,262738,,,,
,,,,,,,,1,2.19183,0,10,10,12,1,A33D6XFZHIRXMM,125,wolfe_063_L_laptop-a_w_outline.jpg,wolfe_063_L_laptop-b_w_outline.jpg,25,f,A33D6XFZHIRXMM,2020-12-08_14h22.17.200,MetaAwareness,2020.1.2,Win32,60,3EN4YVUOUDVF1AW6T63Y64V0YVLXJI,3OS46CRSLG2EVAAYZADTXYOYJAZV66,S6SO8,S6SO8,3OS46CRSLG2EVAAYZADTXYOYJAZV66,3OS46CRSLG2EVAAYZADTXYOYJAZV66,262738,262738,,,,
,,,,,,,,1,1.972455,0,11,11,18,1,A33D6XFZHIRXMM,161,wolfe_081_L_football-a_w_outline.jpg,wolfe_081_L_football-b_w_outline.jpg,25,f,A33D6XFZHIRXMM,2020-12-08_14h22.17.200,MetaAwareness,2020.1.2,Win32,60,3EN4YVUOUDVF1AW6T63Y64V0YVLXJI,3OS46CRSLG2EVAAYZADTXYOYJAZV66,S6SO8,S6SO8,3OS46CRSLG2EVAAYZADTXYOYJAZV66,3OS46CRSLG2EVAAYZADTXYOYJAZV66,262738,262738,,,,
,,,,,,,,1,3.084065,0,12,12,28,1,A33D6XFZHIRXMM,249,wolfe_125_L_sofa-a_w_outline.jpg,wolfe_125_L_sofa-b_w_outline.jpg,25,f,A33D6XFZHIRXMM,2020-12-08_14h22.17.200,MetaAwareness,2020.1.2,Win32,60,3EN4YVUOUDVF1AW6T63Y64V0YVLXJI,3OS46CRSLG2EVAAYZADTXYOYJAZV66,S6SO8,S6SO8,3OS46CRSLG2EVAAYZADTXYOYJAZV66,3OS46CRSLG2EVAAYZADTXYOYJAZV66,262738,262738,,,,
,,,,,,,,3,3.35662,0,13,13,4,1,A33D6XFZHIRXMM,39,wolfe_020_L_walldeco-a_w_outline.jpg,wolfe_020_L_walldeco-b_w_outline.jpg,25,f,A33D6XFZHIRXMM,2020-12-08_14h22.17.200,MetaAwareness,2020.1.2,Win32,60,3EN4YVUOUDVF1AW6T63Y64V0YVLXJI,3OS46CRSLG2EVAAYZADTXYOYJAZV66,S6SO8,S6SO8,3OS46CRSLG2EVAAYZADTXYOYJAZV66,3OS46CRSLG2EVAAYZADTXYOYJAZV66,262738,262738,,,,
,,,,,,,,2,3.68494,0,14,14,21,1,A33D6XFZHIRXMM,185,wolfe_093_L_switch-a_w_outline.jpg,wolfe_093_L_switch-b_w_outline.jpg,25,f,A33D6XFZHIRXMM,2020-12-08_14h22.17.200,MetaAwareness,2020.1.2,Win32,60,3EN4YVUOUDVF1AW6T63Y64V0YVLXJI,3OS46CRSLG2EVAAYZADTXYOYJAZV66,S6SO8,S6SO8,3OS46CRSLG2EVAAYZADTXYOYJAZV66,3OS46CRSLG2EVAAYZADTXYOYJAZV66,262738,262738,,,,
,,,,,,,,1,2.43633,0,15,15,15,1,A33D6XFZHIRXMM,137,wolfe_069_L_things-a_w_outline.jpg,wolfe_069_L_things-b_w_outline.jpg,25,f,A33D6XFZHIRXMM,2020-12-08_14h22.17.200,MetaAwareness,2020.1.2,Win32,60,3EN4YVUOUDVF1AW6T63Y64V0YVLXJI,3OS46CRSLG2EVAAYZADTXYOYJAZV66,S6SO8,S6SO8,3OS46CRSLG2EVAAYZADTXYOYJAZV66,3OS46CRSLG2EVAAYZADTXYOYJAZV66,262738,262738,,,,
,,,,,,,,1,3.082935,0,16,16,5,1,A33D6XFZHIRXMM,49,wolfe_025_L_vase-a_w_outline.jpg,wolfe_025_L_vase-b_w_outline.jpg,25,f,A33D6XFZHIRXMM,2020-12-08_14h22.17.200,MetaAwareness,2020.1.2,Win32,60,3EN4YVUOUDVF1AW6T63Y64V0YVLXJI,3OS46CRSLG2EVAAYZADTXYOYJAZV66,S6SO8,S6SO8,3OS46CRSLG2EVAAYZADTXYOYJAZV66,3OS46CRSLG2EVAAYZADTXYOYJAZV66,262738,262738,,,,
,,,,,,,,1,3.994525,0,17,17,19,1,A33D6XFZHIRXMM,165,wolfe_083_L_knob-a_w_outline.jpg,wolfe_083_L_knob-b_w_outline.jpg,25,f,A33D6XFZHIRXMM,2020-12-08_14h22.17.200,MetaAwareness,2020.1.2,Win32,60,3EN4YVUOUDVF1AW6T63Y64V0YVLXJI,3OS46CRSLG2EVAAYZADTXYOYJAZV66,S6SO8,S6SO8,3OS46CRSLG2EVAAYZADTXYOYJAZV66,3OS46CRSLG2EVAAYZADTXYOYJAZV66,262738,262738,,,,
,,,,,,,,1,1.8871,0,18,18,10,1,A33D6XFZHIRXMM,113,wolfe_057_L_bin-a_w_outline.jpg,wolfe_057_L_bin-b_w_outline.jpg,25,f,A33D6XFZHIRXMM,2020-12-08_14h22.17.200,MetaAwareness,2020.1.2,Win32,60,3EN4YVUOUDVF1AW6T63Y64V0YVLXJI,3OS46CRSLG2EVAAYZADTXYOYJAZV66,S6SO8,S6SO8,3OS46CRSLG2EVAAYZADTXYOYJAZV66,3OS46CRSLG2EVAAYZADTXYOYJAZV66,262738,262738,,,,
,,,,,,,,1,2.183365,0,19,19,17,1,A33D6XFZHIRXMM,157,wolfe_079_L_bowl-a_w_outline.jpg,wolfe_079_L_bowl-b_w_outline.jpg,25,f,A33D6XFZHIRXMM,2020-12-08_14h22.17.200,MetaAwareness,2020.1.2,Win32,60,3EN4YVUOUDVF1AW6T63Y64V0YVLXJI,3OS46CRSLG2EVAAYZADTXYOYJAZV66,S6SO8,S6SO8,3OS46CRSLG2EVAAYZADTXYOYJAZV66,3OS46CRSLG2EVAAYZADTXYOYJAZV66,262738,262738,,,,
,,,,,,,,1,2.95137,0,20,20,25,1,A33D6XFZHIRXMM,225,wolfe_113_L_plant-a_w_outline.jpg,wolfe_113_L_plant-b_w_outline.jpg,25,f,A33D6XFZHIRXMM,2020-12-08_14h22.17.200,MetaAwareness,2020.1.2,Win32,60,3EN4YVUOUDVF1AW6T63Y64V0YVLXJI,3OS46CRSLG2EVAAYZADTXYOYJAZV66,S6SO8,S6SO8,3OS46CRSLG2EVAAYZADTXYOYJAZV66,3OS46CRSLG2EVAAYZADTXYOYJAZV66,262738,262738,,,,
,,,,,,,,1,2.101475,0,21,21,24,1,A33D6XFZHIRXMM,221,wolfe_111_L_pot-a_w_outline.jpg,wolfe_111_L_pot-b_w_outline.jpg,25,f,A33D6XFZHIRXMM,2020-12-08_14h22.17.200,MetaAwareness,2020.1.2,Win32,60,3EN4YVUOUDVF1AW6T63Y64V0YVLXJI,3OS46CRSLG2EVAAYZADTXYOYJAZV66,S6SO8,S6SO8,3OS46CRSLG2EVAAYZADTXYOYJAZV66,3OS46CRSLG2EVAAYZADTXYOYJAZV66,262738,262738,,,,
,,,,,,,,1,2.59608,0,22,22,13,1,A33D6XFZHIRXMM,129,wolfe_065_L_cd-a_w_outline.jpg,wolfe_065_L_cd-b_w_outline.jpg,25,f,A33D6XFZHIRXMM,2020-12-08_14h22.17.200,MetaAwareness,2020.1.2,Win32,60,3EN4YVUOUDVF1AW6T63Y64V0YVLXJI,3OS46CRSLG2EVAAYZADTXYOYJAZV66,S6SO8,S6SO8,3OS46CRSLG2EVAAYZADTXYOYJAZV66,3OS46CRSLG2EVAAYZADTXYOYJAZV66,262738,262738,,,,
,,,,,,,,3,5.12704,0,23,23,1,1,A33D6XFZHIRXMM,17,wolfe_009_L_carpet-a_w_outline.jpg,wolfe_009_L_carpet-b_w_outline.jpg,25,f,A33D6XFZHIRXMM,2020-12-08_14h22.17.200,MetaAwareness,2020.1.2,Win32,60,3EN4YVUOUDVF1AW6T63Y64V0YVLXJI,3OS46CRSLG2EVAAYZADTXYOYJAZV66,S6SO8,S6SO8,3OS46CRSLG2EVAAYZADTXYOYJAZV66,3OS46CRSLG2EVAAYZADTXYOYJAZV66,262738,262738,,,,
,,,,,,,,1,3.034975,0,24,24,20,1,A33D6XFZHIRXMM,171,wolfe_086_L_book-a_w_outline.jpg,wolfe_086_L_book-b_w_outline.jpg,25,f,A33D6XFZHIRXMM,2020-12-08_14h22.17.200,MetaAwareness,2020.1.2,Win32,60,3EN4YVUOUDVF1AW6T63Y64V0YVLXJI,3OS46CRSLG2EVAAYZADTXYOYJAZV66,S6SO8,S6SO8,3OS46CRSLG2EVAAYZADTXYOYJAZV66,3OS46CRSLG2EVAAYZADTXYOYJAZV66,262738,262738,,,,
,,,,,,,,1,2.42037,0,25,25,22,1,A33D6XFZHIRXMM,201,wolfe_101_L_cup-a_w_outline.jpg,wolfe_101_L_cup-b_w_outline.jpg,25,f,A33D6XFZHIRXMM,2020-12-08_14h22.17.200,MetaAwareness,2020.1.2,Win32,60,3EN4YVUOUDVF1AW6T63Y64V0YVLXJI,3OS46CRSLG2EVAAYZADTXYOYJAZV66,S6SO8,S6SO8,3OS46CRSLG2EVAAYZADTXYOYJAZV66,3OS46CRSLG2EVAAYZADTXYOYJAZV66,262738,262738,,,,
,,,,,,,,3,3.9622,0,26,26,14,1,A33D6XFZHIRXMM,133,wolfe_067_L_painting-a_w_outline.jpg,wolfe_067_L_painting-b_w_outline.jpg,25,f,A33D6XFZHIRXMM,2020-12-08_14h22.17.200,MetaAwareness,2020.1.2,Win32,60,3EN4YVUOUDVF1AW6T63Y64V0YVLXJI,3OS46CRSLG2EVAAYZADTXYOYJAZV66,S6SO8,S6SO8,3OS46CRSLG2EVAAYZADTXYOYJAZV66,3OS46CRSLG2EVAAYZADTXYOYJAZV66,262738,262738,,,,
,,,,,,,,1,2.73843,0,27,27,3,1,A33D6XFZHIRXMM,33,wolfe_017_L_wood-a_w_outline.jpg,wolfe_017_L_wood-b_w_outline.jpg,25,f,A33D6XFZHIRXMM,2020-12-08_14h22.17.200,MetaAwareness,2020.1.2,Win32,60,3EN4YVUOUDVF1AW6T63Y64V0YVLXJI,3OS46CRSLG2EVAAYZADTXYOYJAZV66,S6SO8,S6SO8,3OS46CRSLG2EVAAYZADTXYOYJAZV66,3OS46CRSLG2EVAAYZADTXYOYJAZV66,262738,262738,,,,
,,,,,,,,1,1.86984,0,28,28,8,1,A33D6XFZHIRXMM,105,wolfe_053_L_handle-a_w_outline.jpg,wolfe_053_L_handle-b_w_outline.jpg,25,f,A33D6XFZHIRXMM,2020-12-08_14h22.17.200,MetaAwareness,2020.1.2,Win32,60,3EN4YVUOUDVF1AW6T63Y64V0YVLXJI,3OS46CRSLG2EVAAYZADTXYOYJAZV66,S6SO8,S6SO8,3OS46CRSLG2EVAAYZADTXYOYJAZV66,3OS46CRSLG2EVAAYZADTXYOYJAZV66,262738,262738,,,,
,,,,,,,,3,2.76824,0,29,29,9,1,A33D6XFZHIRXMM,109,wolfe_055_L_carpet-a_w_outline.jpg,wolfe_055_L_carpet-b_w_outline.jpg,25,f,A33D6XFZHIRXMM,2020-12-08_14h22.17.200,MetaAwareness,2020.1.2,Win32,60,3EN4YVUOUDVF1AW6T63Y64V0YVLXJI,3OS46CRSLG2EVAAYZADTXYOYJAZV66,S6SO8,S6SO8,3OS46CRSLG2EVAAYZADTXYOYJAZV66,3OS46CRSLG2EVAAYZADTXYOYJAZV66,262738,262738,,,,
,,,,,,,,,,,,,,,A33D6XFZHIRXMM,,,,25,f,A33D6XFZHIRXMM,2020-12-08_14h22.17.200,MetaAwareness,2020.1.2,Win32,60,3EN4YVUOUDVF1AW6T63Y64V0YVLXJI,3OS46CRSLG2EVAAYZADTXYOYJAZV66,S6SO8,S6SO8,3OS46CRSLG2EVAAYZADTXYOYJAZV66,3OS46CRSLG2EVAAYZADTXYOYJAZV66,262738,262738,5,1.857735,1,4.510785
