consent_response.keys,consent_response.rt,key_resp_2.keys,key_resp_2.rt,Airplane_resp.keys,Airplane_resp.rt,Boat_resp.keys,Boat_resp.rt,user_resp.keys,user_resp.rt,trials.thisRepN,trials.thisTrialN,trials.thisN,trials.thisIndex,trials.ran,workerId,trial_num,image_a,image_b,age,gender (m/f),worker_ID,date,expName,psychopyVersion,OS,frameRate,hitId,assignmentId,a,tp_a,b,tp_b,c,tp_c,Cow_resp.keys,Cow_resp.rt,Garden_resp.keys,Garden_resp.rt
space,30.73437,space,20.452215,5,4.778235,5,1.589205,5,3.81967,0,0,0,0,1,A37MKXCABVF38S,10,wolfe_005_R_mirror-a_w_outline.jpg,wolfe_005_R_mirror-b_w_outline.jpg,38,f,A37MKXCABVF38S,2020-12-09_12h07.56.364,MetaAwareness,2020.1.2,Win32,60,35YHTYFL1H67SJ5FA1BV3L6NPEFVFV,37UEWGM5HUBRVHSKKKW2158EQVBR1K,5WU78,5WU78,37UEWGM5HUBRVHSKKKW2158EQVBR1K,37UEWGM5HUBRVHSKKKW2158EQVBR1K,262738,262738,,,,
,,,,,,,,3,5.058955,0,1,1,23,1,A37MKXCABVF38S,218,wolfe_109_R_pillow-a_w_outline.jpg,wolfe_109_R_pillow-b_w_outline.jpg,38,f,A37MKXCABVF38S,2020-12-09_12h07.56.364,MetaAwareness,2020.1.2,Win32,60,35YHTYFL1H67SJ5FA1BV3L6NPEFVFV,37UEWGM5HUBRVHSKKKW2158EQVBR1K,5WU78,5WU78,37UEWGM5HUBRVHSKKKW2158EQVBR1K,37UEWGM5HUBRVHSKKKW2158EQVBR1K,262738,262738,,,,
,,,,,,,,4,6.56795,0,2,2,22,1,A37MKXCABVF38S,216,wolfe_108_R_boa-a_w_outline.jpg,wolfe_108_R_boa-b_w_outline.jpg,38,f,A37MKXCABVF38S,2020-12-09_12h07.56.364,MetaAwareness,2020.1.2,Win32,60,35YHTYFL1H67SJ5FA1BV3L6NPEFVFV,37UEWGM5HUBRVHSKKKW2158EQVBR1K,5WU78,5WU78,37UEWGM5HUBRVHSKKKW2158EQVBR1K,37UEWGM5HUBRVHSKKKW2158EQVBR1K,262738,262738,,,,
,,,,,,,,2,3.713585,0,3,3,27,1,A37MKXCABVF38S,234,wolfe_117_R_plant_sized-a_w_outline.jpg,wolfe_117_R_plant_sized-b_w_outline.jpg,38,f,A37MKXCABVF38S,2020-12-09_12h07.56.364,MetaAwareness,2020.1.2,Win32,60,35YHTYFL1H67SJ5FA1BV3L6NPEFVFV,37UEWGM5HUBRVHSKKKW2158EQVBR1K,5WU78,5WU78,37UEWGM5HUBRVHSKKKW2158EQVBR1K,37UEWGM5HUBRVHSKKKW2158EQVBR1K,262738,262738,,,,
,,,,,,,,1,2.9318,0,4,4,19,1,A37MKXCABVF38S,184,wolfe_092_R_candles-a_w_outline.jpg,wolfe_092_R_candles-b_w_outline.jpg,38,f,A37MKXCABVF38S,2020-12-09_12h07.56.364,MetaAwareness,2020.1.2,Win32,60,35YHTYFL1H67SJ5FA1BV3L6NPEFVFV,37UEWGM5HUBRVHSKKKW2158EQVBR1K,5WU78,5WU78,37UEWGM5HUBRVHSKKKW2158EQVBR1K,37UEWGM5HUBRVHSKKKW2158EQVBR1K,262738,262738,,,,
,,,,,,,,4,4.69359,0,5,5,1,1,A37MKXCABVF38S,28,wolfe_014_R_lamp-a_w_outline.jpg,wolfe_014_R_lamp-b_w_outline.jpg,38,f,A37MKXCABVF38S,2020-12-09_12h07.56.364,MetaAwareness,2020.1.2,Win32,60,35YHTYFL1H67SJ5FA1BV3L6NPEFVFV,37UEWGM5HUBRVHSKKKW2158EQVBR1K,5WU78,5WU78,37UEWGM5HUBRVHSKKKW2158EQVBR1K,37UEWGM5HUBRVHSKKKW2158EQVBR1K,262738,262738,,,,
,,,,,,,,1,10.53286,0,6,6,21,1,A37MKXCABVF38S,202,wolfe_101_R_cup-a_w_outline.jpg,wolfe_101_R_cup-b_w_outline.jpg,38,f,A37MKXCABVF38S,2020-12-09_12h07.56.364,MetaAwareness,2020.1.2,Win32,60,35YHTYFL1H67SJ5FA1BV3L6NPEFVFV,37UEWGM5HUBRVHSKKKW2158EQVBR1K,5WU78,5WU78,37UEWGM5HUBRVHSKKKW2158EQVBR1K,37UEWGM5HUBRVHSKKKW2158EQVBR1K,262738,262738,,,,
,,,,,,,,3,4.992085,0,7,7,2,1,A37MKXCABVF38S,32,wolfe_016_R_art-a_w_outline.jpg,wolfe_016_R_art-b_w_outline.jpg,38,f,A37MKXCABVF38S,2020-12-09_12h07.56.364,MetaAwareness,2020.1.2,Win32,60,35YHTYFL1H67SJ5FA1BV3L6NPEFVFV,37UEWGM5HUBRVHSKKKW2158EQVBR1K,5WU78,5WU78,37UEWGM5HUBRVHSKKKW2158EQVBR1K,37UEWGM5HUBRVHSKKKW2158EQVBR1K,262738,262738,,,,
,,,,,,,,1,3.23638,0,8,8,25,1,A37MKXCABVF38S,228,wolfe_114_R_bird-a_w_outline.jpg,wolfe_114_R_bird-b_w_outline.jpg,38,f,A37MKXCABVF38S,2020-12-09_12h07.56.364,MetaAwareness,2020.1.2,Win32,60,35YHTYFL1H67SJ5FA1BV3L6NPEFVFV,37UEWGM5HUBRVHSKKKW2158EQVBR1K,5WU78,5WU78,37UEWGM5HUBRVHSKKKW2158EQVBR1K,37UEWGM5HUBRVHSKKKW2158EQVBR1K,262738,262738,,,,
,,,,,,,,2,4.799815,0,9,9,18,1,A37MKXCABVF38S,160,wolfe_080_R_plant-a_w_outline.jpg,wolfe_080_R_plant-b_w_outline.jpg,38,f,A37MKXCABVF38S,2020-12-09_12h07.56.364,MetaAwareness,2020.1.2,Win32,60,35YHTYFL1H67SJ5FA1BV3L6NPEFVFV,37UEWGM5HUBRVHSKKKW2158EQVBR1K,5WU78,5WU78,37UEWGM5HUBRVHSKKKW2158EQVBR1K,37UEWGM5HUBRVHSKKKW2158EQVBR1K,262738,262738,,,,
,,,,,,,,1,4.058115,0,10,10,3,1,A37MKXCABVF38S,34,wolfe_017_R_wood-a_w_outline.jpg,wolfe_017_R_wood-b_w_outline.jpg,38,f,A37MKXCABVF38S,2020-12-09_12h07.56.364,MetaAwareness,2020.1.2,Win32,60,35YHTYFL1H67SJ5FA1BV3L6NPEFVFV,37UEWGM5HUBRVHSKKKW2158EQVBR1K,5WU78,5WU78,37UEWGM5HUBRVHSKKKW2158EQVBR1K,37UEWGM5HUBRVHSKKKW2158EQVBR1K,262738,262738,,,,
,,,,,,,,2,4.183935,0,11,11,10,1,A37MKXCABVF38S,108,wolfe_054_R_firewood-a_w_outline.jpg,wolfe_054_R_firewood-b_w_outline.jpg,38,f,A37MKXCABVF38S,2020-12-09_12h07.56.364,MetaAwareness,2020.1.2,Win32,60,35YHTYFL1H67SJ5FA1BV3L6NPEFVFV,37UEWGM5HUBRVHSKKKW2158EQVBR1K,5WU78,5WU78,37UEWGM5HUBRVHSKKKW2158EQVBR1K,37UEWGM5HUBRVHSKKKW2158EQVBR1K,262738,262738,,,,
,,,,,,,,1,3.0711,0,12,12,7,1,A37MKXCABVF38S,74,wolfe_037_R_towel-a_w_outline.jpg,wolfe_037_R_towel-b_w_outline.jpg,38,f,A37MKXCABVF38S,2020-12-09_12h07.56.364,MetaAwareness,2020.1.2,Win32,60,35YHTYFL1H67SJ5FA1BV3L6NPEFVFV,37UEWGM5HUBRVHSKKKW2158EQVBR1K,5WU78,5WU78,37UEWGM5HUBRVHSKKKW2158EQVBR1K,37UEWGM5HUBRVHSKKKW2158EQVBR1K,262738,262738,,,,
,,,,,,,,1,3.33758,0,13,13,29,1,A37MKXCABVF38S,252,wolfe_126_R_candles-a_w_outline.jpg,wolfe_126_R_candles-b_w_outline.jpg,38,f,A37MKXCABVF38S,2020-12-09_12h07.56.364,MetaAwareness,2020.1.2,Win32,60,35YHTYFL1H67SJ5FA1BV3L6NPEFVFV,37UEWGM5HUBRVHSKKKW2158EQVBR1K,5WU78,5WU78,37UEWGM5HUBRVHSKKKW2158EQVBR1K,37UEWGM5HUBRVHSKKKW2158EQVBR1K,262738,262738,,,,
,,,,,,,,1,3.15974,0,14,14,16,1,A37MKXCABVF38S,150,wolfe_075_R_light-a_w_outline.jpg,wolfe_075_R_light-b_w_outline.jpg,38,f,A37MKXCABVF38S,2020-12-09_12h07.56.364,MetaAwareness,2020.1.2,Win32,60,35YHTYFL1H67SJ5FA1BV3L6NPEFVFV,37UEWGM5HUBRVHSKKKW2158EQVBR1K,5WU78,5WU78,37UEWGM5HUBRVHSKKKW2158EQVBR1K,37UEWGM5HUBRVHSKKKW2158EQVBR1K,262738,262738,,,,
,,,,,,,,1,3.932075,0,15,15,13,1,A37MKXCABVF38S,132,wolfe_066_R_vase-a_w_outline.jpg,wolfe_066_R_vase-b_w_outline.jpg,38,f,A37MKXCABVF38S,2020-12-09_12h07.56.364,MetaAwareness,2020.1.2,Win32,60,35YHTYFL1H67SJ5FA1BV3L6NPEFVFV,37UEWGM5HUBRVHSKKKW2158EQVBR1K,5WU78,5WU78,37UEWGM5HUBRVHSKKKW2158EQVBR1K,37UEWGM5HUBRVHSKKKW2158EQVBR1K,262738,262738,,,,
,,,,,,,,1,2.63769,0,16,16,9,1,A37MKXCABVF38S,96,wolfe_048_R_art-a_w_outline.jpg,wolfe_048_R_art-b_w_outline.jpg,38,f,A37MKXCABVF38S,2020-12-09_12h07.56.364,MetaAwareness,2020.1.2,Win32,60,35YHTYFL1H67SJ5FA1BV3L6NPEFVFV,37UEWGM5HUBRVHSKKKW2158EQVBR1K,5WU78,5WU78,37UEWGM5HUBRVHSKKKW2158EQVBR1K,37UEWGM5HUBRVHSKKKW2158EQVBR1K,262738,262738,,,,
,,,,,,,,2,2.884975,0,17,17,8,1,A37MKXCABVF38S,82,wolfe_041_R_fruit-a_w_outline.jpg,wolfe_041_R_fruit-b_w_outline.jpg,38,f,A37MKXCABVF38S,2020-12-09_12h07.56.364,MetaAwareness,2020.1.2,Win32,60,35YHTYFL1H67SJ5FA1BV3L6NPEFVFV,37UEWGM5HUBRVHSKKKW2158EQVBR1K,5WU78,5WU78,37UEWGM5HUBRVHSKKKW2158EQVBR1K,37UEWGM5HUBRVHSKKKW2158EQVBR1K,262738,262738,,,,
,,,,,,,,3,4.23039,0,18,18,20,1,A37MKXCABVF38S,194,wolfe_097_R_light-a_w_outline.jpg,wolfe_097_R_light-b_w_outline.jpg,38,f,A37MKXCABVF38S,2020-12-09_12h07.56.364,MetaAwareness,2020.1.2,Win32,60,35YHTYFL1H67SJ5FA1BV3L6NPEFVFV,37UEWGM5HUBRVHSKKKW2158EQVBR1K,5WU78,5WU78,37UEWGM5HUBRVHSKKKW2158EQVBR1K,37UEWGM5HUBRVHSKKKW2158EQVBR1K,262738,262738,,,,
,,,,,,,,1,3.17567,0,19,19,15,1,A37MKXCABVF38S,146,wolfe_073_R_coffeemug-a_w_outline.jpg,wolfe_073_R_coffeemug-b_w_outline.jpg,38,f,A37MKXCABVF38S,2020-12-09_12h07.56.364,MetaAwareness,2020.1.2,Win32,60,35YHTYFL1H67SJ5FA1BV3L6NPEFVFV,37UEWGM5HUBRVHSKKKW2158EQVBR1K,5WU78,5WU78,37UEWGM5HUBRVHSKKKW2158EQVBR1K,37UEWGM5HUBRVHSKKKW2158EQVBR1K,262738,262738,,,,
,,,,,,,,1,2.27888,0,20,20,26,1,A37MKXCABVF38S,230,wolfe_115_R_pot-a_w_outline.jpg,wolfe_115_R_pot-b_w_outline.jpg,38,f,A37MKXCABVF38S,2020-12-09_12h07.56.364,MetaAwareness,2020.1.2,Win32,60,35YHTYFL1H67SJ5FA1BV3L6NPEFVFV,37UEWGM5HUBRVHSKKKW2158EQVBR1K,5WU78,5WU78,37UEWGM5HUBRVHSKKKW2158EQVBR1K,37UEWGM5HUBRVHSKKKW2158EQVBR1K,262738,262738,,,,
,,,,,,,,5,3.23065,0,21,21,24,1,A37MKXCABVF38S,220,wolfe_110_R_plant-a_w_outline.jpg,wolfe_110_R_plant-b_w_outline.jpg,38,f,A37MKXCABVF38S,2020-12-09_12h07.56.364,MetaAwareness,2020.1.2,Win32,60,35YHTYFL1H67SJ5FA1BV3L6NPEFVFV,37UEWGM5HUBRVHSKKKW2158EQVBR1K,5WU78,5WU78,37UEWGM5HUBRVHSKKKW2158EQVBR1K,37UEWGM5HUBRVHSKKKW2158EQVBR1K,262738,262738,,,,
,,,,,,,,5,2.8979,0,22,22,28,1,A37MKXCABVF38S,248,wolfe_124_R_vase-a_w_outline.jpg,wolfe_124_R_vase-b_w_outline.jpg,38,f,A37MKXCABVF38S,2020-12-09_12h07.56.364,MetaAwareness,2020.1.2,Win32,60,35YHTYFL1H67SJ5FA1BV3L6NPEFVFV,37UEWGM5HUBRVHSKKKW2158EQVBR1K,5WU78,5WU78,37UEWGM5HUBRVHSKKKW2158EQVBR1K,37UEWGM5HUBRVHSKKKW2158EQVBR1K,262738,262738,,,,
,,,,,,,,3,4.389255,0,23,23,14,1,A37MKXCABVF38S,142,wolfe_071_R_art-a_w_outline.jpg,wolfe_071_R_art-b_w_outline.jpg,38,f,A37MKXCABVF38S,2020-12-09_12h07.56.364,MetaAwareness,2020.1.2,Win32,60,35YHTYFL1H67SJ5FA1BV3L6NPEFVFV,37UEWGM5HUBRVHSKKKW2158EQVBR1K,5WU78,5WU78,37UEWGM5HUBRVHSKKKW2158EQVBR1K,37UEWGM5HUBRVHSKKKW2158EQVBR1K,262738,262738,,,,
,,,,,,,,4,5.038845,0,24,24,12,1,A37MKXCABVF38S,130,wolfe_065_R_cd-a_w_outline.jpg,wolfe_065_R_cd-b_w_outline.jpg,38,f,A37MKXCABVF38S,2020-12-09_12h07.56.364,MetaAwareness,2020.1.2,Win32,60,35YHTYFL1H67SJ5FA1BV3L6NPEFVFV,37UEWGM5HUBRVHSKKKW2158EQVBR1K,5WU78,5WU78,37UEWGM5HUBRVHSKKKW2158EQVBR1K,37UEWGM5HUBRVHSKKKW2158EQVBR1K,262738,262738,,,,
,,,,,,,,4,3.36424,0,25,25,11,1,A37MKXCABVF38S,120,wolfe_060_R_pillow-a_w_outline.jpg,wolfe_060_R_pillow-b_w_outline.jpg,38,f,A37MKXCABVF38S,2020-12-09_12h07.56.364,MetaAwareness,2020.1.2,Win32,60,35YHTYFL1H67SJ5FA1BV3L6NPEFVFV,37UEWGM5HUBRVHSKKKW2158EQVBR1K,5WU78,5WU78,37UEWGM5HUBRVHSKKKW2158EQVBR1K,37UEWGM5HUBRVHSKKKW2158EQVBR1K,262738,262738,,,,
,,,,,,,,5,2.692145,0,26,26,5,1,A37MKXCABVF38S,52,wolfe_026_R_rack-a_w_outline.jpg,wolfe_026_R_rack-b_w_outline.jpg,38,f,A37MKXCABVF38S,2020-12-09_12h07.56.364,MetaAwareness,2020.1.2,Win32,60,35YHTYFL1H67SJ5FA1BV3L6NPEFVFV,37UEWGM5HUBRVHSKKKW2158EQVBR1K,5WU78,5WU78,37UEWGM5HUBRVHSKKKW2158EQVBR1K,37UEWGM5HUBRVHSKKKW2158EQVBR1K,262738,262738,,,,
,,,,,,,,2,4.66254,0,27,27,6,1,A37MKXCABVF38S,68,wolfe_034_R_handle-a_w_outline.jpg,wolfe_034_R_handle-b_w_outline.jpg,38,f,A37MKXCABVF38S,2020-12-09_12h07.56.364,MetaAwareness,2020.1.2,Win32,60,35YHTYFL1H67SJ5FA1BV3L6NPEFVFV,37UEWGM5HUBRVHSKKKW2158EQVBR1K,5WU78,5WU78,37UEWGM5HUBRVHSKKKW2158EQVBR1K,37UEWGM5HUBRVHSKKKW2158EQVBR1K,262738,262738,,,,
,,,,,,,,5,5.04393,0,28,28,17,1,A37MKXCABVF38S,154,wolfe_077_R_footrest-a_w_outline.jpg,wolfe_077_R_footrest-b_w_outline.jpg,38,f,A37MKXCABVF38S,2020-12-09_12h07.56.364,MetaAwareness,2020.1.2,Win32,60,35YHTYFL1H67SJ5FA1BV3L6NPEFVFV,37UEWGM5HUBRVHSKKKW2158EQVBR1K,5WU78,5WU78,37UEWGM5HUBRVHSKKKW2158EQVBR1K,37UEWGM5HUBRVHSKKKW2158EQVBR1K,262738,262738,,,,
,,,,,,,,5,2.80707,0,29,29,4,1,A37MKXCABVF38S,36,wolfe_018_R_plant-a_w_outline.jpg,wolfe_018_R_plant-b_w_outline.jpg,38,f,A37MKXCABVF38S,2020-12-09_12h07.56.364,MetaAwareness,2020.1.2,Win32,60,35YHTYFL1H67SJ5FA1BV3L6NPEFVFV,37UEWGM5HUBRVHSKKKW2158EQVBR1K,5WU78,5WU78,37UEWGM5HUBRVHSKKKW2158EQVBR1K,37UEWGM5HUBRVHSKKKW2158EQVBR1K,262738,262738,,,,
,,,,,,,,,,,,,,,A37MKXCABVF38S,,,,38,f,A37MKXCABVF38S,2020-12-09_12h07.56.364,MetaAwareness,2020.1.2,Win32,60,35YHTYFL1H67SJ5FA1BV3L6NPEFVFV,37UEWGM5HUBRVHSKKKW2158EQVBR1K,5WU78,5WU78,37UEWGM5HUBRVHSKKKW2158EQVBR1K,37UEWGM5HUBRVHSKKKW2158EQVBR1K,262738,262738,5,0.94342,1,4.954365
