consent_response.keys,consent_response.rt,key_resp_2.keys,key_resp_2.rt,Airplane_resp.keys,Airplane_resp.rt,Boat_resp.keys,Boat_resp.rt,user_resp.keys,user_resp.rt,trials.thisRepN,trials.thisTrialN,trials.thisN,trials.thisIndex,trials.ran,workerId,trial_num,image_a,image_b,age,gender (m/f),worker_ID,date,expName,psychopyVersion,OS,frameRate,hitId,assignmentId,a,tp_a,b,tp_b,c,tp_c,Cow_resp.keys,Cow_resp.rt,Garden_resp.keys,Garden_resp.rt
space,4.797975,space,28.030095,5,2.761515,5,2.929115,1,4.382525,0,0,0,11,1,A3IXWFXJC2YKU7,126,wolfe_063_R_laptop-a_w_outline.jpg,wolfe_063_R_laptop-b_w_outline.jpg,32,m,A3IXWFXJC2YKU7,2020-12-10_08h57.06.603,MetaAwareness,2020.1.2,Win32,60,3K1H3NEY7M2RC21OU0HJFK0SQN8GDF,3OWEPKL08AFKR5FUGTWUTVUHSO47NZ,0PWO9,0PWO9,3OWEPKL08AFKR5FUGTWUTVUHSO47NZ,3OWEPKL08AFKR5FUGTWUTVUHSO47NZ,263099,263099,,,,
,,,,,,,,4,4.747865,0,1,1,10,1,A3IXWFXJC2YKU7,98,wolfe_049_R_painting-a_w_outline.jpg,wolfe_049_R_painting-b_w_outline.jpg,32,m,A3IXWFXJC2YKU7,2020-12-10_08h57.06.603,MetaAwareness,2020.1.2,Win32,60,3K1H3NEY7M2RC21OU0HJFK0SQN8GDF,3OWEPKL08AFKR5FUGTWUTVUHSO47NZ,0PWO9,0PWO9,3OWEPKL08AFKR5FUGTWUTVUHSO47NZ,3OWEPKL08AFKR5FUGTWUTVUHSO47NZ,263099,263099,,,,
,,,,,,,,1,3.178,0,2,2,13,1,A3IXWFXJC2YKU7,146,wolfe_073_R_coffeemug-a_w_outline.jpg,wolfe_073_R_coffeemug-b_w_outline.jpg,32,m,A3IXWFXJC2YKU7,2020-12-10_08h57.06.603,MetaAwareness,2020.1.2,Win32,60,3K1H3NEY7M2RC21OU0HJFK0SQN8GDF,3OWEPKL08AFKR5FUGTWUTVUHSO47NZ,0PWO9,0PWO9,3OWEPKL08AFKR5FUGTWUTVUHSO47NZ,3OWEPKL08AFKR5FUGTWUTVUHSO47NZ,263099,263099,,,,
,,,,,,,,4,6.568075,0,3,3,3,1,A3IXWFXJC2YKU7,28,wolfe_014_R_lamp-a_w_outline.jpg,wolfe_014_R_lamp-b_w_outline.jpg,32,m,A3IXWFXJC2YKU7,2020-12-10_08h57.06.603,MetaAwareness,2020.1.2,Win32,60,3K1H3NEY7M2RC21OU0HJFK0SQN8GDF,3OWEPKL08AFKR5FUGTWUTVUHSO47NZ,0PWO9,0PWO9,3OWEPKL08AFKR5FUGTWUTVUHSO47NZ,3OWEPKL08AFKR5FUGTWUTVUHSO47NZ,263099,263099,,,,
,,,,,,,,2,3.401995,0,4,4,17,1,A3IXWFXJC2YKU7,160,wolfe_080_R_plant-a_w_outline.jpg,wolfe_080_R_plant-b_w_outline.jpg,32,m,A3IXWFXJC2YKU7,2020-12-10_08h57.06.603,MetaAwareness,2020.1.2,Win32,60,3K1H3NEY7M2RC21OU0HJFK0SQN8GDF,3OWEPKL08AFKR5FUGTWUTVUHSO47NZ,0PWO9,0PWO9,3OWEPKL08AFKR5FUGTWUTVUHSO47NZ,3OWEPKL08AFKR5FUGTWUTVUHSO47NZ,263099,263099,,,,
,,,,,,,,2,3.16673,0,5,5,24,1,A3IXWFXJC2YKU7,236,wolfe_118_R_shoes-a_w_outline.jpg,wolfe_118_R_shoes-b_w_outline.jpg,32,m,A3IXWFXJC2YKU7,2020-12-10_08h57.06.603,MetaAwareness,2020.1.2,Win32,60,3K1H3NEY7M2RC21OU0HJFK0SQN8GDF,3OWEPKL08AFKR5FUGTWUTVUHSO47NZ,0PWO9,0PWO9,3OWEPKL08AFKR5FUGTWUTVUHSO47NZ,3OWEPKL08AFKR5FUGTWUTVUHSO47NZ,263099,263099,,,,
,,,,,,,,3,3.46903,0,6,6,4,1,A3IXWFXJC2YKU7,46,wolfe_023_R_remote-a_w_outline.jpg,wolfe_023_R_remote-b_w_outline.jpg,32,m,A3IXWFXJC2YKU7,2020-12-10_08h57.06.603,MetaAwareness,2020.1.2,Win32,60,3K1H3NEY7M2RC21OU0HJFK0SQN8GDF,3OWEPKL08AFKR5FUGTWUTVUHSO47NZ,0PWO9,0PWO9,3OWEPKL08AFKR5FUGTWUTVUHSO47NZ,3OWEPKL08AFKR5FUGTWUTVUHSO47NZ,263099,263099,,,,
,,,,,,,,2,3.885595,0,7,7,1,1,A3IXWFXJC2YKU7,16,wolfe_008_R_bottle-a_w_outline.jpg,wolfe_008_R_bottle-b_w_outline.jpg,32,m,A3IXWFXJC2YKU7,2020-12-10_08h57.06.603,MetaAwareness,2020.1.2,Win32,60,3K1H3NEY7M2RC21OU0HJFK0SQN8GDF,3OWEPKL08AFKR5FUGTWUTVUHSO47NZ,0PWO9,0PWO9,3OWEPKL08AFKR5FUGTWUTVUHSO47NZ,3OWEPKL08AFKR5FUGTWUTVUHSO47NZ,263099,263099,,,,
,,,,,,,,1,1.96692,0,8,8,7,1,A3IXWFXJC2YKU7,70,wolfe_035_R_fruit-a_w_outline.jpg,wolfe_035_R_fruit-b_w_outline.jpg,32,m,A3IXWFXJC2YKU7,2020-12-10_08h57.06.603,MetaAwareness,2020.1.2,Win32,60,3K1H3NEY7M2RC21OU0HJFK0SQN8GDF,3OWEPKL08AFKR5FUGTWUTVUHSO47NZ,0PWO9,0PWO9,3OWEPKL08AFKR5FUGTWUTVUHSO47NZ,3OWEPKL08AFKR5FUGTWUTVUHSO47NZ,263099,263099,,,,
,,,,,,,,1,2.366235,0,9,9,26,1,A3IXWFXJC2YKU7,240,wolfe_120_R_art-a_w_outline.jpg,wolfe_120_R_art-b_w_outline.jpg,32,m,A3IXWFXJC2YKU7,2020-12-10_08h57.06.603,MetaAwareness,2020.1.2,Win32,60,3K1H3NEY7M2RC21OU0HJFK0SQN8GDF,3OWEPKL08AFKR5FUGTWUTVUHSO47NZ,0PWO9,0PWO9,3OWEPKL08AFKR5FUGTWUTVUHSO47NZ,3OWEPKL08AFKR5FUGTWUTVUHSO47NZ,263099,263099,,,,
,,,,,,,,2,3.21346,0,10,10,14,1,A3IXWFXJC2YKU7,150,wolfe_075_R_light-a_w_outline.jpg,wolfe_075_R_light-b_w_outline.jpg,32,m,A3IXWFXJC2YKU7,2020-12-10_08h57.06.603,MetaAwareness,2020.1.2,Win32,60,3K1H3NEY7M2RC21OU0HJFK0SQN8GDF,3OWEPKL08AFKR5FUGTWUTVUHSO47NZ,0PWO9,0PWO9,3OWEPKL08AFKR5FUGTWUTVUHSO47NZ,3OWEPKL08AFKR5FUGTWUTVUHSO47NZ,263099,263099,,,,
,,,,,,,,4,3.623625,0,11,11,23,1,A3IXWFXJC2YKU7,234,wolfe_117_R_plant_sized-a_w_outline.jpg,wolfe_117_R_plant_sized-b_w_outline.jpg,32,m,A3IXWFXJC2YKU7,2020-12-10_08h57.06.603,MetaAwareness,2020.1.2,Win32,60,3K1H3NEY7M2RC21OU0HJFK0SQN8GDF,3OWEPKL08AFKR5FUGTWUTVUHSO47NZ,0PWO9,0PWO9,3OWEPKL08AFKR5FUGTWUTVUHSO47NZ,3OWEPKL08AFKR5FUGTWUTVUHSO47NZ,263099,263099,,,,
,,,,,,,,1,2.32253,0,12,12,5,1,A3IXWFXJC2YKU7,54,wolfe_027_R_soapdish-a_w_outline.jpg,wolfe_027_R_soapdish-b_w_outline.jpg,32,m,A3IXWFXJC2YKU7,2020-12-10_08h57.06.603,MetaAwareness,2020.1.2,Win32,60,3K1H3NEY7M2RC21OU0HJFK0SQN8GDF,3OWEPKL08AFKR5FUGTWUTVUHSO47NZ,0PWO9,0PWO9,3OWEPKL08AFKR5FUGTWUTVUHSO47NZ,3OWEPKL08AFKR5FUGTWUTVUHSO47NZ,263099,263099,,,,
,,,,,,,,3,3.590355,0,13,13,29,1,A3IXWFXJC2YKU7,256,wolfe_128_R_pot-a_w_outline.jpg,wolfe_128_R_pot-b_w_outline.jpg,32,m,A3IXWFXJC2YKU7,2020-12-10_08h57.06.603,MetaAwareness,2020.1.2,Win32,60,3K1H3NEY7M2RC21OU0HJFK0SQN8GDF,3OWEPKL08AFKR5FUGTWUTVUHSO47NZ,0PWO9,0PWO9,3OWEPKL08AFKR5FUGTWUTVUHSO47NZ,3OWEPKL08AFKR5FUGTWUTVUHSO47NZ,263099,263099,,,,
,,,,,,,,3,3.72704,0,14,14,28,1,A3IXWFXJC2YKU7,254,wolfe_127_R_light-a_w_outline.jpg,wolfe_127_R_light-b_w_outline.jpg,32,m,A3IXWFXJC2YKU7,2020-12-10_08h57.06.603,MetaAwareness,2020.1.2,Win32,60,3K1H3NEY7M2RC21OU0HJFK0SQN8GDF,3OWEPKL08AFKR5FUGTWUTVUHSO47NZ,0PWO9,0PWO9,3OWEPKL08AFKR5FUGTWUTVUHSO47NZ,3OWEPKL08AFKR5FUGTWUTVUHSO47NZ,263099,263099,,,,
,,,,,,,,3,3.734315,0,15,15,25,1,A3IXWFXJC2YKU7,238,wolfe_119_R_painting-a_w_outline.jpg,wolfe_119_R_painting-b_w_outline.jpg,32,m,A3IXWFXJC2YKU7,2020-12-10_08h57.06.603,MetaAwareness,2020.1.2,Win32,60,3K1H3NEY7M2RC21OU0HJFK0SQN8GDF,3OWEPKL08AFKR5FUGTWUTVUHSO47NZ,0PWO9,0PWO9,3OWEPKL08AFKR5FUGTWUTVUHSO47NZ,3OWEPKL08AFKR5FUGTWUTVUHSO47NZ,263099,263099,,,,
,,,,,,,,1,3.79024,0,16,16,9,1,A3IXWFXJC2YKU7,92,wolfe_046_R_remote-a_w_outline.jpg,wolfe_046_R_remote-b_w_outline.jpg,32,m,A3IXWFXJC2YKU7,2020-12-10_08h57.06.603,MetaAwareness,2020.1.2,Win32,60,3K1H3NEY7M2RC21OU0HJFK0SQN8GDF,3OWEPKL08AFKR5FUGTWUTVUHSO47NZ,0PWO9,0PWO9,3OWEPKL08AFKR5FUGTWUTVUHSO47NZ,3OWEPKL08AFKR5FUGTWUTVUHSO47NZ,263099,263099,,,,
,,,,,,,,2,3.249665,0,17,17,8,1,A3IXWFXJC2YKU7,82,wolfe_041_R_fruit-a_w_outline.jpg,wolfe_041_R_fruit-b_w_outline.jpg,32,m,A3IXWFXJC2YKU7,2020-12-10_08h57.06.603,MetaAwareness,2020.1.2,Win32,60,3K1H3NEY7M2RC21OU0HJFK0SQN8GDF,3OWEPKL08AFKR5FUGTWUTVUHSO47NZ,0PWO9,0PWO9,3OWEPKL08AFKR5FUGTWUTVUHSO47NZ,3OWEPKL08AFKR5FUGTWUTVUHSO47NZ,263099,263099,,,,
,,,,,,,,1,3.290305,0,18,18,22,1,A3IXWFXJC2YKU7,226,wolfe_113_R_plant-a_w_outline.jpg,wolfe_113_R_plant-b_w_outline.jpg,32,m,A3IXWFXJC2YKU7,2020-12-10_08h57.06.603,MetaAwareness,2020.1.2,Win32,60,3K1H3NEY7M2RC21OU0HJFK0SQN8GDF,3OWEPKL08AFKR5FUGTWUTVUHSO47NZ,0PWO9,0PWO9,3OWEPKL08AFKR5FUGTWUTVUHSO47NZ,3OWEPKL08AFKR5FUGTWUTVUHSO47NZ,263099,263099,,,,
,,,,,,,,3,4.08338,0,19,19,2,1,A3IXWFXJC2YKU7,22,wolfe_011_R_parfum-a_w_outline.jpg,wolfe_011_R_parfum-b_w_outline.jpg,32,m,A3IXWFXJC2YKU7,2020-12-10_08h57.06.603,MetaAwareness,2020.1.2,Win32,60,3K1H3NEY7M2RC21OU0HJFK0SQN8GDF,3OWEPKL08AFKR5FUGTWUTVUHSO47NZ,0PWO9,0PWO9,3OWEPKL08AFKR5FUGTWUTVUHSO47NZ,3OWEPKL08AFKR5FUGTWUTVUHSO47NZ,263099,263099,,,,
,,,,,,,,1,4.1401,0,20,20,19,1,A3IXWFXJC2YKU7,180,wolfe_090_R_lamp-a_w_outline.jpg,wolfe_090_R_lamp-b_w_outline.jpg,32,m,A3IXWFXJC2YKU7,2020-12-10_08h57.06.603,MetaAwareness,2020.1.2,Win32,60,3K1H3NEY7M2RC21OU0HJFK0SQN8GDF,3OWEPKL08AFKR5FUGTWUTVUHSO47NZ,0PWO9,0PWO9,3OWEPKL08AFKR5FUGTWUTVUHSO47NZ,3OWEPKL08AFKR5FUGTWUTVUHSO47NZ,263099,263099,,,,
,,,,,,,,1,2.945525,0,21,21,15,1,A3IXWFXJC2YKU7,154,wolfe_077_R_footrest-a_w_outline.jpg,wolfe_077_R_footrest-b_w_outline.jpg,32,m,A3IXWFXJC2YKU7,2020-12-10_08h57.06.603,MetaAwareness,2020.1.2,Win32,60,3K1H3NEY7M2RC21OU0HJFK0SQN8GDF,3OWEPKL08AFKR5FUGTWUTVUHSO47NZ,0PWO9,0PWO9,3OWEPKL08AFKR5FUGTWUTVUHSO47NZ,3OWEPKL08AFKR5FUGTWUTVUHSO47NZ,263099,263099,,,,
,,,,,,,,1,3.04898,0,22,22,18,1,A3IXWFXJC2YKU7,176,wolfe_088_R_clock-a_w_outline.jpg,wolfe_088_R_clock-b_w_outline.jpg,32,m,A3IXWFXJC2YKU7,2020-12-10_08h57.06.603,MetaAwareness,2020.1.2,Win32,60,3K1H3NEY7M2RC21OU0HJFK0SQN8GDF,3OWEPKL08AFKR5FUGTWUTVUHSO47NZ,0PWO9,0PWO9,3OWEPKL08AFKR5FUGTWUTVUHSO47NZ,3OWEPKL08AFKR5FUGTWUTVUHSO47NZ,263099,263099,,,,
,,,,,,,,2,4.011785,0,23,23,27,1,A3IXWFXJC2YKU7,250,wolfe_125_R_sofa-a_w_outline.jpg,wolfe_125_R_sofa-b_w_outline.jpg,32,m,A3IXWFXJC2YKU7,2020-12-10_08h57.06.603,MetaAwareness,2020.1.2,Win32,60,3K1H3NEY7M2RC21OU0HJFK0SQN8GDF,3OWEPKL08AFKR5FUGTWUTVUHSO47NZ,0PWO9,0PWO9,3OWEPKL08AFKR5FUGTWUTVUHSO47NZ,3OWEPKL08AFKR5FUGTWUTVUHSO47NZ,263099,263099,,,,
,,,,,,,,3,4.278025,0,24,24,12,1,A3IXWFXJC2YKU7,142,wolfe_071_R_art-a_w_outline.jpg,wolfe_071_R_art-b_w_outline.jpg,32,m,A3IXWFXJC2YKU7,2020-12-10_08h57.06.603,MetaAwareness,2020.1.2,Win32,60,3K1H3NEY7M2RC21OU0HJFK0SQN8GDF,3OWEPKL08AFKR5FUGTWUTVUHSO47NZ,0PWO9,0PWO9,3OWEPKL08AFKR5FUGTWUTVUHSO47NZ,3OWEPKL08AFKR5FUGTWUTVUHSO47NZ,263099,263099,,,,
,,,,,,,,2,5.78283,0,25,25,21,1,A3IXWFXJC2YKU7,224,wolfe_112_R_basket-a_w_outline.jpg,wolfe_112_R_basket-b_w_outline.jpg,32,m,A3IXWFXJC2YKU7,2020-12-10_08h57.06.603,MetaAwareness,2020.1.2,Win32,60,3K1H3NEY7M2RC21OU0HJFK0SQN8GDF,3OWEPKL08AFKR5FUGTWUTVUHSO47NZ,0PWO9,0PWO9,3OWEPKL08AFKR5FUGTWUTVUHSO47NZ,3OWEPKL08AFKR5FUGTWUTVUHSO47NZ,263099,263099,,,,
,,,,,,,,3,3.706605,0,26,26,0,1,A3IXWFXJC2YKU7,4,wolfe_002_R_napkin-a_w_outline.jpg,wolfe_002_R_napkin-b_w_outline.jpg,32,m,A3IXWFXJC2YKU7,2020-12-10_08h57.06.603,MetaAwareness,2020.1.2,Win32,60,3K1H3NEY7M2RC21OU0HJFK0SQN8GDF,3OWEPKL08AFKR5FUGTWUTVUHSO47NZ,0PWO9,0PWO9,3OWEPKL08AFKR5FUGTWUTVUHSO47NZ,3OWEPKL08AFKR5FUGTWUTVUHSO47NZ,263099,263099,,,,
,,,,,,,,1,4.367405,0,27,27,20,1,A3IXWFXJC2YKU7,212,wolfe_106_R_toweldispenser-a_w_outline.jpg,wolfe_106_R_toweldispenser-b_w_outline.jpg,32,m,A3IXWFXJC2YKU7,2020-12-10_08h57.06.603,MetaAwareness,2020.1.2,Win32,60,3K1H3NEY7M2RC21OU0HJFK0SQN8GDF,3OWEPKL08AFKR5FUGTWUTVUHSO47NZ,0PWO9,0PWO9,3OWEPKL08AFKR5FUGTWUTVUHSO47NZ,3OWEPKL08AFKR5FUGTWUTVUHSO47NZ,263099,263099,,,,
,,,,,,,,1,2.97266,0,28,28,16,1,A3IXWFXJC2YKU7,158,wolfe_079_R_bowl-a_w_outline.jpg,wolfe_079_R_bowl-b_w_outline.jpg,32,m,A3IXWFXJC2YKU7,2020-12-10_08h57.06.603,MetaAwareness,2020.1.2,Win32,60,3K1H3NEY7M2RC21OU0HJFK0SQN8GDF,3OWEPKL08AFKR5FUGTWUTVUHSO47NZ,0PWO9,0PWO9,3OWEPKL08AFKR5FUGTWUTVUHSO47NZ,3OWEPKL08AFKR5FUGTWUTVUHSO47NZ,263099,263099,,,,
,,,,,,,,4,3.682335,0,29,29,6,1,A3IXWFXJC2YKU7,62,wolfe_031_R_log-a_w_outline.jpg,wolfe_031_R_log-b_w_outline.jpg,32,m,A3IXWFXJC2YKU7,2020-12-10_08h57.06.603,MetaAwareness,2020.1.2,Win32,60,3K1H3NEY7M2RC21OU0HJFK0SQN8GDF,3OWEPKL08AFKR5FUGTWUTVUHSO47NZ,0PWO9,0PWO9,3OWEPKL08AFKR5FUGTWUTVUHSO47NZ,3OWEPKL08AFKR5FUGTWUTVUHSO47NZ,263099,263099,,,,
,,,,,,,,,,,,,,,A3IXWFXJC2YKU7,,,,32,m,A3IXWFXJC2YKU7,2020-12-10_08h57.06.603,MetaAwareness,2020.1.2,Win32,60,3K1H3NEY7M2RC21OU0HJFK0SQN8GDF,3OWEPKL08AFKR5FUGTWUTVUHSO47NZ,0PWO9,0PWO9,3OWEPKL08AFKR5FUGTWUTVUHSO47NZ,3OWEPKL08AFKR5FUGTWUTVUHSO47NZ,263099,263099,5,1.15741,1,4.97636
