consent_response.keys,consent_response.rt,key_resp_2.keys,key_resp_2.rt,Airplane_resp.keys,Airplane_resp.rt,Boat_resp.keys,Boat_resp.rt,user_resp.keys,user_resp.rt,trials.thisRepN,trials.thisTrialN,trials.thisN,trials.thisIndex,trials.ran,workerId,trial_num,image_a,image_b,age,gender (m/f),worker_ID,date,expName,psychopyVersion,OS,frameRate,hitId,assignmentId,a,tp_a,b,tp_b,c,tp_c,Cow_resp.keys,Cow_resp.rt,Garden_resp.keys,Garden_resp.rt
space,77.366705,space,115.5187,5,4.023615,5,1.791095,5,3.12665,0,0,0,3,1,A72LC42LU78IP,30,wolfe_015_R_ceilinglight-a_w_outline.jpg,wolfe_015_R_ceilinglight-b_w_outline.jpg,44,m,A72LC42LU78IP,2020-12-09_12h12.57.358,MetaAwareness,2020.1.2,Win32,60,35YHTYFL1H67SJ5FA1BV3L6NPEFVFV,33IZTU6J824BMXDQ62HEMOHBHC9XS6,JTI38,JTI38,33IZTU6J824BMXDQ62HEMOHBHC9XS6,33IZTU6J824BMXDQ62HEMOHBHC9XS6,262738,262738,,,,
,,,,,,,,5,2.84642,0,1,1,5,1,A72LC42LU78IP,38,wolfe_019_R_lamp_sized-a_w_outline.jpg,wolfe_019_R_lamp_sized-b_w_outline.jpg,44,m,A72LC42LU78IP,2020-12-09_12h12.57.358,MetaAwareness,2020.1.2,Win32,60,35YHTYFL1H67SJ5FA1BV3L6NPEFVFV,33IZTU6J824BMXDQ62HEMOHBHC9XS6,JTI38,JTI38,33IZTU6J824BMXDQ62HEMOHBHC9XS6,33IZTU6J824BMXDQ62HEMOHBHC9XS6,262738,262738,,,,
,,,,,,,,5,7.347665,0,2,2,9,1,A72LC42LU78IP,72,wolfe_036_R_bowl-a_w_outline.jpg,wolfe_036_R_bowl-b_w_outline.jpg,44,m,A72LC42LU78IP,2020-12-09_12h12.57.358,MetaAwareness,2020.1.2,Win32,60,35YHTYFL1H67SJ5FA1BV3L6NPEFVFV,33IZTU6J824BMXDQ62HEMOHBHC9XS6,JTI38,JTI38,33IZTU6J824BMXDQ62HEMOHBHC9XS6,33IZTU6J824BMXDQ62HEMOHBHC9XS6,262738,262738,,,,
,,,,,,,,5,3.274095,0,3,3,26,1,A72LC42LU78IP,208,wolfe_104_R_bottle-a_w_outline.jpg,wolfe_104_R_bottle-b_w_outline.jpg,44,m,A72LC42LU78IP,2020-12-09_12h12.57.358,MetaAwareness,2020.1.2,Win32,60,35YHTYFL1H67SJ5FA1BV3L6NPEFVFV,33IZTU6J824BMXDQ62HEMOHBHC9XS6,JTI38,JTI38,33IZTU6J824BMXDQ62HEMOHBHC9XS6,33IZTU6J824BMXDQ62HEMOHBHC9XS6,262738,262738,,,,
,,,,,,,,5,3.127355,0,4,4,11,1,A72LC42LU78IP,76,wolfe_038_R_art-a_w_outline.jpg,wolfe_038_R_art-b_w_outline.jpg,44,m,A72LC42LU78IP,2020-12-09_12h12.57.358,MetaAwareness,2020.1.2,Win32,60,35YHTYFL1H67SJ5FA1BV3L6NPEFVFV,33IZTU6J824BMXDQ62HEMOHBHC9XS6,JTI38,JTI38,33IZTU6J824BMXDQ62HEMOHBHC9XS6,33IZTU6J824BMXDQ62HEMOHBHC9XS6,262738,262738,,,,
,,,,,,,,5,5.890025,0,5,5,22,1,A72LC42LU78IP,166,wolfe_083_R_knob-a_w_outline.jpg,wolfe_083_R_knob-b_w_outline.jpg,44,m,A72LC42LU78IP,2020-12-09_12h12.57.358,MetaAwareness,2020.1.2,Win32,60,35YHTYFL1H67SJ5FA1BV3L6NPEFVFV,33IZTU6J824BMXDQ62HEMOHBHC9XS6,JTI38,JTI38,33IZTU6J824BMXDQ62HEMOHBHC9XS6,33IZTU6J824BMXDQ62HEMOHBHC9XS6,262738,262738,,,,
,,,,,,,,5,11.129805,0,6,6,10,1,A72LC42LU78IP,74,wolfe_037_R_towel-a_w_outline.jpg,wolfe_037_R_towel-b_w_outline.jpg,44,m,A72LC42LU78IP,2020-12-09_12h12.57.358,MetaAwareness,2020.1.2,Win32,60,35YHTYFL1H67SJ5FA1BV3L6NPEFVFV,33IZTU6J824BMXDQ62HEMOHBHC9XS6,JTI38,JTI38,33IZTU6J824BMXDQ62HEMOHBHC9XS6,33IZTU6J824BMXDQ62HEMOHBHC9XS6,262738,262738,,,,
,,,,,,,,5,2.691455,0,7,7,2,1,A72LC42LU78IP,28,wolfe_014_R_lamp-a_w_outline.jpg,wolfe_014_R_lamp-b_w_outline.jpg,44,m,A72LC42LU78IP,2020-12-09_12h12.57.358,MetaAwareness,2020.1.2,Win32,60,35YHTYFL1H67SJ5FA1BV3L6NPEFVFV,33IZTU6J824BMXDQ62HEMOHBHC9XS6,JTI38,JTI38,33IZTU6J824BMXDQ62HEMOHBHC9XS6,33IZTU6J824BMXDQ62HEMOHBHC9XS6,262738,262738,,,,
,,,,,,,,5,2.687755,0,8,8,25,1,A72LC42LU78IP,204,wolfe_102_R_shoppingbag-a_w_outline.jpg,wolfe_102_R_shoppingbag-b_w_outline.jpg,44,m,A72LC42LU78IP,2020-12-09_12h12.57.358,MetaAwareness,2020.1.2,Win32,60,35YHTYFL1H67SJ5FA1BV3L6NPEFVFV,33IZTU6J824BMXDQ62HEMOHBHC9XS6,JTI38,JTI38,33IZTU6J824BMXDQ62HEMOHBHC9XS6,33IZTU6J824BMXDQ62HEMOHBHC9XS6,262738,262738,,,,
,,,,,,,,5,2.98068,0,9,9,14,1,A72LC42LU78IP,110,wolfe_055_R_carpet-a_w_outline.jpg,wolfe_055_R_carpet-b_w_outline.jpg,44,m,A72LC42LU78IP,2020-12-09_12h12.57.358,MetaAwareness,2020.1.2,Win32,60,35YHTYFL1H67SJ5FA1BV3L6NPEFVFV,33IZTU6J824BMXDQ62HEMOHBHC9XS6,JTI38,JTI38,33IZTU6J824BMXDQ62HEMOHBHC9XS6,33IZTU6J824BMXDQ62HEMOHBHC9XS6,262738,262738,,,,
,,,,,,,,5,3.807705,0,10,10,28,1,A72LC42LU78IP,242,wolfe_121_R_car-a_w_outline.jpg,wolfe_121_R_car-b_w_outline.jpg,44,m,A72LC42LU78IP,2020-12-09_12h12.57.358,MetaAwareness,2020.1.2,Win32,60,35YHTYFL1H67SJ5FA1BV3L6NPEFVFV,33IZTU6J824BMXDQ62HEMOHBHC9XS6,JTI38,JTI38,33IZTU6J824BMXDQ62HEMOHBHC9XS6,33IZTU6J824BMXDQ62HEMOHBHC9XS6,262738,262738,,,,
,,,,,,,,5,2.806825,0,11,11,15,1,A72LC42LU78IP,128,wolfe_064_R_bottles-a_w_outline.jpg,wolfe_064_R_bottles-b_w_outline.jpg,44,m,A72LC42LU78IP,2020-12-09_12h12.57.358,MetaAwareness,2020.1.2,Win32,60,35YHTYFL1H67SJ5FA1BV3L6NPEFVFV,33IZTU6J824BMXDQ62HEMOHBHC9XS6,JTI38,JTI38,33IZTU6J824BMXDQ62HEMOHBHC9XS6,33IZTU6J824BMXDQ62HEMOHBHC9XS6,262738,262738,,,,
,,,,,,,,5,2.17959,0,12,12,29,1,A72LC42LU78IP,256,wolfe_128_R_pot-a_w_outline.jpg,wolfe_128_R_pot-b_w_outline.jpg,44,m,A72LC42LU78IP,2020-12-09_12h12.57.358,MetaAwareness,2020.1.2,Win32,60,35YHTYFL1H67SJ5FA1BV3L6NPEFVFV,33IZTU6J824BMXDQ62HEMOHBHC9XS6,JTI38,JTI38,33IZTU6J824BMXDQ62HEMOHBHC9XS6,33IZTU6J824BMXDQ62HEMOHBHC9XS6,262738,262738,,,,
,,,,,,,,5,2.656655,0,13,13,6,1,A72LC42LU78IP,40,wolfe_020_R_walldeco-a_w_outline.jpg,wolfe_020_R_walldeco-b_w_outline.jpg,44,m,A72LC42LU78IP,2020-12-09_12h12.57.358,MetaAwareness,2020.1.2,Win32,60,35YHTYFL1H67SJ5FA1BV3L6NPEFVFV,33IZTU6J824BMXDQ62HEMOHBHC9XS6,JTI38,JTI38,33IZTU6J824BMXDQ62HEMOHBHC9XS6,33IZTU6J824BMXDQ62HEMOHBHC9XS6,262738,262738,,,,
,,,,,,,,4,5.66042,0,14,14,12,1,A72LC42LU78IP,86,wolfe_043_R_clock-a_w_outline.jpg,wolfe_043_R_clock-b_w_outline.jpg,44,m,A72LC42LU78IP,2020-12-09_12h12.57.358,MetaAwareness,2020.1.2,Win32,60,35YHTYFL1H67SJ5FA1BV3L6NPEFVFV,33IZTU6J824BMXDQ62HEMOHBHC9XS6,JTI38,JTI38,33IZTU6J824BMXDQ62HEMOHBHC9XS6,33IZTU6J824BMXDQ62HEMOHBHC9XS6,262738,262738,,,,
,,,,,,,,3,2.35549,0,15,15,17,1,A72LC42LU78IP,136,wolfe_068_R_faucet-a_w_outline.jpg,wolfe_068_R_faucet-b_w_outline.jpg,44,m,A72LC42LU78IP,2020-12-09_12h12.57.358,MetaAwareness,2020.1.2,Win32,60,35YHTYFL1H67SJ5FA1BV3L6NPEFVFV,33IZTU6J824BMXDQ62HEMOHBHC9XS6,JTI38,JTI38,33IZTU6J824BMXDQ62HEMOHBHC9XS6,33IZTU6J824BMXDQ62HEMOHBHC9XS6,262738,262738,,,,
,,,,,,,,3,3.806855,0,16,16,8,1,A72LC42LU78IP,60,wolfe_030_R_drawer-a_w_outline.jpg,wolfe_030_R_drawer-b_w_outline.jpg,44,m,A72LC42LU78IP,2020-12-09_12h12.57.358,MetaAwareness,2020.1.2,Win32,60,35YHTYFL1H67SJ5FA1BV3L6NPEFVFV,33IZTU6J824BMXDQ62HEMOHBHC9XS6,JTI38,JTI38,33IZTU6J824BMXDQ62HEMOHBHC9XS6,33IZTU6J824BMXDQ62HEMOHBHC9XS6,262738,262738,,,,
,,,,,,,,2,2.13871,0,17,17,1,1,A72LC42LU78IP,24,wolfe_012_R_tubaccesory-a_w_outline.jpg,wolfe_012_R_tubaccesory-b_w_outline.jpg,44,m,A72LC42LU78IP,2020-12-09_12h12.57.358,MetaAwareness,2020.1.2,Win32,60,35YHTYFL1H67SJ5FA1BV3L6NPEFVFV,33IZTU6J824BMXDQ62HEMOHBHC9XS6,JTI38,JTI38,33IZTU6J824BMXDQ62HEMOHBHC9XS6,33IZTU6J824BMXDQ62HEMOHBHC9XS6,262738,262738,,,,
,,,,,,,,3,3.02851,0,18,18,27,1,A72LC42LU78IP,230,wolfe_115_R_pot-a_w_outline.jpg,wolfe_115_R_pot-b_w_outline.jpg,44,m,A72LC42LU78IP,2020-12-09_12h12.57.358,MetaAwareness,2020.1.2,Win32,60,35YHTYFL1H67SJ5FA1BV3L6NPEFVFV,33IZTU6J824BMXDQ62HEMOHBHC9XS6,JTI38,JTI38,33IZTU6J824BMXDQ62HEMOHBHC9XS6,33IZTU6J824BMXDQ62HEMOHBHC9XS6,262738,262738,,,,
,,,,,,,,5,3.65586,0,19,19,16,1,A72LC42LU78IP,134,wolfe_067_R_painting-a_w_outline.jpg,wolfe_067_R_painting-b_w_outline.jpg,44,m,A72LC42LU78IP,2020-12-09_12h12.57.358,MetaAwareness,2020.1.2,Win32,60,35YHTYFL1H67SJ5FA1BV3L6NPEFVFV,33IZTU6J824BMXDQ62HEMOHBHC9XS6,JTI38,JTI38,33IZTU6J824BMXDQ62HEMOHBHC9XS6,33IZTU6J824BMXDQ62HEMOHBHC9XS6,262738,262738,,,,
,,,,,,,,2,2.974385,0,20,20,24,1,A72LC42LU78IP,190,wolfe_095_R_candle-a_w_outline.jpg,wolfe_095_R_candle-b_w_outline.jpg,44,m,A72LC42LU78IP,2020-12-09_12h12.57.358,MetaAwareness,2020.1.2,Win32,60,35YHTYFL1H67SJ5FA1BV3L6NPEFVFV,33IZTU6J824BMXDQ62HEMOHBHC9XS6,JTI38,JTI38,33IZTU6J824BMXDQ62HEMOHBHC9XS6,33IZTU6J824BMXDQ62HEMOHBHC9XS6,262738,262738,,,,
,,,,,,,,3,2.275685,0,21,21,13,1,A72LC42LU78IP,94,wolfe_047_R_handle-a_w_outline.jpg,wolfe_047_R_handle-b_w_outline.jpg,44,m,A72LC42LU78IP,2020-12-09_12h12.57.358,MetaAwareness,2020.1.2,Win32,60,35YHTYFL1H67SJ5FA1BV3L6NPEFVFV,33IZTU6J824BMXDQ62HEMOHBHC9XS6,JTI38,JTI38,33IZTU6J824BMXDQ62HEMOHBHC9XS6,33IZTU6J824BMXDQ62HEMOHBHC9XS6,262738,262738,,,,
,,,,,,,,2,2.308495,0,22,22,20,1,A72LC42LU78IP,154,wolfe_077_R_footrest-a_w_outline.jpg,wolfe_077_R_footrest-b_w_outline.jpg,44,m,A72LC42LU78IP,2020-12-09_12h12.57.358,MetaAwareness,2020.1.2,Win32,60,35YHTYFL1H67SJ5FA1BV3L6NPEFVFV,33IZTU6J824BMXDQ62HEMOHBHC9XS6,JTI38,JTI38,33IZTU6J824BMXDQ62HEMOHBHC9XS6,33IZTU6J824BMXDQ62HEMOHBHC9XS6,262738,262738,,,,
,,,,,,,,5,2.22445,0,23,23,18,1,A72LC42LU78IP,140,wolfe_070_R_lamp-a_w_outline.jpg,wolfe_070_R_lamp-b_w_outline.jpg,44,m,A72LC42LU78IP,2020-12-09_12h12.57.358,MetaAwareness,2020.1.2,Win32,60,35YHTYFL1H67SJ5FA1BV3L6NPEFVFV,33IZTU6J824BMXDQ62HEMOHBHC9XS6,JTI38,JTI38,33IZTU6J824BMXDQ62HEMOHBHC9XS6,33IZTU6J824BMXDQ62HEMOHBHC9XS6,262738,262738,,,,
,,,,,,,,4,2.90553,0,24,24,23,1,A72LC42LU78IP,172,wolfe_086_R_book-a_w_outline.jpg,wolfe_086_R_book-b_w_outline.jpg,44,m,A72LC42LU78IP,2020-12-09_12h12.57.358,MetaAwareness,2020.1.2,Win32,60,35YHTYFL1H67SJ5FA1BV3L6NPEFVFV,33IZTU6J824BMXDQ62HEMOHBHC9XS6,JTI38,JTI38,33IZTU6J824BMXDQ62HEMOHBHC9XS6,33IZTU6J824BMXDQ62HEMOHBHC9XS6,262738,262738,,,,
,,,,,,,,2,2.17256,0,25,25,21,1,A72LC42LU78IP,162,wolfe_081_R_football-a_w_outline.jpg,wolfe_081_R_football-b_w_outline.jpg,44,m,A72LC42LU78IP,2020-12-09_12h12.57.358,MetaAwareness,2020.1.2,Win32,60,35YHTYFL1H67SJ5FA1BV3L6NPEFVFV,33IZTU6J824BMXDQ62HEMOHBHC9XS6,JTI38,JTI38,33IZTU6J824BMXDQ62HEMOHBHC9XS6,33IZTU6J824BMXDQ62HEMOHBHC9XS6,262738,262738,,,,
,,,,,,,,5,2.50327,0,26,26,4,1,A72LC42LU78IP,32,wolfe_016_R_art-a_w_outline.jpg,wolfe_016_R_art-b_w_outline.jpg,44,m,A72LC42LU78IP,2020-12-09_12h12.57.358,MetaAwareness,2020.1.2,Win32,60,35YHTYFL1H67SJ5FA1BV3L6NPEFVFV,33IZTU6J824BMXDQ62HEMOHBHC9XS6,JTI38,JTI38,33IZTU6J824BMXDQ62HEMOHBHC9XS6,33IZTU6J824BMXDQ62HEMOHBHC9XS6,262738,262738,,,,
,,,,,,,,5,2.443285,0,27,27,7,1,A72LC42LU78IP,52,wolfe_026_R_rack-a_w_outline.jpg,wolfe_026_R_rack-b_w_outline.jpg,44,m,A72LC42LU78IP,2020-12-09_12h12.57.358,MetaAwareness,2020.1.2,Win32,60,35YHTYFL1H67SJ5FA1BV3L6NPEFVFV,33IZTU6J824BMXDQ62HEMOHBHC9XS6,JTI38,JTI38,33IZTU6J824BMXDQ62HEMOHBHC9XS6,33IZTU6J824BMXDQ62HEMOHBHC9XS6,262738,262738,,,,
,,,,,,,,5,3.11408,0,28,28,19,1,A72LC42LU78IP,142,wolfe_071_R_art-a_w_outline.jpg,wolfe_071_R_art-b_w_outline.jpg,44,m,A72LC42LU78IP,2020-12-09_12h12.57.358,MetaAwareness,2020.1.2,Win32,60,35YHTYFL1H67SJ5FA1BV3L6NPEFVFV,33IZTU6J824BMXDQ62HEMOHBHC9XS6,JTI38,JTI38,33IZTU6J824BMXDQ62HEMOHBHC9XS6,33IZTU6J824BMXDQ62HEMOHBHC9XS6,262738,262738,,,,
,,,,,,,,5,2.757415,0,29,29,0,1,A72LC42LU78IP,4,wolfe_002_R_napkin-a_w_outline.jpg,wolfe_002_R_napkin-b_w_outline.jpg,44,m,A72LC42LU78IP,2020-12-09_12h12.57.358,MetaAwareness,2020.1.2,Win32,60,35YHTYFL1H67SJ5FA1BV3L6NPEFVFV,33IZTU6J824BMXDQ62HEMOHBHC9XS6,JTI38,JTI38,33IZTU6J824BMXDQ62HEMOHBHC9XS6,33IZTU6J824BMXDQ62HEMOHBHC9XS6,262738,262738,,,,
,,,,,,,,,,,,,,,A72LC42LU78IP,,,,44,m,A72LC42LU78IP,2020-12-09_12h12.57.358,MetaAwareness,2020.1.2,Win32,60,35YHTYFL1H67SJ5FA1BV3L6NPEFVFV,33IZTU6J824BMXDQ62HEMOHBHC9XS6,JTI38,JTI38,33IZTU6J824BMXDQ62HEMOHBHC9XS6,33IZTU6J824BMXDQ62HEMOHBHC9XS6,262738,262738,5,1.09805,2,6.44945
