consent_response.keys,consent_response.rt,key_resp_2.keys,key_resp_2.rt,Airplane_resp.keys,Airplane_resp.rt,Boat_resp.keys,Boat_resp.rt,user_resp.keys,user_resp.rt,trials.thisRepN,trials.thisTrialN,trials.thisN,trials.thisIndex,trials.ran,workerId,trial_num,image_a,image_b,age,gender (m/f),worker_ID,date,expName,psychopyVersion,OS,frameRate,hitId,assignmentId,a,tp_a,b,tp_b,c,tp_c,Cow_resp.keys,Cow_resp.rt,Garden_resp.keys,Garden_resp.rt
space,233.780465,space,0.229775,2,16.6538,5,9.621635,4,23.29016,0,0,0,4,1,AKNU5D6QK7M72,26,wolfe_013_R_lamp-a_w_outline.jpg,wolfe_013_R_lamp-b_w_outline.jpg,34,male,AKNU5D6QK7M72,2020-12-09_13h37.55.870,MetaAwareness,2020.1.2,Win32,60,3AXFSPQOYR1Y1O5LTCXC0XVTURBJF1,33NF62TLXK5C3UVTKPTB4TIMPLYKJ7,L6N38,L6N38,33NF62TLXK5C3UVTKPTB4TIMPLYKJ7,33NF62TLXK5C3UVTKPTB4TIMPLYKJ7,262738,262738,,,,
,,,,,,,,3,3.359815,0,1,1,23,1,AKNU5D6QK7M72,204,wolfe_102_R_shoppingbag-a_w_outline.jpg,wolfe_102_R_shoppingbag-b_w_outline.jpg,34,male,AKNU5D6QK7M72,2020-12-09_13h37.55.870,MetaAwareness,2020.1.2,Win32,60,3AXFSPQOYR1Y1O5LTCXC0XVTURBJF1,33NF62TLXK5C3UVTKPTB4TIMPLYKJ7,L6N38,L6N38,33NF62TLXK5C3UVTKPTB4TIMPLYKJ7,33NF62TLXK5C3UVTKPTB4TIMPLYKJ7,262738,262738,,,,
,,,,,,,,4,0.33957,0,2,2,10,1,AKNU5D6QK7M72,136,wolfe_068_R_faucet-a_w_outline.jpg,wolfe_068_R_faucet-b_w_outline.jpg,34,male,AKNU5D6QK7M72,2020-12-09_13h37.55.870,MetaAwareness,2020.1.2,Win32,60,3AXFSPQOYR1Y1O5LTCXC0XVTURBJF1,33NF62TLXK5C3UVTKPTB4TIMPLYKJ7,L6N38,L6N38,33NF62TLXK5C3UVTKPTB4TIMPLYKJ7,33NF62TLXK5C3UVTKPTB4TIMPLYKJ7,262738,262738,,,,
,,,,,,,,2,1.165665,0,3,3,20,1,AKNU5D6QK7M72,186,wolfe_093_R_switch-a_w_outline.jpg,wolfe_093_R_switch-b_w_outline.jpg,34,male,AKNU5D6QK7M72,2020-12-09_13h37.55.870,MetaAwareness,2020.1.2,Win32,60,3AXFSPQOYR1Y1O5LTCXC0XVTURBJF1,33NF62TLXK5C3UVTKPTB4TIMPLYKJ7,L6N38,L6N38,33NF62TLXK5C3UVTKPTB4TIMPLYKJ7,33NF62TLXK5C3UVTKPTB4TIMPLYKJ7,262738,262738,,,,
,,,,,,,,5,0.205195,0,4,4,18,1,AKNU5D6QK7M72,176,wolfe_088_R_clock-a_w_outline.jpg,wolfe_088_R_clock-b_w_outline.jpg,34,male,AKNU5D6QK7M72,2020-12-09_13h37.55.870,MetaAwareness,2020.1.2,Win32,60,3AXFSPQOYR1Y1O5LTCXC0XVTURBJF1,33NF62TLXK5C3UVTKPTB4TIMPLYKJ7,L6N38,L6N38,33NF62TLXK5C3UVTKPTB4TIMPLYKJ7,33NF62TLXK5C3UVTKPTB4TIMPLYKJ7,262738,262738,,,,
,,,,,,,,3,0.592225,0,5,5,21,1,AKNU5D6QK7M72,190,wolfe_095_R_candle-a_w_outline.jpg,wolfe_095_R_candle-b_w_outline.jpg,34,male,AKNU5D6QK7M72,2020-12-09_13h37.55.870,MetaAwareness,2020.1.2,Win32,60,3AXFSPQOYR1Y1O5LTCXC0XVTURBJF1,33NF62TLXK5C3UVTKPTB4TIMPLYKJ7,L6N38,L6N38,33NF62TLXK5C3UVTKPTB4TIMPLYKJ7,33NF62TLXK5C3UVTKPTB4TIMPLYKJ7,262738,262738,,,,
,,,,,,,,5,1.176055,0,6,6,14,1,AKNU5D6QK7M72,156,wolfe_078_R_faucet-a_w_outline.jpg,wolfe_078_R_faucet-b_w_outline.jpg,34,male,AKNU5D6QK7M72,2020-12-09_13h37.55.870,MetaAwareness,2020.1.2,Win32,60,3AXFSPQOYR1Y1O5LTCXC0XVTURBJF1,33NF62TLXK5C3UVTKPTB4TIMPLYKJ7,L6N38,L6N38,33NF62TLXK5C3UVTKPTB4TIMPLYKJ7,33NF62TLXK5C3UVTKPTB4TIMPLYKJ7,262738,262738,,,,
,,,,,,,,3,0.25924,0,7,7,17,1,AKNU5D6QK7M72,174,wolfe_087_R_towelhandle-a_w_outline.jpg,wolfe_087_R_towelhandle-b_w_outline.jpg,34,male,AKNU5D6QK7M72,2020-12-09_13h37.55.870,MetaAwareness,2020.1.2,Win32,60,3AXFSPQOYR1Y1O5LTCXC0XVTURBJF1,33NF62TLXK5C3UVTKPTB4TIMPLYKJ7,L6N38,L6N38,33NF62TLXK5C3UVTKPTB4TIMPLYKJ7,33NF62TLXK5C3UVTKPTB4TIMPLYKJ7,262738,262738,,,,
,,,,,,,,4,0.41394,0,8,8,25,1,AKNU5D6QK7M72,226,wolfe_113_R_plant-a_w_outline.jpg,wolfe_113_R_plant-b_w_outline.jpg,34,male,AKNU5D6QK7M72,2020-12-09_13h37.55.870,MetaAwareness,2020.1.2,Win32,60,3AXFSPQOYR1Y1O5LTCXC0XVTURBJF1,33NF62TLXK5C3UVTKPTB4TIMPLYKJ7,L6N38,L6N38,33NF62TLXK5C3UVTKPTB4TIMPLYKJ7,33NF62TLXK5C3UVTKPTB4TIMPLYKJ7,262738,262738,,,,
,,,,,,,,4,0.49834,0,9,9,7,1,AKNU5D6QK7M72,110,wolfe_055_R_carpet-a_w_outline.jpg,wolfe_055_R_carpet-b_w_outline.jpg,34,male,AKNU5D6QK7M72,2020-12-09_13h37.55.870,MetaAwareness,2020.1.2,Win32,60,3AXFSPQOYR1Y1O5LTCXC0XVTURBJF1,33NF62TLXK5C3UVTKPTB4TIMPLYKJ7,L6N38,L6N38,33NF62TLXK5C3UVTKPTB4TIMPLYKJ7,33NF62TLXK5C3UVTKPTB4TIMPLYKJ7,262738,262738,,,,
,,,,,,,,5,0.131175,0,10,10,24,1,AKNU5D6QK7M72,206,wolfe_103_R_hook-a_w_outline.jpg,wolfe_103_R_hook-b_w_outline.jpg,34,male,AKNU5D6QK7M72,2020-12-09_13h37.55.870,MetaAwareness,2020.1.2,Win32,60,3AXFSPQOYR1Y1O5LTCXC0XVTURBJF1,33NF62TLXK5C3UVTKPTB4TIMPLYKJ7,L6N38,L6N38,33NF62TLXK5C3UVTKPTB4TIMPLYKJ7,33NF62TLXK5C3UVTKPTB4TIMPLYKJ7,262738,262738,,,,
,,,,,,,,3,0.259115,0,11,11,29,1,AKNU5D6QK7M72,256,wolfe_128_R_pot-a_w_outline.jpg,wolfe_128_R_pot-b_w_outline.jpg,34,male,AKNU5D6QK7M72,2020-12-09_13h37.55.870,MetaAwareness,2020.1.2,Win32,60,3AXFSPQOYR1Y1O5LTCXC0XVTURBJF1,33NF62TLXK5C3UVTKPTB4TIMPLYKJ7,L6N38,L6N38,33NF62TLXK5C3UVTKPTB4TIMPLYKJ7,33NF62TLXK5C3UVTKPTB4TIMPLYKJ7,262738,262738,,,,
,,,,,,,,4,1.066735,0,12,12,0,1,AKNU5D6QK7M72,12,wolfe_006_R_vase-a_w_outline.jpg,wolfe_006_R_vase-b_w_outline.jpg,34,male,AKNU5D6QK7M72,2020-12-09_13h37.55.870,MetaAwareness,2020.1.2,Win32,60,3AXFSPQOYR1Y1O5LTCXC0XVTURBJF1,33NF62TLXK5C3UVTKPTB4TIMPLYKJ7,L6N38,L6N38,33NF62TLXK5C3UVTKPTB4TIMPLYKJ7,33NF62TLXK5C3UVTKPTB4TIMPLYKJ7,262738,262738,,,,
,,,,,,,,2,0.349025,0,13,13,9,1,AKNU5D6QK7M72,134,wolfe_067_R_painting-a_w_outline.jpg,wolfe_067_R_painting-b_w_outline.jpg,34,male,AKNU5D6QK7M72,2020-12-09_13h37.55.870,MetaAwareness,2020.1.2,Win32,60,3AXFSPQOYR1Y1O5LTCXC0XVTURBJF1,33NF62TLXK5C3UVTKPTB4TIMPLYKJ7,L6N38,L6N38,33NF62TLXK5C3UVTKPTB4TIMPLYKJ7,33NF62TLXK5C3UVTKPTB4TIMPLYKJ7,262738,262738,,,,
,,,,,,,,3,0.633105,0,14,14,19,1,AKNU5D6QK7M72,182,wolfe_091_R_airfreshener-a_w_outline.jpg,wolfe_091_R_airfreshener-b_w_outline.jpg,34,male,AKNU5D6QK7M72,2020-12-09_13h37.55.870,MetaAwareness,2020.1.2,Win32,60,3AXFSPQOYR1Y1O5LTCXC0XVTURBJF1,33NF62TLXK5C3UVTKPTB4TIMPLYKJ7,L6N38,L6N38,33NF62TLXK5C3UVTKPTB4TIMPLYKJ7,33NF62TLXK5C3UVTKPTB4TIMPLYKJ7,262738,262738,,,,
,,,,,,,,5,0.158865,0,15,15,26,1,AKNU5D6QK7M72,230,wolfe_115_R_pot-a_w_outline.jpg,wolfe_115_R_pot-b_w_outline.jpg,34,male,AKNU5D6QK7M72,2020-12-09_13h37.55.870,MetaAwareness,2020.1.2,Win32,60,3AXFSPQOYR1Y1O5LTCXC0XVTURBJF1,33NF62TLXK5C3UVTKPTB4TIMPLYKJ7,L6N38,L6N38,33NF62TLXK5C3UVTKPTB4TIMPLYKJ7,33NF62TLXK5C3UVTKPTB4TIMPLYKJ7,262738,262738,,,,
,,,,,,,,3,0.50329,0,16,16,12,1,AKNU5D6QK7M72,150,wolfe_075_R_light-a_w_outline.jpg,wolfe_075_R_light-b_w_outline.jpg,34,male,AKNU5D6QK7M72,2020-12-09_13h37.55.870,MetaAwareness,2020.1.2,Win32,60,3AXFSPQOYR1Y1O5LTCXC0XVTURBJF1,33NF62TLXK5C3UVTKPTB4TIMPLYKJ7,L6N38,L6N38,33NF62TLXK5C3UVTKPTB4TIMPLYKJ7,33NF62TLXK5C3UVTKPTB4TIMPLYKJ7,262738,262738,,,,
,,,,,,,,4,0.34663,0,17,17,1,1,AKNU5D6QK7M72,14,wolfe_007_R_soap-a_w_outline.jpg,wolfe_007_R_soap-b_w_outline.jpg,34,male,AKNU5D6QK7M72,2020-12-09_13h37.55.870,MetaAwareness,2020.1.2,Win32,60,3AXFSPQOYR1Y1O5LTCXC0XVTURBJF1,33NF62TLXK5C3UVTKPTB4TIMPLYKJ7,L6N38,L6N38,33NF62TLXK5C3UVTKPTB4TIMPLYKJ7,33NF62TLXK5C3UVTKPTB4TIMPLYKJ7,262738,262738,,,,
,,,,,,,,2,0.297955,0,18,18,15,1,AKNU5D6QK7M72,162,wolfe_081_R_football-a_w_outline.jpg,wolfe_081_R_football-b_w_outline.jpg,34,male,AKNU5D6QK7M72,2020-12-09_13h37.55.870,MetaAwareness,2020.1.2,Win32,60,3AXFSPQOYR1Y1O5LTCXC0XVTURBJF1,33NF62TLXK5C3UVTKPTB4TIMPLYKJ7,L6N38,L6N38,33NF62TLXK5C3UVTKPTB4TIMPLYKJ7,33NF62TLXK5C3UVTKPTB4TIMPLYKJ7,262738,262738,,,,
,,,,,,,,4,0.18756,0,19,19,11,1,AKNU5D6QK7M72,148,wolfe_074_R_book-a_w_outline.jpg,wolfe_074_R_book-b_w_outline.jpg,34,male,AKNU5D6QK7M72,2020-12-09_13h37.55.870,MetaAwareness,2020.1.2,Win32,60,3AXFSPQOYR1Y1O5LTCXC0XVTURBJF1,33NF62TLXK5C3UVTKPTB4TIMPLYKJ7,L6N38,L6N38,33NF62TLXK5C3UVTKPTB4TIMPLYKJ7,33NF62TLXK5C3UVTKPTB4TIMPLYKJ7,262738,262738,,,,
,,,,,,,,2,0.22562,0,20,20,6,1,AKNU5D6QK7M72,104,wolfe_052_R_speaker-a_w_outline.jpg,wolfe_052_R_speaker-b_w_outline.jpg,34,male,AKNU5D6QK7M72,2020-12-09_13h37.55.870,MetaAwareness,2020.1.2,Win32,60,3AXFSPQOYR1Y1O5LTCXC0XVTURBJF1,33NF62TLXK5C3UVTKPTB4TIMPLYKJ7,L6N38,L6N38,33NF62TLXK5C3UVTKPTB4TIMPLYKJ7,33NF62TLXK5C3UVTKPTB4TIMPLYKJ7,262738,262738,,,,
,,,,,,,,3,0.260595,0,21,21,13,1,AKNU5D6QK7M72,152,wolfe_076_R_hook-a_w_outline.jpg,wolfe_076_R_hook-b_w_outline.jpg,34,male,AKNU5D6QK7M72,2020-12-09_13h37.55.870,MetaAwareness,2020.1.2,Win32,60,3AXFSPQOYR1Y1O5LTCXC0XVTURBJF1,33NF62TLXK5C3UVTKPTB4TIMPLYKJ7,L6N38,L6N38,33NF62TLXK5C3UVTKPTB4TIMPLYKJ7,33NF62TLXK5C3UVTKPTB4TIMPLYKJ7,262738,262738,,,,
,,,,,,,,2,0.488385,0,22,22,8,1,AKNU5D6QK7M72,112,wolfe_056_R_comforter-a_w_outline.jpg,wolfe_056_R_comforter-b_w_outline.jpg,34,male,AKNU5D6QK7M72,2020-12-09_13h37.55.870,MetaAwareness,2020.1.2,Win32,60,3AXFSPQOYR1Y1O5LTCXC0XVTURBJF1,33NF62TLXK5C3UVTKPTB4TIMPLYKJ7,L6N38,L6N38,33NF62TLXK5C3UVTKPTB4TIMPLYKJ7,33NF62TLXK5C3UVTKPTB4TIMPLYKJ7,262738,262738,,,,
,,,,,,,,4,0.223,0,23,23,28,1,AKNU5D6QK7M72,242,wolfe_121_R_car-a_w_outline.jpg,wolfe_121_R_car-b_w_outline.jpg,34,male,AKNU5D6QK7M72,2020-12-09_13h37.55.870,MetaAwareness,2020.1.2,Win32,60,3AXFSPQOYR1Y1O5LTCXC0XVTURBJF1,33NF62TLXK5C3UVTKPTB4TIMPLYKJ7,L6N38,L6N38,33NF62TLXK5C3UVTKPTB4TIMPLYKJ7,33NF62TLXK5C3UVTKPTB4TIMPLYKJ7,262738,262738,,,,
,,,,,,,,3,0.355165,0,24,24,3,1,AKNU5D6QK7M72,24,wolfe_012_R_tubaccesory-a_w_outline.jpg,wolfe_012_R_tubaccesory-b_w_outline.jpg,34,male,AKNU5D6QK7M72,2020-12-09_13h37.55.870,MetaAwareness,2020.1.2,Win32,60,3AXFSPQOYR1Y1O5LTCXC0XVTURBJF1,33NF62TLXK5C3UVTKPTB4TIMPLYKJ7,L6N38,L6N38,33NF62TLXK5C3UVTKPTB4TIMPLYKJ7,33NF62TLXK5C3UVTKPTB4TIMPLYKJ7,262738,262738,,,,
,,,,,,,,4,0.295025,0,25,25,22,1,AKNU5D6QK7M72,192,wolfe_096_R_painting-a_w_outline.jpg,wolfe_096_R_painting-b_w_outline.jpg,34,male,AKNU5D6QK7M72,2020-12-09_13h37.55.870,MetaAwareness,2020.1.2,Win32,60,3AXFSPQOYR1Y1O5LTCXC0XVTURBJF1,33NF62TLXK5C3UVTKPTB4TIMPLYKJ7,L6N38,L6N38,33NF62TLXK5C3UVTKPTB4TIMPLYKJ7,33NF62TLXK5C3UVTKPTB4TIMPLYKJ7,262738,262738,,,,
,,,,,,,,3,0.35893,0,26,26,2,1,AKNU5D6QK7M72,16,wolfe_008_R_bottle-a_w_outline.jpg,wolfe_008_R_bottle-b_w_outline.jpg,34,male,AKNU5D6QK7M72,2020-12-09_13h37.55.870,MetaAwareness,2020.1.2,Win32,60,3AXFSPQOYR1Y1O5LTCXC0XVTURBJF1,33NF62TLXK5C3UVTKPTB4TIMPLYKJ7,L6N38,L6N38,33NF62TLXK5C3UVTKPTB4TIMPLYKJ7,33NF62TLXK5C3UVTKPTB4TIMPLYKJ7,262738,262738,,,,
,,,,,,,,1,88.73408,0,27,27,27,1,AKNU5D6QK7M72,240,wolfe_120_R_art-a_w_outline.jpg,wolfe_120_R_art-b_w_outline.jpg,34,male,AKNU5D6QK7M72,2020-12-09_13h37.55.870,MetaAwareness,2020.1.2,Win32,60,3AXFSPQOYR1Y1O5LTCXC0XVTURBJF1,33NF62TLXK5C3UVTKPTB4TIMPLYKJ7,L6N38,L6N38,33NF62TLXK5C3UVTKPTB4TIMPLYKJ7,33NF62TLXK5C3UVTKPTB4TIMPLYKJ7,262738,262738,,,,
,,,,,,,,2,0.202815,0,28,28,5,1,AKNU5D6QK7M72,70,wolfe_035_R_fruit-a_w_outline.jpg,wolfe_035_R_fruit-b_w_outline.jpg,34,male,AKNU5D6QK7M72,2020-12-09_13h37.55.870,MetaAwareness,2020.1.2,Win32,60,3AXFSPQOYR1Y1O5LTCXC0XVTURBJF1,33NF62TLXK5C3UVTKPTB4TIMPLYKJ7,L6N38,L6N38,33NF62TLXK5C3UVTKPTB4TIMPLYKJ7,33NF62TLXK5C3UVTKPTB4TIMPLYKJ7,262738,262738,,,,
,,,,,,,,4,0.9742,0,29,29,16,1,AKNU5D6QK7M72,164,wolfe_082_R_bowl-a_w_outline.jpg,wolfe_082_R_bowl-b_w_outline.jpg,34,male,AKNU5D6QK7M72,2020-12-09_13h37.55.870,MetaAwareness,2020.1.2,Win32,60,3AXFSPQOYR1Y1O5LTCXC0XVTURBJF1,33NF62TLXK5C3UVTKPTB4TIMPLYKJ7,L6N38,L6N38,33NF62TLXK5C3UVTKPTB4TIMPLYKJ7,33NF62TLXK5C3UVTKPTB4TIMPLYKJ7,262738,262738,,,,
,,,,,,,,,,,,,,,AKNU5D6QK7M72,,,,34,male,AKNU5D6QK7M72,2020-12-09_13h37.55.870,MetaAwareness,2020.1.2,Win32,60,3AXFSPQOYR1Y1O5LTCXC0XVTURBJF1,33NF62TLXK5C3UVTKPTB4TIMPLYKJ7,L6N38,L6N38,33NF62TLXK5C3UVTKPTB4TIMPLYKJ7,33NF62TLXK5C3UVTKPTB4TIMPLYKJ7,262738,262738,3,4.88672,4,122.140055
