consent_response.keys,consent_response.rt,key_resp_2.keys,key_resp_2.rt,user_resp.keys,user_resp.rt,trials.thisRepN,trials.thisTrialN,trials.thisN,trials.thisIndex,trials.ran,image_1_text,image_2_text,database,image,number,age,worker_ID,date,expName,psychopyVersion,OS,frameRate,hitId,workerId,assignmentId,a,tp_a,b,tp_b,c,tp_c,catch_same_resp.keys,catch_same_resp.rt,image_1_text_catch_same,image_2_text_catch_same,image_catch_same,catch_different_resp.keys,catch_different_resp.rt,image_1_text_catch_different,image_2_text_catch_different,image_catch_different
space,15.673715,space,0.633605,4,4.06056,0,0,0,342,1,a bouquet of flowers on a white table,a bouquet of white and purple flowers on a white table,ma,77574131,6,35,A15TN4B4K81MBY,2021-01-07_19h46.08.063,MetaAwareness,2020.1.2,Win32,60,39HYCOOPKPOR4CXA53FESPKPN4SMDS,A15TN4B4K81MBY,37W3JXSD67BTTJK9V3DH2RR5T4OWY1,DJW75,DJW75,37W3JXSD67BTTJK9V3DH2RR5T4OWY1,37W3JXSD67BTTJK9V3DH2RR5T4OWY1,267895,267895,,,,,,,,,,
,,,,5,0.062355,0,1,1,370,1,a red decorated bedroom wall with the u2l next to the bullseye,a red decorated bedroom wall with the u2l to the right and slightly above the bullseye,ma,79241011,4,35,A15TN4B4K81MBY,2021-01-07_19h46.08.063,MetaAwareness,2020.1.2,Win32,60,39HYCOOPKPOR4CXA53FESPKPN4SMDS,A15TN4B4K81MBY,37W3JXSD67BTTJK9V3DH2RR5T4OWY1,DJW75,DJW75,37W3JXSD67BTTJK9V3DH2RR5T4OWY1,37W3JXSD67BTTJK9V3DH2RR5T4OWY1,267895,267895,,,,,,,,,,
,,,,4,0.02024,0,2,2,171,1,a bunch of christmas cookies sit on a plate. the cookie in the bottom right corner has a small snowflake design.,a bunchof christmas cookies sit on a plate. the cookie in the bottom right corner has a large snowflake design.,ma,44993860,3,35,A15TN4B4K81MBY,2021-01-07_19h46.08.063,MetaAwareness,2020.1.2,Win32,60,39HYCOOPKPOR4CXA53FESPKPN4SMDS,A15TN4B4K81MBY,37W3JXSD67BTTJK9V3DH2RR5T4OWY1,DJW75,DJW75,37W3JXSD67BTTJK9V3DH2RR5T4OWY1,37W3JXSD67BTTJK9V3DH2RR5T4OWY1,267895,267895,,,,,,,,,,
,,,,5,0.021305,0,3,3,377,1,a circuit board with six silver connectors and several other electronic looking objects on the boards,there are two boards the one lying on the table has several electronic things and six various silver bars,ma,8197559,1,35,A15TN4B4K81MBY,2021-01-07_19h46.08.063,MetaAwareness,2020.1.2,Win32,60,39HYCOOPKPOR4CXA53FESPKPN4SMDS,A15TN4B4K81MBY,37W3JXSD67BTTJK9V3DH2RR5T4OWY1,DJW75,DJW75,37W3JXSD67BTTJK9V3DH2RR5T4OWY1,37W3JXSD67BTTJK9V3DH2RR5T4OWY1,267895,267895,,,,,,,,,,
,,,,4,0.02162,0,4,4,333,1,a bunch of cupcakes with an h in the midle,a bunch of cupcakes with an e in the middle,ma,77345858,6,35,A15TN4B4K81MBY,2021-01-07_19h46.08.063,MetaAwareness,2020.1.2,Win32,60,39HYCOOPKPOR4CXA53FESPKPN4SMDS,A15TN4B4K81MBY,37W3JXSD67BTTJK9V3DH2RR5T4OWY1,DJW75,DJW75,37W3JXSD67BTTJK9V3DH2RR5T4OWY1,37W3JXSD67BTTJK9V3DH2RR5T4OWY1,267895,267895,,,,,,,,,,
,,,,5,0.09805,0,5,5,264,1,an outdoor dining table arrangement with 9 place completely set for dining and 1 place missing its plate and silverware,an outdoor dining table arrangement with 9 places completely set for dining and 1 place missing its plate,ma,67862299,3,35,A15TN4B4K81MBY,2021-01-07_19h46.08.063,MetaAwareness,2020.1.2,Win32,60,39HYCOOPKPOR4CXA53FESPKPN4SMDS,A15TN4B4K81MBY,37W3JXSD67BTTJK9V3DH2RR5T4OWY1,DJW75,DJW75,37W3JXSD67BTTJK9V3DH2RR5T4OWY1,37W3JXSD67BTTJK9V3DH2RR5T4OWY1,267895,267895,,,,,,,,,,
,,,,4,0.090705,0,6,6,133,1,a toybox featuring an upside down golden star.,a toybox featuring a right side up golden star.,ma,32289063,5,35,A15TN4B4K81MBY,2021-01-07_19h46.08.063,MetaAwareness,2020.1.2,Win32,60,39HYCOOPKPOR4CXA53FESPKPN4SMDS,A15TN4B4K81MBY,37W3JXSD67BTTJK9V3DH2RR5T4OWY1,DJW75,DJW75,37W3JXSD67BTTJK9V3DH2RR5T4OWY1,37W3JXSD67BTTJK9V3DH2RR5T4OWY1,267895,267895,,,,,,,,,,
,,,,5,0.1293,0,7,7,153,1,a picture of a woodcarving desk featuring a piece with waves in the center,a picture of a woodcarving desk featuring a new piece,ma,42429798,1,35,A15TN4B4K81MBY,2021-01-07_19h46.08.063,MetaAwareness,2020.1.2,Win32,60,39HYCOOPKPOR4CXA53FESPKPN4SMDS,A15TN4B4K81MBY,37W3JXSD67BTTJK9V3DH2RR5T4OWY1,DJW75,DJW75,37W3JXSD67BTTJK9V3DH2RR5T4OWY1,37W3JXSD67BTTJK9V3DH2RR5T4OWY1,267895,267895,,,,,,,,,,
,,,,4,0.05604,0,8,8,184,1,a brown cake with face features  and a yellow mouth is put next to a big red cake on a bakery shelf.,a brown cake with face features and a red mouth is put next to a big red cake on a bakery shelf.,ma,46635293,1,35,A15TN4B4K81MBY,2021-01-07_19h46.08.063,MetaAwareness,2020.1.2,Win32,60,39HYCOOPKPOR4CXA53FESPKPN4SMDS,A15TN4B4K81MBY,37W3JXSD67BTTJK9V3DH2RR5T4OWY1,DJW75,DJW75,37W3JXSD67BTTJK9V3DH2RR5T4OWY1,37W3JXSD67BTTJK9V3DH2RR5T4OWY1,267895,267895,,,,,,,,,,
,,,,5,0.09226,0,9,9,308,1,"a wooden shelf with books,bird statues and guages with a dial pointing to the upper left.","a wooden shelf with books, bird statues and guages with a dial point to the right.",ma,74173745,2,35,A15TN4B4K81MBY,2021-01-07_19h46.08.063,MetaAwareness,2020.1.2,Win32,60,39HYCOOPKPOR4CXA53FESPKPN4SMDS,A15TN4B4K81MBY,37W3JXSD67BTTJK9V3DH2RR5T4OWY1,DJW75,DJW75,37W3JXSD67BTTJK9V3DH2RR5T4OWY1,37W3JXSD67BTTJK9V3DH2RR5T4OWY1,267895,267895,,,,,,,,,,
,,,,5,0.296955,0,10,10,165,1,a desk with a computer and whiteboard with shelves on the wall behind. on the shelf is a pair of labeled bins. one bin has the label on the lower half.,a desk with a computer and whiteboard with shelves on the wall behind. on the shelf is a pair of labeled bins with both labels on the top edge.,ma,4247084,4,35,A15TN4B4K81MBY,2021-01-07_19h46.08.063,MetaAwareness,2020.1.2,Win32,60,39HYCOOPKPOR4CXA53FESPKPN4SMDS,A15TN4B4K81MBY,37W3JXSD67BTTJK9V3DH2RR5T4OWY1,DJW75,DJW75,37W3JXSD67BTTJK9V3DH2RR5T4OWY1,37W3JXSD67BTTJK9V3DH2RR5T4OWY1,267895,267895,,,,,,,,,,
,,,,4,0.103895,0,11,11,178,1,a pantry area in a home kitchen,a small container in a pantry. i'm guessing it contains tea,ma,46475259,1,35,A15TN4B4K81MBY,2021-01-07_19h46.08.063,MetaAwareness,2020.1.2,Win32,60,39HYCOOPKPOR4CXA53FESPKPN4SMDS,A15TN4B4K81MBY,37W3JXSD67BTTJK9V3DH2RR5T4OWY1,DJW75,DJW75,37W3JXSD67BTTJK9V3DH2RR5T4OWY1,37W3JXSD67BTTJK9V3DH2RR5T4OWY1,267895,267895,,,,,,,,,,
,,,,5,0.16411,0,12,12,437,1,a sowing desk that is very organized the yellow box has an additional sticker on it.,a sowing desk that is very organized the yellow box has no sticker on it.,ma,89354846,1,35,A15TN4B4K81MBY,2021-01-07_19h46.08.063,MetaAwareness,2020.1.2,Win32,60,39HYCOOPKPOR4CXA53FESPKPN4SMDS,A15TN4B4K81MBY,37W3JXSD67BTTJK9V3DH2RR5T4OWY1,DJW75,DJW75,37W3JXSD67BTTJK9V3DH2RR5T4OWY1,37W3JXSD67BTTJK9V3DH2RR5T4OWY1,267895,267895,,,,,,,,,,
,,,,4,0.10295,0,13,13,281,1,a red and green quilt with a medium red square in the yellow box,a red and green quilt with a light pink square in the yellow box,ma,70687495,4,35,A15TN4B4K81MBY,2021-01-07_19h46.08.063,MetaAwareness,2020.1.2,Win32,60,39HYCOOPKPOR4CXA53FESPKPN4SMDS,A15TN4B4K81MBY,37W3JXSD67BTTJK9V3DH2RR5T4OWY1,DJW75,DJW75,37W3JXSD67BTTJK9V3DH2RR5T4OWY1,37W3JXSD67BTTJK9V3DH2RR5T4OWY1,267895,267895,,,,,,,,,,
,,,,5,0.12989,0,14,14,360,1,a bike in front of multiple mailboxes. the mailboxes are all different colors. the one in the box is green.,a bike in front of multiple mailboxes. the mailboxes are all different colors. the one in the box is black.,ma,79191795,5,35,A15TN4B4K81MBY,2021-01-07_19h46.08.063,MetaAwareness,2020.1.2,Win32,60,39HYCOOPKPOR4CXA53FESPKPN4SMDS,A15TN4B4K81MBY,37W3JXSD67BTTJK9V3DH2RR5T4OWY1,DJW75,DJW75,37W3JXSD67BTTJK9V3DH2RR5T4OWY1,37W3JXSD67BTTJK9V3DH2RR5T4OWY1,267895,267895,,,,,,,,,,
,,,,4,0.396905,0,15,15,115,1,"a section of a restaurant, with a billiard table moved to the bottom of a frame","a section of a restaurant, with a billiard table moved to the middle of the frame",ma,27857618,2,35,A15TN4B4K81MBY,2021-01-07_19h46.08.063,MetaAwareness,2020.1.2,Win32,60,39HYCOOPKPOR4CXA53FESPKPN4SMDS,A15TN4B4K81MBY,37W3JXSD67BTTJK9V3DH2RR5T4OWY1,DJW75,DJW75,37W3JXSD67BTTJK9V3DH2RR5T4OWY1,37W3JXSD67BTTJK9V3DH2RR5T4OWY1,267895,267895,,,,,,,,,,
,,,,5,0.06665,0,16,16,73,1,a collection of pirate chocolate cupcakes. bags with a pirate ship logo are behind them with one logo larger than the other.,a collection of pirate chocolate cupcakes. bags are behind them with one logo smaller than the others.,ma,18345691,5,35,A15TN4B4K81MBY,2021-01-07_19h46.08.063,MetaAwareness,2020.1.2,Win32,60,39HYCOOPKPOR4CXA53FESPKPN4SMDS,A15TN4B4K81MBY,37W3JXSD67BTTJK9V3DH2RR5T4OWY1,DJW75,DJW75,37W3JXSD67BTTJK9V3DH2RR5T4OWY1,37W3JXSD67BTTJK9V3DH2RR5T4OWY1,267895,267895,,,,,,,,,,
,,,,4,0.09141,0,17,17,345,1,a table full of gourmet baked goods,gourmet lollipops,ma,77793328,2,35,A15TN4B4K81MBY,2021-01-07_19h46.08.063,MetaAwareness,2020.1.2,Win32,60,39HYCOOPKPOR4CXA53FESPKPN4SMDS,A15TN4B4K81MBY,37W3JXSD67BTTJK9V3DH2RR5T4OWY1,DJW75,DJW75,37W3JXSD67BTTJK9V3DH2RR5T4OWY1,37W3JXSD67BTTJK9V3DH2RR5T4OWY1,267895,267895,,,,,,,,,,
,,,,5,0.224785,0,18,18,438,1,there is a handle here in the yellow box,there's no handle here,ma,89354846,2,35,A15TN4B4K81MBY,2021-01-07_19h46.08.063,MetaAwareness,2020.1.2,Win32,60,39HYCOOPKPOR4CXA53FESPKPN4SMDS,A15TN4B4K81MBY,37W3JXSD67BTTJK9V3DH2RR5T4OWY1,DJW75,DJW75,37W3JXSD67BTTJK9V3DH2RR5T4OWY1,37W3JXSD67BTTJK9V3DH2RR5T4OWY1,267895,267895,,,,,,,,,,
,,,,4,0.140935,0,19,19,261,1,various pieces of china include a yellow bowl with green paint inside,various pieces of china including a yellow bowl with white paint inside,ma,62224663,10,35,A15TN4B4K81MBY,2021-01-07_19h46.08.063,MetaAwareness,2020.1.2,Win32,60,39HYCOOPKPOR4CXA53FESPKPN4SMDS,A15TN4B4K81MBY,37W3JXSD67BTTJK9V3DH2RR5T4OWY1,DJW75,DJW75,37W3JXSD67BTTJK9V3DH2RR5T4OWY1,37W3JXSD67BTTJK9V3DH2RR5T4OWY1,267895,267895,,,,,,,,,,
,,,,6,0.06913,0,20,20,384,1,"an electric circuit board, with a wire on the bottom that spans to the locatin of the microchip on the right","an electric circuit board, with a wire on the bottom that spans not quite to the location of the microchip on the right",ma,8197559,8,35,A15TN4B4K81MBY,2021-01-07_19h46.08.063,MetaAwareness,2020.1.2,Win32,60,39HYCOOPKPOR4CXA53FESPKPN4SMDS,A15TN4B4K81MBY,37W3JXSD67BTTJK9V3DH2RR5T4OWY1,DJW75,DJW75,37W3JXSD67BTTJK9V3DH2RR5T4OWY1,37W3JXSD67BTTJK9V3DH2RR5T4OWY1,267895,267895,,,,,,,,,,
,,,,5,0.129035,0,21,21,228,1,there are a pile of rocks to the right of the flowers and the rock to the rightmost of the picture is grey,there are a pile of rocks to the right of the flowers and the rocks to the rightmost of the picture are sandy or brown.,ma,56835136,1,35,A15TN4B4K81MBY,2021-01-07_19h46.08.063,MetaAwareness,2020.1.2,Win32,60,39HYCOOPKPOR4CXA53FESPKPN4SMDS,A15TN4B4K81MBY,37W3JXSD67BTTJK9V3DH2RR5T4OWY1,DJW75,DJW75,37W3JXSD67BTTJK9V3DH2RR5T4OWY1,37W3JXSD67BTTJK9V3DH2RR5T4OWY1,267895,267895,,,,,,,,,,
,,,,6,0.006575,0,22,22,297,1,a piece of candy that looks like hello kitty dressed up for halloween with a bat angled upwards to the right adorning the costume with other pieces of candy on a plate.,a piece of candy that looks like hello kitty dressed up for halloween with a bat andgled upwards to the left adorning the costume with other pieces of candy on a plate.,ma,72488522,11,35,A15TN4B4K81MBY,2021-01-07_19h46.08.063,MetaAwareness,2020.1.2,Win32,60,39HYCOOPKPOR4CXA53FESPKPN4SMDS,A15TN4B4K81MBY,37W3JXSD67BTTJK9V3DH2RR5T4OWY1,DJW75,DJW75,37W3JXSD67BTTJK9V3DH2RR5T4OWY1,37W3JXSD67BTTJK9V3DH2RR5T4OWY1,267895,267895,,,,,,,,,,
,,,,6,0.215795,0,23,23,6,1,a decorated room with a colorful lamp and a painting of a coffee on the wall,a decorated room with a colorful lamp and a painting of a coffee mug on the wall,ma,10504629,7,35,A15TN4B4K81MBY,2021-01-07_19h46.08.063,MetaAwareness,2020.1.2,Win32,60,39HYCOOPKPOR4CXA53FESPKPN4SMDS,A15TN4B4K81MBY,37W3JXSD67BTTJK9V3DH2RR5T4OWY1,DJW75,DJW75,37W3JXSD67BTTJK9V3DH2RR5T4OWY1,37W3JXSD67BTTJK9V3DH2RR5T4OWY1,267895,267895,,,,,,,,,,
,,,,6,0.164565,0,24,24,292,1,halloween fondant decorations featuring hello kitty dressed as a cat with an orange bat angled to the right on her outfit,halloween fonant decorations featuring hello kitty dressed as a cat with an orange bat angled to the left on her outfit,ma,72488522,6,35,A15TN4B4K81MBY,2021-01-07_19h46.08.063,MetaAwareness,2020.1.2,Win32,60,39HYCOOPKPOR4CXA53FESPKPN4SMDS,A15TN4B4K81MBY,37W3JXSD67BTTJK9V3DH2RR5T4OWY1,DJW75,DJW75,37W3JXSD67BTTJK9V3DH2RR5T4OWY1,37W3JXSD67BTTJK9V3DH2RR5T4OWY1,267895,267895,,,,,,,,,,
,,,,5,1.10833,0,25,25,408,1,a distowel embroided with different color fabric that spells eat with a small a,a dishtowel embroided with different color fabric that spells out the work eat. the a is similar in spacing and size as the t,ma,83785171,3,35,A15TN4B4K81MBY,2021-01-07_19h46.08.063,MetaAwareness,2020.1.2,Win32,60,39HYCOOPKPOR4CXA53FESPKPN4SMDS,A15TN4B4K81MBY,37W3JXSD67BTTJK9V3DH2RR5T4OWY1,DJW75,DJW75,37W3JXSD67BTTJK9V3DH2RR5T4OWY1,37W3JXSD67BTTJK9V3DH2RR5T4OWY1,267895,267895,,,,,,,,,,
,,,,5,0.93356,0,26,26,271,1,business cards with a website on it,business cards without a website on them,ma,69128765,4,35,A15TN4B4K81MBY,2021-01-07_19h46.08.063,MetaAwareness,2020.1.2,Win32,60,39HYCOOPKPOR4CXA53FESPKPN4SMDS,A15TN4B4K81MBY,37W3JXSD67BTTJK9V3DH2RR5T4OWY1,DJW75,DJW75,37W3JXSD67BTTJK9V3DH2RR5T4OWY1,37W3JXSD67BTTJK9V3DH2RR5T4OWY1,267895,267895,,,,,,,,,,
,,,,4,0.098315,0,27,27,396,1,picture gallery on wall with all pictures straight up,picture gallery on wall with one picture upside down,ma,83691215,2,35,A15TN4B4K81MBY,2021-01-07_19h46.08.063,MetaAwareness,2020.1.2,Win32,60,39HYCOOPKPOR4CXA53FESPKPN4SMDS,A15TN4B4K81MBY,37W3JXSD67BTTJK9V3DH2RR5T4OWY1,DJW75,DJW75,37W3JXSD67BTTJK9V3DH2RR5T4OWY1,37W3JXSD67BTTJK9V3DH2RR5T4OWY1,267895,267895,,,,,,,,,,
,,,,5,0.015595,0,28,28,220,1,a photo frames with square shape.,a photo frames with rectangle shape.,ma,51856108,3,35,A15TN4B4K81MBY,2021-01-07_19h46.08.063,MetaAwareness,2020.1.2,Win32,60,39HYCOOPKPOR4CXA53FESPKPN4SMDS,A15TN4B4K81MBY,37W3JXSD67BTTJK9V3DH2RR5T4OWY1,DJW75,DJW75,37W3JXSD67BTTJK9V3DH2RR5T4OWY1,37W3JXSD67BTTJK9V3DH2RR5T4OWY1,267895,267895,,,,,,,,,,
,,,,4,0.076,0,29,29,238,1,seven instruments line an orange wall,six instruments line an orange wall,ma,57861456,5,35,A15TN4B4K81MBY,2021-01-07_19h46.08.063,MetaAwareness,2020.1.2,Win32,60,39HYCOOPKPOR4CXA53FESPKPN4SMDS,A15TN4B4K81MBY,37W3JXSD67BTTJK9V3DH2RR5T4OWY1,DJW75,DJW75,37W3JXSD67BTTJK9V3DH2RR5T4OWY1,37W3JXSD67BTTJK9V3DH2RR5T4OWY1,267895,267895,,,,,,,,,,
,,,,,,,,,,,,,,,,35,A15TN4B4K81MBY,2021-01-07_19h46.08.063,MetaAwareness,2020.1.2,Win32,60,39HYCOOPKPOR4CXA53FESPKPN4SMDS,A15TN4B4K81MBY,37W3JXSD67BTTJK9V3DH2RR5T4OWY1,DJW75,DJW75,37W3JXSD67BTTJK9V3DH2RR5T4OWY1,37W3JXSD67BTTJK9V3DH2RR5T4OWY1,267895,267895,6,0.24266,someone laying underneath a blue beach umbrella on a crowded beach,someone laying underneath a blue beach umbrella on a crowded beach,same,5,0.357725,members of a marching band crossing a track that all have feather plumes at the front of their hats,a cluttered and rustic looking cafe with 10 hanging lights,different
