consent_response.keys,consent_response.rt,key_resp_2.keys,key_resp_2.rt,user_resp.keys,user_resp.rt,trials.thisRepN,trials.thisTrialN,trials.thisN,trials.thisIndex,trials.ran,image_1_text,image_2_text,database,image,number,age,worker_ID,date,expName,psychopyVersion,OS,frameRate,hitId,workerId,assignmentId,a,tp_a,b,tp_b,c,tp_c,catch_same_resp.keys,catch_same_resp.rt,image_1_text_catch_same,image_2_text_catch_same,image_catch_same,catch_different_resp.keys,catch_different_resp.rt,image_1_text_catch_different,image_2_text_catch_different,image_catch_different
space,6.143245,space,3.998,4,13.85048,0,0,0,371,1,a room with a red wall and targets with u21 painted low,a room with a red wall and targets with u21 painted high,ma,79241011,5,29,A263Y9ZPYSSTB9,2021-01-07_20h19.45.423,MetaAwareness,2020.1.2,Win32,60,39HYCOOPKPOR4CXA53FESPKPN4SMDS,A263Y9ZPYSSTB9,32VNZTT0A878NGP372F4Z3FH6OB4RM,0ZV25,0ZV25,32VNZTT0A878NGP372F4Z3FH6OB4RM,32VNZTT0A878NGP372F4Z3FH6OB4RM,267895,267895,,,,,,,,,,
,,,,4,6.537715,0,1,1,349,1,a decoratve band in green,a decorative band in brown,ma,77793328,6,29,A263Y9ZPYSSTB9,2021-01-07_20h19.45.423,MetaAwareness,2020.1.2,Win32,60,39HYCOOPKPOR4CXA53FESPKPN4SMDS,A263Y9ZPYSSTB9,32VNZTT0A878NGP372F4Z3FH6OB4RM,0ZV25,0ZV25,32VNZTT0A878NGP372F4Z3FH6OB4RM,32VNZTT0A878NGP372F4Z3FH6OB4RM,267895,267895,,,,,,,,,,
,,,,5,18.01818,0,2,2,400,1,a wall full of framed pictures. one smaller picture has a white frame and shows a dark image.,a wall full of framed pictures. one shows a white frame and shows a dark image.,ma,83691215,6,29,A263Y9ZPYSSTB9,2021-01-07_20h19.45.423,MetaAwareness,2020.1.2,Win32,60,39HYCOOPKPOR4CXA53FESPKPN4SMDS,A263Y9ZPYSSTB9,32VNZTT0A878NGP372F4Z3FH6OB4RM,0ZV25,0ZV25,32VNZTT0A878NGP372F4Z3FH6OB4RM,32VNZTT0A878NGP372F4Z3FH6OB4RM,267895,267895,,,,,,,,,,
,,,,3,4.153395,0,3,3,263,1,a napkin on a dining table.,silverware on a dining table,ma,67862299,2,29,A263Y9ZPYSSTB9,2021-01-07_20h19.45.423,MetaAwareness,2020.1.2,Win32,60,39HYCOOPKPOR4CXA53FESPKPN4SMDS,A263Y9ZPYSSTB9,32VNZTT0A878NGP372F4Z3FH6OB4RM,0ZV25,0ZV25,32VNZTT0A878NGP372F4Z3FH6OB4RM,32VNZTT0A878NGP372F4Z3FH6OB4RM,267895,267895,,,,,,,,,,
,,,,5,7.68747,0,4,4,397,1,the picture is like a scenerio,the picture is a sea,ma,83691215,3,29,A263Y9ZPYSSTB9,2021-01-07_20h19.45.423,MetaAwareness,2020.1.2,Win32,60,39HYCOOPKPOR4CXA53FESPKPN4SMDS,A263Y9ZPYSSTB9,32VNZTT0A878NGP372F4Z3FH6OB4RM,0ZV25,0ZV25,32VNZTT0A878NGP372F4Z3FH6OB4RM,32VNZTT0A878NGP372F4Z3FH6OB4RM,267895,267895,,,,,,,,,,
,,,,5,12.5619,0,5,5,164,1,"an old computer sits on a desk, next to a tablet, and above it sits a shelf filled with items, including a half filled bin.","an old computer sits on a desk, next to a tablet, and above it sits a shelf filled with items, including a fully filled bin.",ma,4247084,3,29,A263Y9ZPYSSTB9,2021-01-07_20h19.45.423,MetaAwareness,2020.1.2,Win32,60,39HYCOOPKPOR4CXA53FESPKPN4SMDS,A263Y9ZPYSSTB9,32VNZTT0A878NGP372F4Z3FH6OB4RM,0ZV25,0ZV25,32VNZTT0A878NGP372F4Z3FH6OB4RM,32VNZTT0A878NGP372F4Z3FH6OB4RM,267895,267895,,,,,,,,,,
,,,,4,17.58749,0,6,6,493,1,a table full of cards with a stack of black and white cards with a person depicted on the right side.,a table full of cards with a stack of black and white cards with a person depicted on the left side.,ma,98265889,7,29,A263Y9ZPYSSTB9,2021-01-07_20h19.45.423,MetaAwareness,2020.1.2,Win32,60,39HYCOOPKPOR4CXA53FESPKPN4SMDS,A263Y9ZPYSSTB9,32VNZTT0A878NGP372F4Z3FH6OB4RM,0ZV25,0ZV25,32VNZTT0A878NGP372F4Z3FH6OB4RM,32VNZTT0A878NGP372F4Z3FH6OB4RM,267895,267895,,,,,,,,,,
,,,,6,8.287425,0,7,7,142,1,12 various toy dinosaurs ranging from tiny to big,12 various toy dinosaurs ranging from tiny to big,ma,38466626,5,29,A263Y9ZPYSSTB9,2021-01-07_20h19.45.423,MetaAwareness,2020.1.2,Win32,60,39HYCOOPKPOR4CXA53FESPKPN4SMDS,A263Y9ZPYSSTB9,32VNZTT0A878NGP372F4Z3FH6OB4RM,0ZV25,0ZV25,32VNZTT0A878NGP372F4Z3FH6OB4RM,32VNZTT0A878NGP372F4Z3FH6OB4RM,267895,267895,,,,,,,,,,
,,,,4,14.18962,0,8,8,169,1,various holiday cookies in red green and blue with holiday shapes and a red cookie with a white snow flake in the center.,various holdiay cookies in red green and lbue with holiday shapes and a red cookie with a white snow flake tilted too the right.,ma,44993860,1,29,A263Y9ZPYSSTB9,2021-01-07_20h19.45.423,MetaAwareness,2020.1.2,Win32,60,39HYCOOPKPOR4CXA53FESPKPN4SMDS,A263Y9ZPYSSTB9,32VNZTT0A878NGP372F4Z3FH6OB4RM,0ZV25,0ZV25,32VNZTT0A878NGP372F4Z3FH6OB4RM,32VNZTT0A878NGP372F4Z3FH6OB4RM,267895,267895,,,,,,,,,,
,,,,3,6.538025,0,9,9,405,1,a wall with lot of pictures with a mountain picture in the middle.,a wall with lot of picture with a sea picture in the middle.,ma,83691215,11,29,A263Y9ZPYSSTB9,2021-01-07_20h19.45.423,MetaAwareness,2020.1.2,Win32,60,39HYCOOPKPOR4CXA53FESPKPN4SMDS,A263Y9ZPYSSTB9,32VNZTT0A878NGP372F4Z3FH6OB4RM,0ZV25,0ZV25,32VNZTT0A878NGP372F4Z3FH6OB4RM,32VNZTT0A878NGP372F4Z3FH6OB4RM,267895,267895,,,,,,,,,,
,,,,4,15.52423,0,10,10,32,1,four brightly colored panels on hot air like balloon with small patch of pink,four brightly colored panels on hot air like baloon,ma,12178414,4,29,A263Y9ZPYSSTB9,2021-01-07_20h19.45.423,MetaAwareness,2020.1.2,Win32,60,39HYCOOPKPOR4CXA53FESPKPN4SMDS,A263Y9ZPYSSTB9,32VNZTT0A878NGP372F4Z3FH6OB4RM,0ZV25,0ZV25,32VNZTT0A878NGP372F4Z3FH6OB4RM,32VNZTT0A878NGP372F4Z3FH6OB4RM,267895,267895,,,,,,,,,,
,,,,2,25.70105,0,11,11,341,1,a table with dishes and a vase with yellow and blue flowers,a table with flowers and a lot of blue flowers with dishes,ma,77574131,4,29,A263Y9ZPYSSTB9,2021-01-07_20h19.45.423,MetaAwareness,2020.1.2,Win32,60,39HYCOOPKPOR4CXA53FESPKPN4SMDS,A263Y9ZPYSSTB9,32VNZTT0A878NGP372F4Z3FH6OB4RM,0ZV25,0ZV25,32VNZTT0A878NGP372F4Z3FH6OB4RM,32VNZTT0A878NGP372F4Z3FH6OB4RM,267895,267895,,,,,,,,,,
,,,,2,4.237395,0,12,12,75,1,decorated chocolate cupcakes on a white table,chocolate cupcakes with pirate faces and paper bags with a pumpkin sticker on them,ma,18345691,7,29,A263Y9ZPYSSTB9,2021-01-07_20h19.45.423,MetaAwareness,2020.1.2,Win32,60,39HYCOOPKPOR4CXA53FESPKPN4SMDS,A263Y9ZPYSSTB9,32VNZTT0A878NGP372F4Z3FH6OB4RM,0ZV25,0ZV25,32VNZTT0A878NGP372F4Z3FH6OB4RM,32VNZTT0A878NGP372F4Z3FH6OB4RM,267895,267895,,,,,,,,,,
,,,,4,5.88468,0,13,13,457,1,pinwheels stuck onto two pieces of wood,decorative pinwheels stuck onto two wooden boards and one has a pink heart in the center,ma,90405028,7,29,A263Y9ZPYSSTB9,2021-01-07_20h19.45.423,MetaAwareness,2020.1.2,Win32,60,39HYCOOPKPOR4CXA53FESPKPN4SMDS,A263Y9ZPYSSTB9,32VNZTT0A878NGP372F4Z3FH6OB4RM,0ZV25,0ZV25,32VNZTT0A878NGP372F4Z3FH6OB4RM,32VNZTT0A878NGP372F4Z3FH6OB4RM,267895,267895,,,,,,,,,,
,,,,4,8.015445,0,14,14,196,1,a group of colorful toys is led by a pink legged purple toy,a group of colorful toys is led by a purple toy,ma,48384711,4,29,A263Y9ZPYSSTB9,2021-01-07_20h19.45.423,MetaAwareness,2020.1.2,Win32,60,39HYCOOPKPOR4CXA53FESPKPN4SMDS,A263Y9ZPYSSTB9,32VNZTT0A878NGP372F4Z3FH6OB4RM,0ZV25,0ZV25,32VNZTT0A878NGP372F4Z3FH6OB4RM,32VNZTT0A878NGP372F4Z3FH6OB4RM,267895,267895,,,,,,,,,,
,,,,4,20.005775,0,15,15,321,1,all different types of what resembles painted rocks.  in the yellow square there is a heart shape rock that is yellow with red dots.  it is turned so that the point of the heart is facing to the right,all different type of what resembles painted rocks.  in the yellow square there is a heart shape rock that is yellow with red dots.  it is turned so that the point of the heart is almost facing completlely down.,ma,75958241,1,29,A263Y9ZPYSSTB9,2021-01-07_20h19.45.423,MetaAwareness,2020.1.2,Win32,60,39HYCOOPKPOR4CXA53FESPKPN4SMDS,A263Y9ZPYSSTB9,32VNZTT0A878NGP372F4Z3FH6OB4RM,0ZV25,0ZV25,32VNZTT0A878NGP372F4Z3FH6OB4RM,32VNZTT0A878NGP372F4Z3FH6OB4RM,267895,267895,,,,,,,,,,
,,,,5,19.488515,0,16,16,241,1,"a white table with candies, cookies, cupcakes and other goodies","a white table with cupcakes, candies in jars, cookies and other goodies",ma,61118260,1,29,A263Y9ZPYSSTB9,2021-01-07_20h19.45.423,MetaAwareness,2020.1.2,Win32,60,39HYCOOPKPOR4CXA53FESPKPN4SMDS,A263Y9ZPYSSTB9,32VNZTT0A878NGP372F4Z3FH6OB4RM,0ZV25,0ZV25,32VNZTT0A878NGP372F4Z3FH6OB4RM,32VNZTT0A878NGP372F4Z3FH6OB4RM,267895,267895,,,,,,,,,,
,,,,4,7.97266,0,17,17,489,1,"a table full of booklets and cards, one with a man appearing on the right side of the booklet.","a table full of booklets and cards, one with man appearing on the left side of the booklet.",ma,98265889,3,29,A263Y9ZPYSSTB9,2021-01-07_20h19.45.423,MetaAwareness,2020.1.2,Win32,60,39HYCOOPKPOR4CXA53FESPKPN4SMDS,A263Y9ZPYSSTB9,32VNZTT0A878NGP372F4Z3FH6OB4RM,0ZV25,0ZV25,32VNZTT0A878NGP372F4Z3FH6OB4RM,32VNZTT0A878NGP372F4Z3FH6OB4RM,267895,267895,,,,,,,,,,
,,,,3,8.72181,0,18,18,65,1,a mango table cover  the mango in the yellow box has no stem and the dots are much larger than the other picture.,a mango table cover the mango in the yellow box has a stem and the dots are much smaller than the other picture.,ma,18169626,1,29,A263Y9ZPYSSTB9,2021-01-07_20h19.45.423,MetaAwareness,2020.1.2,Win32,60,39HYCOOPKPOR4CXA53FESPKPN4SMDS,A263Y9ZPYSSTB9,32VNZTT0A878NGP372F4Z3FH6OB4RM,0ZV25,0ZV25,32VNZTT0A878NGP372F4Z3FH6OB4RM,32VNZTT0A878NGP372F4Z3FH6OB4RM,267895,267895,,,,,,,,,,
,,,,3,11.472505,0,19,19,125,1,a picture of a desk with a laptop and a desktop monitor. the monitor shows a banner for a website.,a picture of a desk with a laptop and a desktop monitor. half of the monitor is filled with a website with a small banner at the top.,ma,31236119,1,29,A263Y9ZPYSSTB9,2021-01-07_20h19.45.423,MetaAwareness,2020.1.2,Win32,60,39HYCOOPKPOR4CXA53FESPKPN4SMDS,A263Y9ZPYSSTB9,32VNZTT0A878NGP372F4Z3FH6OB4RM,0ZV25,0ZV25,32VNZTT0A878NGP372F4Z3FH6OB4RM,32VNZTT0A878NGP372F4Z3FH6OB4RM,267895,267895,,,,,,,,,,
,,,,4,10.0219,0,20,20,264,1,an outdoor dining table arrangement with 9 place completely set for dining and 1 place missing its plate and silverware,an outdoor dining table arrangement with 9 places completely set for dining and 1 place missing its plate,ma,67862299,3,29,A263Y9ZPYSSTB9,2021-01-07_20h19.45.423,MetaAwareness,2020.1.2,Win32,60,39HYCOOPKPOR4CXA53FESPKPN4SMDS,A263Y9ZPYSSTB9,32VNZTT0A878NGP372F4Z3FH6OB4RM,0ZV25,0ZV25,32VNZTT0A878NGP372F4Z3FH6OB4RM,32VNZTT0A878NGP372F4Z3FH6OB4RM,267895,267895,,,,,,,,,,
,,,,3,24.49074,0,21,21,392,1,a 3 story wide building with windows in each section except the end,a 3 story wide building with all windows in each section,ma,83536470,2,29,A263Y9ZPYSSTB9,2021-01-07_20h19.45.423,MetaAwareness,2020.1.2,Win32,60,39HYCOOPKPOR4CXA53FESPKPN4SMDS,A263Y9ZPYSSTB9,32VNZTT0A878NGP372F4Z3FH6OB4RM,0ZV25,0ZV25,32VNZTT0A878NGP372F4Z3FH6OB4RM,32VNZTT0A878NGP372F4Z3FH6OB4RM,267895,267895,,,,,,,,,,
,,,,3,9.221705,0,22,22,384,1,"an electric circuit board, with a wire on the bottom that spans to the locatin of the microchip on the right","an electric circuit board, with a wire on the bottom that spans not quite to the location of the microchip on the right",ma,8197559,8,29,A263Y9ZPYSSTB9,2021-01-07_20h19.45.423,MetaAwareness,2020.1.2,Win32,60,39HYCOOPKPOR4CXA53FESPKPN4SMDS,A263Y9ZPYSSTB9,32VNZTT0A878NGP372F4Z3FH6OB4RM,0ZV25,0ZV25,32VNZTT0A878NGP372F4Z3FH6OB4RM,32VNZTT0A878NGP372F4Z3FH6OB4RM,267895,267895,,,,,,,,,,
,,,,5,6.189835,0,23,23,146,1,"a brown shelf on a tan wall with two flower displays, a photo, and a book with a blue dot on it","a brown shelf on a tan wall with two flower displays, a photo, and a brown book",ma,38546029,4,29,A263Y9ZPYSSTB9,2021-01-07_20h19.45.423,MetaAwareness,2020.1.2,Win32,60,39HYCOOPKPOR4CXA53FESPKPN4SMDS,A263Y9ZPYSSTB9,32VNZTT0A878NGP372F4Z3FH6OB4RM,0ZV25,0ZV25,32VNZTT0A878NGP372F4Z3FH6OB4RM,32VNZTT0A878NGP372F4Z3FH6OB4RM,267895,267895,,,,,,,,,,
,,,,4,4.273585,0,24,24,156,1,a cluttered table with wood carving tools and an image that has a swirl above the circle,a clutered table with wood carving tools and an image with a blank space above the circle,ma,42429798,4,29,A263Y9ZPYSSTB9,2021-01-07_20h19.45.423,MetaAwareness,2020.1.2,Win32,60,39HYCOOPKPOR4CXA53FESPKPN4SMDS,A263Y9ZPYSSTB9,32VNZTT0A878NGP372F4Z3FH6OB4RM,0ZV25,0ZV25,32VNZTT0A878NGP372F4Z3FH6OB4RM,32VNZTT0A878NGP372F4Z3FH6OB4RM,267895,267895,,,,,,,,,,
,,,,4,7.36973,0,25,25,80,1,a vanity with various trinkets adorning it including a yellow cloth,a vanity with various trinkets adorning it including rocks on a yellow cloth,ma,22020472,5,29,A263Y9ZPYSSTB9,2021-01-07_20h19.45.423,MetaAwareness,2020.1.2,Win32,60,39HYCOOPKPOR4CXA53FESPKPN4SMDS,A263Y9ZPYSSTB9,32VNZTT0A878NGP372F4Z3FH6OB4RM,0ZV25,0ZV25,32VNZTT0A878NGP372F4Z3FH6OB4RM,32VNZTT0A878NGP372F4Z3FH6OB4RM,267895,267895,,,,,,,,,,
,,,,3,6.93762,0,26,26,56,1,a nice set of furniture with a chair that has a large pillow,a nice set of furniture with a chair that has a normal size pillow,ma,13873251,8,29,A263Y9ZPYSSTB9,2021-01-07_20h19.45.423,MetaAwareness,2020.1.2,Win32,60,39HYCOOPKPOR4CXA53FESPKPN4SMDS,A263Y9ZPYSSTB9,32VNZTT0A878NGP372F4Z3FH6OB4RM,0ZV25,0ZV25,32VNZTT0A878NGP372F4Z3FH6OB4RM,32VNZTT0A878NGP372F4Z3FH6OB4RM,267895,267895,,,,,,,,,,
,,,,2,7.19027,0,27,27,287,1,a plate of halloween themed candies,a candy baty decoration on a larger halloween themed candy,ma,72488522,1,29,A263Y9ZPYSSTB9,2021-01-07_20h19.45.423,MetaAwareness,2020.1.2,Win32,60,39HYCOOPKPOR4CXA53FESPKPN4SMDS,A263Y9ZPYSSTB9,32VNZTT0A878NGP372F4Z3FH6OB4RM,0ZV25,0ZV25,32VNZTT0A878NGP372F4Z3FH6OB4RM,32VNZTT0A878NGP372F4Z3FH6OB4RM,267895,267895,,,,,,,,,,
,,,,4,12.021985,0,28,28,70,1,several cupcakes designed to look like pirates with packages in the background with large pirate ship designs on them,several cupcakes designed to look like pirates with packages in the background with medium sized pirate ship designs on them,ma,18345691,2,29,A263Y9ZPYSSTB9,2021-01-07_20h19.45.423,MetaAwareness,2020.1.2,Win32,60,39HYCOOPKPOR4CXA53FESPKPN4SMDS,A263Y9ZPYSSTB9,32VNZTT0A878NGP372F4Z3FH6OB4RM,0ZV25,0ZV25,32VNZTT0A878NGP372F4Z3FH6OB4RM,32VNZTT0A878NGP372F4Z3FH6OB4RM,267895,267895,,,,,,,,,,
,,,,3,9.688475,0,29,29,436,1,"cookie cutouts with hearts on the bottom.  large, small, and medium size.","cookie cutouts with hearts on the bottom.  large, small, and mini size.",ma,88767165,6,29,A263Y9ZPYSSTB9,2021-01-07_20h19.45.423,MetaAwareness,2020.1.2,Win32,60,39HYCOOPKPOR4CXA53FESPKPN4SMDS,A263Y9ZPYSSTB9,32VNZTT0A878NGP372F4Z3FH6OB4RM,0ZV25,0ZV25,32VNZTT0A878NGP372F4Z3FH6OB4RM,32VNZTT0A878NGP372F4Z3FH6OB4RM,267895,267895,,,,,,,,,,
,,,,,,,,,,,,,,,,29,A263Y9ZPYSSTB9,2021-01-07_20h19.45.423,MetaAwareness,2020.1.2,Win32,60,39HYCOOPKPOR4CXA53FESPKPN4SMDS,A263Y9ZPYSSTB9,32VNZTT0A878NGP372F4Z3FH6OB4RM,0ZV25,0ZV25,32VNZTT0A878NGP372F4Z3FH6OB4RM,32VNZTT0A878NGP372F4Z3FH6OB4RM,267895,267895,6,10.791745,someone laying underneath a blue beach umbrella on a crowded beach,someone laying underneath a blue beach umbrella on a crowded beach,same,1,23.191225,members of a marching band crossing a track that all have feather plumes at the front of their hats,a cluttered and rustic looking cafe with 10 hanging lights,different