consent_response.keys,consent_response.rt,key_resp_2.keys,key_resp_2.rt,user_resp.keys,user_resp.rt,trials.thisRepN,trials.thisTrialN,trials.thisN,trials.thisIndex,trials.ran,image_1_text,image_2_text,database,image,number,age,worker_ID,date,expName,psychopyVersion,OS,frameRate,hitId,workerId,assignmentId,a,tp_a,b,tp_b,c,tp_c,catch_same_resp.keys,catch_same_resp.rt,image_1_text_catch_same,image_2_text_catch_same,image_catch_same,catch_different_resp.keys,catch_different_resp.rt,image_1_text_catch_different,image_2_text_catch_different,image_catch_different
space,4.320355,space,27.81389,5,13.09185,0,0,0,124,1,a quilt with pictures of hand prints and a yellow apple,a quilt with pictures of hand prints and a red apple,ma,3099758,5,35,A2MCG5W6LHSRG9,2021-01-07_21h34.02.964,MetaAwareness,2020.1.2,Win32,60,3ZRKL6Z1E96XERK6RQC8AJMSSLSSGM,A2MCG5W6LHSRG9,3WLEIWSYHPKLV8WD7JKMSKGDZ2UH2L,YILW5,YILW5,3WLEIWSYHPKLV8WD7JKMSKGDZ2UH2L,3WLEIWSYHPKLV8WD7JKMSKGDZ2UH2L,267895,267895,,,,,,,,,,
,,,,5,13.808155,0,1,1,428,1,a table set for six with a flower patterned table cloth. the flower furthest left is orange,a table set for six with a flower patterned table cloth. the flower furthest left is red,ma,87983207,7,35,A2MCG5W6LHSRG9,2021-01-07_21h34.02.964,MetaAwareness,2020.1.2,Win32,60,3ZRKL6Z1E96XERK6RQC8AJMSSLSSGM,A2MCG5W6LHSRG9,3WLEIWSYHPKLV8WD7JKMSKGDZ2UH2L,YILW5,YILW5,3WLEIWSYHPKLV8WD7JKMSKGDZ2UH2L,3WLEIWSYHPKLV8WD7JKMSKGDZ2UH2L,267895,267895,,,,,,,,,,
,,,,5,16.58785,0,2,2,186,1,"a birthdaychristmas arrangement with various gifts and desserts, including a chocolate cake with an orange smiling face","a birthday or christmas arrangement with various gifts and desserts, including a chocolate cake with a red smiling face",ma,46635293,3,35,A2MCG5W6LHSRG9,2021-01-07_21h34.02.964,MetaAwareness,2020.1.2,Win32,60,3ZRKL6Z1E96XERK6RQC8AJMSSLSSGM,A2MCG5W6LHSRG9,3WLEIWSYHPKLV8WD7JKMSKGDZ2UH2L,YILW5,YILW5,3WLEIWSYHPKLV8WD7JKMSKGDZ2UH2L,3WLEIWSYHPKLV8WD7JKMSKGDZ2UH2L,267895,267895,,,,,,,,,,
,,,,5,17.205915,0,3,3,308,1,"a wooden shelf with books,bird statues and guages with a dial pointing to the upper left.","a wooden shelf with books, bird statues and guages with a dial point to the right.",ma,74173745,2,35,A2MCG5W6LHSRG9,2021-01-07_21h34.02.964,MetaAwareness,2020.1.2,Win32,60,3ZRKL6Z1E96XERK6RQC8AJMSSLSSGM,A2MCG5W6LHSRG9,3WLEIWSYHPKLV8WD7JKMSKGDZ2UH2L,YILW5,YILW5,3WLEIWSYHPKLV8WD7JKMSKGDZ2UH2L,3WLEIWSYHPKLV8WD7JKMSKGDZ2UH2L,267895,267895,,,,,,,,,,
,,,,5,19.956335,0,4,4,328,1,"assortment of heart themed objects, including a yellow heart with pink spots laying horizontally, sitting on a wooden board","assortment of heart themed objects, including a yellow heart with pink spots laying diagonally, sitting on a wooden board",ma,75958241,8,35,A2MCG5W6LHSRG9,2021-01-07_21h34.02.964,MetaAwareness,2020.1.2,Win32,60,3ZRKL6Z1E96XERK6RQC8AJMSSLSSGM,A2MCG5W6LHSRG9,3WLEIWSYHPKLV8WD7JKMSKGDZ2UH2L,YILW5,YILW5,3WLEIWSYHPKLV8WD7JKMSKGDZ2UH2L,3WLEIWSYHPKLV8WD7JKMSKGDZ2UH2L,267895,267895,,,,,,,,,,
,,,,3,12.98345,0,5,5,287,1,a plate of halloween themed candies,a candy baty decoration on a larger halloween themed candy,ma,72488522,1,35,A2MCG5W6LHSRG9,2021-01-07_21h34.02.964,MetaAwareness,2020.1.2,Win32,60,3ZRKL6Z1E96XERK6RQC8AJMSSLSSGM,A2MCG5W6LHSRG9,3WLEIWSYHPKLV8WD7JKMSKGDZ2UH2L,YILW5,YILW5,3WLEIWSYHPKLV8WD7JKMSKGDZ2UH2L,3WLEIWSYHPKLV8WD7JKMSKGDZ2UH2L,267895,267895,,,,,,,,,,
,,,,2,7.75607,0,6,6,482,1,a sward hanging up,a sword hanging below the table,ma,98156944,6,35,A2MCG5W6LHSRG9,2021-01-07_21h34.02.964,MetaAwareness,2020.1.2,Win32,60,3ZRKL6Z1E96XERK6RQC8AJMSSLSSGM,A2MCG5W6LHSRG9,3WLEIWSYHPKLV8WD7JKMSKGDZ2UH2L,YILW5,YILW5,3WLEIWSYHPKLV8WD7JKMSKGDZ2UH2L,3WLEIWSYHPKLV8WD7JKMSKGDZ2UH2L,267895,267895,,,,,,,,,,
,,,,6,25.367935,0,7,7,459,1,a two story red brick building with white trim. there are six windows on the second floor and three windows on the first floord,a two story red brick building with white trim there are six windows on the second floor and three windows on the first floor.,ma,95091295,1,35,A2MCG5W6LHSRG9,2021-01-07_21h34.02.964,MetaAwareness,2020.1.2,Win32,60,3ZRKL6Z1E96XERK6RQC8AJMSSLSSGM,A2MCG5W6LHSRG9,3WLEIWSYHPKLV8WD7JKMSKGDZ2UH2L,YILW5,YILW5,3WLEIWSYHPKLV8WD7JKMSKGDZ2UH2L,3WLEIWSYHPKLV8WD7JKMSKGDZ2UH2L,267895,267895,,,,,,,,,,
,,,,4,13.149645,0,8,8,177,1,woodworking tools with a hammer and pencil on the table,woodworking tools with a hammer and no pencil on the table,ma,45525109,6,35,A2MCG5W6LHSRG9,2021-01-07_21h34.02.964,MetaAwareness,2020.1.2,Win32,60,3ZRKL6Z1E96XERK6RQC8AJMSSLSSGM,A2MCG5W6LHSRG9,3WLEIWSYHPKLV8WD7JKMSKGDZ2UH2L,YILW5,YILW5,3WLEIWSYHPKLV8WD7JKMSKGDZ2UH2L,3WLEIWSYHPKLV8WD7JKMSKGDZ2UH2L,267895,267895,,,,,,,,,,
,,,,5,8.584985,0,9,9,294,1,a set of candies on a table that are halloween themed with an orange bat tilted right,a set of candies on a table that are halloween themed with an orange bat tilted left,ma,72488522,8,35,A2MCG5W6LHSRG9,2021-01-07_21h34.02.964,MetaAwareness,2020.1.2,Win32,60,3ZRKL6Z1E96XERK6RQC8AJMSSLSSGM,A2MCG5W6LHSRG9,3WLEIWSYHPKLV8WD7JKMSKGDZ2UH2L,YILW5,YILW5,3WLEIWSYHPKLV8WD7JKMSKGDZ2UH2L,3WLEIWSYHPKLV8WD7JKMSKGDZ2UH2L,267895,267895,,,,,,,,,,
,,,,5,11.394505,0,10,10,123,1,"a quilt, with blue, red and apple handprints on the sides. the bottom center has an image of a green apple","a quilt, with blue, red and apple handprints on the sides. the bottom center has an image of an orange apple",ma,3099758,4,35,A2MCG5W6LHSRG9,2021-01-07_21h34.02.964,MetaAwareness,2020.1.2,Win32,60,3ZRKL6Z1E96XERK6RQC8AJMSSLSSGM,A2MCG5W6LHSRG9,3WLEIWSYHPKLV8WD7JKMSKGDZ2UH2L,YILW5,YILW5,3WLEIWSYHPKLV8WD7JKMSKGDZ2UH2L,3WLEIWSYHPKLV8WD7JKMSKGDZ2UH2L,267895,267895,,,,,,,,,,
,,,,5,5.740995,0,11,11,189,1,a smily cake with a gold mouth,a smily cake with a red mouth,ma,46635293,6,35,A2MCG5W6LHSRG9,2021-01-07_21h34.02.964,MetaAwareness,2020.1.2,Win32,60,3ZRKL6Z1E96XERK6RQC8AJMSSLSSGM,A2MCG5W6LHSRG9,3WLEIWSYHPKLV8WD7JKMSKGDZ2UH2L,YILW5,YILW5,3WLEIWSYHPKLV8WD7JKMSKGDZ2UH2L,3WLEIWSYHPKLV8WD7JKMSKGDZ2UH2L,267895,267895,,,,,,,,,,
,,,,5,11.919665,0,12,12,95,1,a table full of arts and crafts materials the paper in the yellow box in this picture is yellow.,a table full of arts and crafts materials the paper in the yellow box in this picture is red.,ma,23199105,3,35,A2MCG5W6LHSRG9,2021-01-07_21h34.02.964,MetaAwareness,2020.1.2,Win32,60,3ZRKL6Z1E96XERK6RQC8AJMSSLSSGM,A2MCG5W6LHSRG9,3WLEIWSYHPKLV8WD7JKMSKGDZ2UH2L,YILW5,YILW5,3WLEIWSYHPKLV8WD7JKMSKGDZ2UH2L,3WLEIWSYHPKLV8WD7JKMSKGDZ2UH2L,267895,267895,,,,,,,,,,
,,,,5,25.9112,0,13,13,395,1,there are 24 pictures hung on the wall and the fifth picture on the second row from the left has a grey background.,there are 24 pictures hung on the wall and the fifth picture on the second row from the left has a black background.,ma,83691215,1,35,A2MCG5W6LHSRG9,2021-01-07_21h34.02.964,MetaAwareness,2020.1.2,Win32,60,3ZRKL6Z1E96XERK6RQC8AJMSSLSSGM,A2MCG5W6LHSRG9,3WLEIWSYHPKLV8WD7JKMSKGDZ2UH2L,YILW5,YILW5,3WLEIWSYHPKLV8WD7JKMSKGDZ2UH2L,3WLEIWSYHPKLV8WD7JKMSKGDZ2UH2L,267895,267895,,,,,,,,,,
,,,,4,5.83352,0,14,14,452,1,a set of 6 cloths in the shape of whirls and with buttons in the middle,a set of 6 cloths in the shape of swirls all with a button in the middle except one,ma,90405028,2,35,A2MCG5W6LHSRG9,2021-01-07_21h34.02.964,MetaAwareness,2020.1.2,Win32,60,3ZRKL6Z1E96XERK6RQC8AJMSSLSSGM,A2MCG5W6LHSRG9,3WLEIWSYHPKLV8WD7JKMSKGDZ2UH2L,YILW5,YILW5,3WLEIWSYHPKLV8WD7JKMSKGDZ2UH2L,3WLEIWSYHPKLV8WD7JKMSKGDZ2UH2L,267895,267895,,,,,,,,,,
,,,,4,15.26263,0,15,15,321,1,all different types of what resembles painted rocks.  in the yellow square there is a heart shape rock that is yellow with red dots.  it is turned so that the point of the heart is facing to the right,all different type of what resembles painted rocks.  in the yellow square there is a heart shape rock that is yellow with red dots.  it is turned so that the point of the heart is almost facing completlely down.,ma,75958241,1,35,A2MCG5W6LHSRG9,2021-01-07_21h34.02.964,MetaAwareness,2020.1.2,Win32,60,3ZRKL6Z1E96XERK6RQC8AJMSSLSSGM,A2MCG5W6LHSRG9,3WLEIWSYHPKLV8WD7JKMSKGDZ2UH2L,YILW5,YILW5,3WLEIWSYHPKLV8WD7JKMSKGDZ2UH2L,3WLEIWSYHPKLV8WD7JKMSKGDZ2UH2L,267895,267895,,,,,,,,,,
,,,,4,9.341005,0,16,16,137,1,an overflowing toybox with a name on the front and a tilted yellow star underneath.,an overflowing toybox with a name on the front and a centered yellow star underneath.,ma,32289063,9,35,A2MCG5W6LHSRG9,2021-01-07_21h34.02.964,MetaAwareness,2020.1.2,Win32,60,3ZRKL6Z1E96XERK6RQC8AJMSSLSSGM,A2MCG5W6LHSRG9,3WLEIWSYHPKLV8WD7JKMSKGDZ2UH2L,YILW5,YILW5,3WLEIWSYHPKLV8WD7JKMSKGDZ2UH2L,3WLEIWSYHPKLV8WD7JKMSKGDZ2UH2L,267895,267895,,,,,,,,,,
,,,,4,9.889275,0,17,17,434,1,a plate of love themed candy decorations,a tiny red heart shaped candy decoration,ma,88767165,4,35,A2MCG5W6LHSRG9,2021-01-07_21h34.02.964,MetaAwareness,2020.1.2,Win32,60,3ZRKL6Z1E96XERK6RQC8AJMSSLSSGM,A2MCG5W6LHSRG9,3WLEIWSYHPKLV8WD7JKMSKGDZ2UH2L,YILW5,YILW5,3WLEIWSYHPKLV8WD7JKMSKGDZ2UH2L,3WLEIWSYHPKLV8WD7JKMSKGDZ2UH2L,267895,267895,,,,,,,,,,
,,,,4,11.37358,0,18,18,479,1,an organized desk with a decoration standing next to it.,an organized desk with a decoration hanging next to it.,ma,98156944,3,35,A2MCG5W6LHSRG9,2021-01-07_21h34.02.964,MetaAwareness,2020.1.2,Win32,60,3ZRKL6Z1E96XERK6RQC8AJMSSLSSGM,A2MCG5W6LHSRG9,3WLEIWSYHPKLV8WD7JKMSKGDZ2UH2L,YILW5,YILW5,3WLEIWSYHPKLV8WD7JKMSKGDZ2UH2L,3WLEIWSYHPKLV8WD7JKMSKGDZ2UH2L,267895,267895,,,,,,,,,,
,,,,3,13.099935,0,19,19,215,1,a egg shape with smaller size and less ingredient has been added,a egg shape with larger size and maximum amount of ingredient has been added.,ma,51537628,5,35,A2MCG5W6LHSRG9,2021-01-07_21h34.02.964,MetaAwareness,2020.1.2,Win32,60,3ZRKL6Z1E96XERK6RQC8AJMSSLSSGM,A2MCG5W6LHSRG9,3WLEIWSYHPKLV8WD7JKMSKGDZ2UH2L,YILW5,YILW5,3WLEIWSYHPKLV8WD7JKMSKGDZ2UH2L,3WLEIWSYHPKLV8WD7JKMSKGDZ2UH2L,267895,267895,,,,,,,,,,
,,,,5,30.62009,0,20,20,174,1,a pencil and a hammer are put in front of a green plastic box like structure on a wooden board surrounded by four wooden panels.,a hammer is put in front of a green plastic box like structure on a wooden board surrounded by four wooden panels.,ma,45525109,1,35,A2MCG5W6LHSRG9,2021-01-07_21h34.02.964,MetaAwareness,2020.1.2,Win32,60,3ZRKL6Z1E96XERK6RQC8AJMSSLSSGM,A2MCG5W6LHSRG9,3WLEIWSYHPKLV8WD7JKMSKGDZ2UH2L,YILW5,YILW5,3WLEIWSYHPKLV8WD7JKMSKGDZ2UH2L,3WLEIWSYHPKLV8WD7JKMSKGDZ2UH2L,267895,267895,,,,,,,,,,
,,,,6,11.56688,0,21,21,387,1,a reserved event table with all white dinerware,a reserved event table with all white dinerware,ma,81993755,3,35,A2MCG5W6LHSRG9,2021-01-07_21h34.02.964,MetaAwareness,2020.1.2,Win32,60,3ZRKL6Z1E96XERK6RQC8AJMSSLSSGM,A2MCG5W6LHSRG9,3WLEIWSYHPKLV8WD7JKMSKGDZ2UH2L,YILW5,YILW5,3WLEIWSYHPKLV8WD7JKMSKGDZ2UH2L,3WLEIWSYHPKLV8WD7JKMSKGDZ2UH2L,267895,267895,,,,,,,,,,
,,,,5,11.84439,0,22,22,222,1,"20 pictures, all of different sizes, and the left-most one is square","20 pictures, all of different sizes, and the lleft-most one is rectangle",ma,51856108,5,35,A2MCG5W6LHSRG9,2021-01-07_21h34.02.964,MetaAwareness,2020.1.2,Win32,60,3ZRKL6Z1E96XERK6RQC8AJMSSLSSGM,A2MCG5W6LHSRG9,3WLEIWSYHPKLV8WD7JKMSKGDZ2UH2L,YILW5,YILW5,3WLEIWSYHPKLV8WD7JKMSKGDZ2UH2L,3WLEIWSYHPKLV8WD7JKMSKGDZ2UH2L,267895,267895,,,,,,,,,,
,,,,4,12.19871,0,23,23,29,1,a parachute with gas fire at pink color edges.,a parachute with gas fire at yellow color edges.,ma,12178414,1,35,A2MCG5W6LHSRG9,2021-01-07_21h34.02.964,MetaAwareness,2020.1.2,Win32,60,3ZRKL6Z1E96XERK6RQC8AJMSSLSSGM,A2MCG5W6LHSRG9,3WLEIWSYHPKLV8WD7JKMSKGDZ2UH2L,YILW5,YILW5,3WLEIWSYHPKLV8WD7JKMSKGDZ2UH2L,3WLEIWSYHPKLV8WD7JKMSKGDZ2UH2L,267895,267895,,,,,,,,,,
,,,,5,23.09216,0,24,24,241,1,"a white table with candies, cookies, cupcakes and other goodies","a white table with cupcakes, candies in jars, cookies and other goodies",ma,61118260,1,35,A2MCG5W6LHSRG9,2021-01-07_21h34.02.964,MetaAwareness,2020.1.2,Win32,60,3ZRKL6Z1E96XERK6RQC8AJMSSLSSGM,A2MCG5W6LHSRG9,3WLEIWSYHPKLV8WD7JKMSKGDZ2UH2L,YILW5,YILW5,3WLEIWSYHPKLV8WD7JKMSKGDZ2UH2L,3WLEIWSYHPKLV8WD7JKMSKGDZ2UH2L,267895,267895,,,,,,,,,,
,,,,5,9.301025,0,25,25,329,1,eight pink-frosted cupcakes with a pink ribbon and the word 'gughlhof',eight pink-frosted cupcakes with a pink ribbon and the word 'gugelhofe',ma,77345858,2,35,A2MCG5W6LHSRG9,2021-01-07_21h34.02.964,MetaAwareness,2020.1.2,Win32,60,3ZRKL6Z1E96XERK6RQC8AJMSSLSSGM,A2MCG5W6LHSRG9,3WLEIWSYHPKLV8WD7JKMSKGDZ2UH2L,YILW5,YILW5,3WLEIWSYHPKLV8WD7JKMSKGDZ2UH2L,3WLEIWSYHPKLV8WD7JKMSKGDZ2UH2L,267895,267895,,,,,,,,,,
,,,,5,14.127525,0,26,26,374,1,a bohemian bedroom with a large abstract pink painting hanging,a bohemian bedroom with a small abstract pink painting hanging,ma,79573638,3,35,A2MCG5W6LHSRG9,2021-01-07_21h34.02.964,MetaAwareness,2020.1.2,Win32,60,3ZRKL6Z1E96XERK6RQC8AJMSSLSSGM,A2MCG5W6LHSRG9,3WLEIWSYHPKLV8WD7JKMSKGDZ2UH2L,YILW5,YILW5,3WLEIWSYHPKLV8WD7JKMSKGDZ2UH2L,3WLEIWSYHPKLV8WD7JKMSKGDZ2UH2L,267895,267895,,,,,,,,,,
,,,,4,7.579465,0,27,27,33,1,presumably a colorful hot air balloon with one section being miscolored as purple.,presumably a colorful hot air balloon with one section matching the rest as yellow.,ma,12178414,5,35,A2MCG5W6LHSRG9,2021-01-07_21h34.02.964,MetaAwareness,2020.1.2,Win32,60,3ZRKL6Z1E96XERK6RQC8AJMSSLSSGM,A2MCG5W6LHSRG9,3WLEIWSYHPKLV8WD7JKMSKGDZ2UH2L,YILW5,YILW5,3WLEIWSYHPKLV8WD7JKMSKGDZ2UH2L,3WLEIWSYHPKLV8WD7JKMSKGDZ2UH2L,267895,267895,,,,,,,,,,
,,,,5,9.982795,0,28,28,200,1,a group of action figures with a bunny with pink feet in the front,a group of acton figures with a bunny with purple feet in the front,ma,48384711,9,35,A2MCG5W6LHSRG9,2021-01-07_21h34.02.964,MetaAwareness,2020.1.2,Win32,60,3ZRKL6Z1E96XERK6RQC8AJMSSLSSGM,A2MCG5W6LHSRG9,3WLEIWSYHPKLV8WD7JKMSKGDZ2UH2L,YILW5,YILW5,3WLEIWSYHPKLV8WD7JKMSKGDZ2UH2L,3WLEIWSYHPKLV8WD7JKMSKGDZ2UH2L,267895,267895,,,,,,,,,,
,,,,4,9.17586,0,29,29,282,1,"a red, white and green quilt. the segment in the box is red","a red, white and gree quilt. the segment in the box is peach colored.",ma,70687495,5,35,A2MCG5W6LHSRG9,2021-01-07_21h34.02.964,MetaAwareness,2020.1.2,Win32,60,3ZRKL6Z1E96XERK6RQC8AJMSSLSSGM,A2MCG5W6LHSRG9,3WLEIWSYHPKLV8WD7JKMSKGDZ2UH2L,YILW5,YILW5,3WLEIWSYHPKLV8WD7JKMSKGDZ2UH2L,3WLEIWSYHPKLV8WD7JKMSKGDZ2UH2L,267895,267895,,,,,,,,,,
,,,,,,,,,,,,,,,,35,A2MCG5W6LHSRG9,2021-01-07_21h34.02.964,MetaAwareness,2020.1.2,Win32,60,3ZRKL6Z1E96XERK6RQC8AJMSSLSSGM,A2MCG5W6LHSRG9,3WLEIWSYHPKLV8WD7JKMSKGDZ2UH2L,YILW5,YILW5,3WLEIWSYHPKLV8WD7JKMSKGDZ2UH2L,3WLEIWSYHPKLV8WD7JKMSKGDZ2UH2L,267895,267895,6,13.422665,someone laying underneath a blue beach umbrella on a crowded beach,someone laying underneath a blue beach umbrella on a crowded beach,same,1,9.46963,members of a marching band crossing a track that all have feather plumes at the front of their hats,a cluttered and rustic looking cafe with 10 hanging lights,different
