consent_response.keys,consent_response.rt,key_resp_2.keys,key_resp_2.rt,user_resp.keys,user_resp.rt,trials.thisRepN,trials.thisTrialN,trials.thisN,trials.thisIndex,trials.ran,image_1_text,image_2_text,database,image,number,age,worker_ID,date,expName,psychopyVersion,OS,frameRate,hitId,workerId,assignmentId,a,tp_a,b,tp_b,c,tp_c,catch_same_resp.keys,catch_same_resp.rt,image_1_text_catch_same,image_2_text_catch_same,image_catch_same,catch_different_resp.keys,catch_different_resp.rt,image_1_text_catch_different,image_2_text_catch_different,image_catch_different
space,12.282,space,31.566,2,18.998,0,0,0,264,1,an outdoor dining table arrangement with 9 place completely set for dining and 1 place missing its plate and silverware,an outdoor dining table arrangement with 9 places completely set for dining and 1 place missing its plate,ma,67862299,3,32,A2PN1H89SQF28M,2021-01-07_22h10.46.623,MetaAwareness,2020.1.2,Win32,60,3ZRKL6Z1E96XERK6RQC8AJMSSLSSGM,A2PN1H89SQF28M,3F6KKYWMNC408EG476ZGTN4DI5SND9,MK6F5,MK6F5,3F6KKYWMNC408EG476ZGTN4DI5SND9,3F6KKYWMNC408EG476ZGTN4DI5SND9,267895,267895,,,,,,,,,,
,,,,5,14.607,0,1,1,324,1,heart decorations and painted heart stones touching,heart decorations and painted heart stones,ma,75958241,4,32,A2PN1H89SQF28M,2021-01-07_22h10.46.623,MetaAwareness,2020.1.2,Win32,60,3ZRKL6Z1E96XERK6RQC8AJMSSLSSGM,A2PN1H89SQF28M,3F6KKYWMNC408EG476ZGTN4DI5SND9,MK6F5,MK6F5,3F6KKYWMNC408EG476ZGTN4DI5SND9,3F6KKYWMNC408EG476ZGTN4DI5SND9,267895,267895,,,,,,,,,,
,,,,4,4.211,0,2,2,424,1,a tablecloth with one orange flower and the rest are red.,a tablecloth with red flowers,ma,87983207,3,32,A2PN1H89SQF28M,2021-01-07_22h10.46.623,MetaAwareness,2020.1.2,Win32,60,3ZRKL6Z1E96XERK6RQC8AJMSSLSSGM,A2PN1H89SQF28M,3F6KKYWMNC408EG476ZGTN4DI5SND9,MK6F5,MK6F5,3F6KKYWMNC408EG476ZGTN4DI5SND9,3F6KKYWMNC408EG476ZGTN4DI5SND9,267895,267895,,,,,,,,,,
,,,,5,9.279,0,3,3,270,1,rows of business cards with a website at the bottom of the card,rows of business cards with the website under the phone number,ma,69128765,3,32,A2PN1H89SQF28M,2021-01-07_22h10.46.623,MetaAwareness,2020.1.2,Win32,60,3ZRKL6Z1E96XERK6RQC8AJMSSLSSGM,A2PN1H89SQF28M,3F6KKYWMNC408EG476ZGTN4DI5SND9,MK6F5,MK6F5,3F6KKYWMNC408EG476ZGTN4DI5SND9,3F6KKYWMNC408EG476ZGTN4DI5SND9,267895,267895,,,,,,,,,,
,,,,3,13.082,0,4,4,213,1,food table. egg on the back has less cheese,food table. egg on the back has more cheese.,ma,51537628,3,32,A2PN1H89SQF28M,2021-01-07_22h10.46.623,MetaAwareness,2020.1.2,Win32,60,3ZRKL6Z1E96XERK6RQC8AJMSSLSSGM,A2PN1H89SQF28M,3F6KKYWMNC408EG476ZGTN4DI5SND9,MK6F5,MK6F5,3F6KKYWMNC408EG476ZGTN4DI5SND9,3F6KKYWMNC408EG476ZGTN4DI5SND9,267895,267895,,,,,,,,,,
,,,,4,5.252,0,5,5,375,1,"an eceltic decorated room with artwork hung on the wall with clothes pins, the center artwork being the largest and pink.","a decorated bedroom with artwork hung on the wall with string and clothes pins, the center artwork being pink.",ma,79573638,4,32,A2PN1H89SQF28M,2021-01-07_22h10.46.623,MetaAwareness,2020.1.2,Win32,60,3ZRKL6Z1E96XERK6RQC8AJMSSLSSGM,A2PN1H89SQF28M,3F6KKYWMNC408EG476ZGTN4DI5SND9,MK6F5,MK6F5,3F6KKYWMNC408EG476ZGTN4DI5SND9,3F6KKYWMNC408EG476ZGTN4DI5SND9,267895,267895,,,,,,,,,,
,,,,6,10.771,0,6,6,331,1,cupcakes with the word 'gughlhof' on a ribbon,cupcakes with the word 'gugelhof' on a ribbon,ma,77345858,4,32,A2PN1H89SQF28M,2021-01-07_22h10.46.623,MetaAwareness,2020.1.2,Win32,60,3ZRKL6Z1E96XERK6RQC8AJMSSLSSGM,A2PN1H89SQF28M,3F6KKYWMNC408EG476ZGTN4DI5SND9,MK6F5,MK6F5,3F6KKYWMNC408EG476ZGTN4DI5SND9,3F6KKYWMNC408EG476ZGTN4DI5SND9,267895,267895,,,,,,,,,,
,,,,6,7.708,0,7,7,487,1,"a checkered cloth table with small books and pamphlets, including a black book with a white sillouette of a man on the right side of the cover","a checkered cloth table with small books and pamphlets, including a blackbook with a white sillouette of a man on the right side of the cover",ma,98265889,1,32,A2PN1H89SQF28M,2021-01-07_22h10.46.623,MetaAwareness,2020.1.2,Win32,60,3ZRKL6Z1E96XERK6RQC8AJMSSLSSGM,A2PN1H89SQF28M,3F6KKYWMNC408EG476ZGTN4DI5SND9,MK6F5,MK6F5,3F6KKYWMNC408EG476ZGTN4DI5SND9,3F6KKYWMNC408EG476ZGTN4DI5SND9,267895,267895,,,,,,,,,,
,,,,6,7.367,0,8,8,386,1,a name board is not available infront of spoon on the table.,a name board is available infront of spoon on the table.,ma,81993755,2,32,A2PN1H89SQF28M,2021-01-07_22h10.46.623,MetaAwareness,2020.1.2,Win32,60,3ZRKL6Z1E96XERK6RQC8AJMSSLSSGM,A2PN1H89SQF28M,3F6KKYWMNC408EG476ZGTN4DI5SND9,MK6F5,MK6F5,3F6KKYWMNC408EG476ZGTN4DI5SND9,3F6KKYWMNC408EG476ZGTN4DI5SND9,267895,267895,,,,,,,,,,
,,,,5,8.262,0,9,9,185,1,a chocolate cake with a brown smiley face.,a chocolate cake with a red smiley face.,ma,46635293,2,32,A2PN1H89SQF28M,2021-01-07_22h10.46.623,MetaAwareness,2020.1.2,Win32,60,3ZRKL6Z1E96XERK6RQC8AJMSSLSSGM,A2PN1H89SQF28M,3F6KKYWMNC408EG476ZGTN4DI5SND9,MK6F5,MK6F5,3F6KKYWMNC408EG476ZGTN4DI5SND9,3F6KKYWMNC408EG476ZGTN4DI5SND9,267895,267895,,,,,,,,,,
,,,,4,10.585,0,10,10,379,1,an electrical component with a metal handle approximately four inches in length,an electrical component with a metal handle approximately two inches in lenth,ma,8197559,3,32,A2PN1H89SQF28M,2021-01-07_22h10.46.623,MetaAwareness,2020.1.2,Win32,60,3ZRKL6Z1E96XERK6RQC8AJMSSLSSGM,A2PN1H89SQF28M,3F6KKYWMNC408EG476ZGTN4DI5SND9,MK6F5,MK6F5,3F6KKYWMNC408EG476ZGTN4DI5SND9,3F6KKYWMNC408EG476ZGTN4DI5SND9,267895,267895,,,,,,,,,,
,,,,4,12.632,0,11,11,363,1,an alphabet number blanket with a 4 beside the g,an alphabet nunber blanket with a 4 above the g,ma,79222679,3,32,A2PN1H89SQF28M,2021-01-07_22h10.46.623,MetaAwareness,2020.1.2,Win32,60,3ZRKL6Z1E96XERK6RQC8AJMSSLSSGM,A2PN1H89SQF28M,3F6KKYWMNC408EG476ZGTN4DI5SND9,MK6F5,MK6F5,3F6KKYWMNC408EG476ZGTN4DI5SND9,3F6KKYWMNC408EG476ZGTN4DI5SND9,267895,267895,,,,,,,,,,
,,,,4,3.168,0,12,12,430,1,a dining table with red flower printed pattern and only one orange flower .,a dining table with all red flower printed pattern.,ma,87983207,9,32,A2PN1H89SQF28M,2021-01-07_22h10.46.623,MetaAwareness,2020.1.2,Win32,60,3ZRKL6Z1E96XERK6RQC8AJMSSLSSGM,A2PN1H89SQF28M,3F6KKYWMNC408EG476ZGTN4DI5SND9,MK6F5,MK6F5,3F6KKYWMNC408EG476ZGTN4DI5SND9,3F6KKYWMNC408EG476ZGTN4DI5SND9,267895,267895,,,,,,,,,,
,,,,5,3.319,0,13,13,372,1,a decorated bedroom the poster in the yellow box in longer than the other picture.,a decorated bedroom the poster in the yellow box is shorter in this picture.,ma,79573638,1,32,A2PN1H89SQF28M,2021-01-07_22h10.46.623,MetaAwareness,2020.1.2,Win32,60,3ZRKL6Z1E96XERK6RQC8AJMSSLSSGM,A2PN1H89SQF28M,3F6KKYWMNC408EG476ZGTN4DI5SND9,MK6F5,MK6F5,3F6KKYWMNC408EG476ZGTN4DI5SND9,3F6KKYWMNC408EG476ZGTN4DI5SND9,267895,267895,,,,,,,,,,
,,,,4,3.606,0,14,14,373,1,a bigger rectangle size photo frame are available.,a smaller rectangle size photo frame are available.,ma,79573638,2,32,A2PN1H89SQF28M,2021-01-07_22h10.46.623,MetaAwareness,2020.1.2,Win32,60,3ZRKL6Z1E96XERK6RQC8AJMSSLSSGM,A2PN1H89SQF28M,3F6KKYWMNC408EG476ZGTN4DI5SND9,MK6F5,MK6F5,3F6KKYWMNC408EG476ZGTN4DI5SND9,3F6KKYWMNC408EG476ZGTN4DI5SND9,267895,267895,,,,,,,,,,
,,,,4,12.739,0,15,15,356,1,"there are two rows of backpacks on a shelf with the eighth one on the top row being green, and a bicycle in front of them","there are two rows of backpacks on a shelf with the eighth one on the top row being black, and a bicycle in front of them",ma,79191795,1,32,A2PN1H89SQF28M,2021-01-07_22h10.46.623,MetaAwareness,2020.1.2,Win32,60,3ZRKL6Z1E96XERK6RQC8AJMSSLSSGM,A2PN1H89SQF28M,3F6KKYWMNC408EG476ZGTN4DI5SND9,MK6F5,MK6F5,3F6KKYWMNC408EG476ZGTN4DI5SND9,3F6KKYWMNC408EG476ZGTN4DI5SND9,267895,267895,,,,,,,,,,
,,,,4,6.662,0,16,16,470,1,a business card on a table next to some colored pencils.,a business card laid out in front of otgers on a table with pencils.,ma,97475929,1,32,A2PN1H89SQF28M,2021-01-07_22h10.46.623,MetaAwareness,2020.1.2,Win32,60,3ZRKL6Z1E96XERK6RQC8AJMSSLSSGM,A2PN1H89SQF28M,3F6KKYWMNC408EG476ZGTN4DI5SND9,MK6F5,MK6F5,3F6KKYWMNC408EG476ZGTN4DI5SND9,3F6KKYWMNC408EG476ZGTN4DI5SND9,267895,267895,,,,,,,,,,
,,,,5,5.653,0,17,17,397,1,the picture is like a scenerio,the picture is a sea,ma,83691215,3,32,A2PN1H89SQF28M,2021-01-07_22h10.46.623,MetaAwareness,2020.1.2,Win32,60,3ZRKL6Z1E96XERK6RQC8AJMSSLSSGM,A2PN1H89SQF28M,3F6KKYWMNC408EG476ZGTN4DI5SND9,MK6F5,MK6F5,3F6KKYWMNC408EG476ZGTN4DI5SND9,3F6KKYWMNC408EG476ZGTN4DI5SND9,267895,267895,,,,,,,,,,
,,,,4,5.203,0,18,18,101,1,craft project material and pictures,craft project materials and items to use,ma,23199105,9,32,A2PN1H89SQF28M,2021-01-07_22h10.46.623,MetaAwareness,2020.1.2,Win32,60,3ZRKL6Z1E96XERK6RQC8AJMSSLSSGM,A2PN1H89SQF28M,3F6KKYWMNC408EG476ZGTN4DI5SND9,MK6F5,MK6F5,3F6KKYWMNC408EG476ZGTN4DI5SND9,3F6KKYWMNC408EG476ZGTN4DI5SND9,267895,267895,,,,,,,,,,
,,,,4,2.355,0,19,19,441,1,a desk with photo boxes that have plastic view labels. on of the boxes has two labels,"a desk with photo boxes, some with one view window",ma,89354846,5,32,A2PN1H89SQF28M,2021-01-07_22h10.46.623,MetaAwareness,2020.1.2,Win32,60,3ZRKL6Z1E96XERK6RQC8AJMSSLSSGM,A2PN1H89SQF28M,3F6KKYWMNC408EG476ZGTN4DI5SND9,MK6F5,MK6F5,3F6KKYWMNC408EG476ZGTN4DI5SND9,3F6KKYWMNC408EG476ZGTN4DI5SND9,267895,267895,,,,,,,,,,
,,,,5,6.359,0,20,20,0,1,"there is a picture, a lamp, a flower vase, a letter a decor and a blue ball with a big  white cup in the picture","there is a picture, a lamp, a flower vase, a letter a decor and a blue ball with a small white cup in the picture",ma,10504629,1,32,A2PN1H89SQF28M,2021-01-07_22h10.46.623,MetaAwareness,2020.1.2,Win32,60,3ZRKL6Z1E96XERK6RQC8AJMSSLSSGM,A2PN1H89SQF28M,3F6KKYWMNC408EG476ZGTN4DI5SND9,MK6F5,MK6F5,3F6KKYWMNC408EG476ZGTN4DI5SND9,3F6KKYWMNC408EG476ZGTN4DI5SND9,267895,267895,,,,,,,,,,
,,,,5,3.145,0,21,21,320,1,decorated cookies with a reindeer at an angle,decorated cookies with a reindeer straight on the plate,ma,75081153,5,32,A2PN1H89SQF28M,2021-01-07_22h10.46.623,MetaAwareness,2020.1.2,Win32,60,3ZRKL6Z1E96XERK6RQC8AJMSSLSSGM,A2PN1H89SQF28M,3F6KKYWMNC408EG476ZGTN4DI5SND9,MK6F5,MK6F5,3F6KKYWMNC408EG476ZGTN4DI5SND9,3F6KKYWMNC408EG476ZGTN4DI5SND9,267895,267895,,,,,,,,,,
,,,,4,7.119,0,22,22,399,1,a collection of pictures on a wall with one being an obscure photo,a collection of pictures on a wall with one being a dark but obscure photo.,ma,83691215,5,32,A2PN1H89SQF28M,2021-01-07_22h10.46.623,MetaAwareness,2020.1.2,Win32,60,3ZRKL6Z1E96XERK6RQC8AJMSSLSSGM,A2PN1H89SQF28M,3F6KKYWMNC408EG476ZGTN4DI5SND9,MK6F5,MK6F5,3F6KKYWMNC408EG476ZGTN4DI5SND9,3F6KKYWMNC408EG476ZGTN4DI5SND9,267895,267895,,,,,,,,,,
,,,,4,5.347,0,23,23,110,1,a purple elephant magnet fridge there are no words in the yellow box in this picture.,a purple elephant magnet fridge there is the word des in the yellow box in this picture.,ma,25107991,3,32,A2PN1H89SQF28M,2021-01-07_22h10.46.623,MetaAwareness,2020.1.2,Win32,60,3ZRKL6Z1E96XERK6RQC8AJMSSLSSGM,A2PN1H89SQF28M,3F6KKYWMNC408EG476ZGTN4DI5SND9,MK6F5,MK6F5,3F6KKYWMNC408EG476ZGTN4DI5SND9,3F6KKYWMNC408EG476ZGTN4DI5SND9,267895,267895,,,,,,,,,,
,,,,5,4.368,0,24,24,97,1,an yellow color books are visible,an red color books are visible.,ma,23199105,5,32,A2PN1H89SQF28M,2021-01-07_22h10.46.623,MetaAwareness,2020.1.2,Win32,60,3ZRKL6Z1E96XERK6RQC8AJMSSLSSGM,A2PN1H89SQF28M,3F6KKYWMNC408EG476ZGTN4DI5SND9,MK6F5,MK6F5,3F6KKYWMNC408EG476ZGTN4DI5SND9,3F6KKYWMNC408EG476ZGTN4DI5SND9,267895,267895,,,,,,,,,,
,,,,4,11.14,0,25,25,24,1,"a robot made out of fabric, and one that has red felt on the side of it","a robot made out of fabric, and one that does not have red felt on the side of it",ma,12115280,4,32,A2PN1H89SQF28M,2021-01-07_22h10.46.623,MetaAwareness,2020.1.2,Win32,60,3ZRKL6Z1E96XERK6RQC8AJMSSLSSGM,A2PN1H89SQF28M,3F6KKYWMNC408EG476ZGTN4DI5SND9,MK6F5,MK6F5,3F6KKYWMNC408EG476ZGTN4DI5SND9,3F6KKYWMNC408EG476ZGTN4DI5SND9,267895,267895,,,,,,,,,,
,,,,4,8.721,0,26,26,475,1,a business card with the information placed lower on the card on a table with more cards and colored pencils.,a business card with the information placed higher on the card with more cards and colored pencils.,ma,97475929,6,32,A2PN1H89SQF28M,2021-01-07_22h10.46.623,MetaAwareness,2020.1.2,Win32,60,3ZRKL6Z1E96XERK6RQC8AJMSSLSSGM,A2PN1H89SQF28M,3F6KKYWMNC408EG476ZGTN4DI5SND9,MK6F5,MK6F5,3F6KKYWMNC408EG476ZGTN4DI5SND9,3F6KKYWMNC408EG476ZGTN4DI5SND9,267895,267895,,,,,,,,,,
,,,,6,11.83,0,27,27,351,1,a table of cakes with a centerpiece that has a green ribbon,a table of cakes with a centerpiece that has a brown ribbon,ma,77793328,8,32,A2PN1H89SQF28M,2021-01-07_22h10.46.623,MetaAwareness,2020.1.2,Win32,60,3ZRKL6Z1E96XERK6RQC8AJMSSLSSGM,A2PN1H89SQF28M,3F6KKYWMNC408EG476ZGTN4DI5SND9,MK6F5,MK6F5,3F6KKYWMNC408EG476ZGTN4DI5SND9,3F6KKYWMNC408EG476ZGTN4DI5SND9,267895,267895,,,,,,,,,,
,,,,4,3.101,0,28,28,450,1,an assortment of small pillowlike green items,an assortment of small pillowlike green items and a manilla envelope with a stamp in the corner,ma,8974554,9,32,A2PN1H89SQF28M,2021-01-07_22h10.46.623,MetaAwareness,2020.1.2,Win32,60,3ZRKL6Z1E96XERK6RQC8AJMSSLSSGM,A2PN1H89SQF28M,3F6KKYWMNC408EG476ZGTN4DI5SND9,MK6F5,MK6F5,3F6KKYWMNC408EG476ZGTN4DI5SND9,3F6KKYWMNC408EG476ZGTN4DI5SND9,267895,267895,,,,,,,,,,
,,,,5,1.925,0,29,29,307,1,"a picture of a shelf with books, bird statues, and two clocks shaped like ship wheels.","a picture of a shelf with books, bird statues, and two clocks shaped like ship wheels.",ma,74173745,1,32,A2PN1H89SQF28M,2021-01-07_22h10.46.623,MetaAwareness,2020.1.2,Win32,60,3ZRKL6Z1E96XERK6RQC8AJMSSLSSGM,A2PN1H89SQF28M,3F6KKYWMNC408EG476ZGTN4DI5SND9,MK6F5,MK6F5,3F6KKYWMNC408EG476ZGTN4DI5SND9,3F6KKYWMNC408EG476ZGTN4DI5SND9,267895,267895,,,,,,,,,,
,,,,,,,,,,,,,,,,32,A2PN1H89SQF28M,2021-01-07_22h10.46.623,MetaAwareness,2020.1.2,Win32,60,3ZRKL6Z1E96XERK6RQC8AJMSSLSSGM,A2PN1H89SQF28M,3F6KKYWMNC408EG476ZGTN4DI5SND9,MK6F5,MK6F5,3F6KKYWMNC408EG476ZGTN4DI5SND9,3F6KKYWMNC408EG476ZGTN4DI5SND9,267895,267895,4,7.258,someone laying underneath a blue beach umbrella on a crowded beach,someone laying underneath a blue beach umbrella on a crowded beach,same,5,2.636,members of a marching band crossing a track that all have feather plumes at the front of their hats,a cluttered and rustic looking cafe with 10 hanging lights,different
