consent_response.keys,consent_response.rt,key_resp_2.keys,key_resp_2.rt,user_resp.keys,user_resp.rt,trials.thisRepN,trials.thisTrialN,trials.thisN,trials.thisIndex,trials.ran,image_1_text,image_2_text,database,image,number,age,worker_ID,date,expName,psychopyVersion,OS,frameRate,hitId,workerId,assignmentId,a,tp_a,b,tp_b,c,tp_c,catch_same_resp.keys,catch_same_resp.rt,image_1_text_catch_same,image_2_text_catch_same,image_catch_same,catch_different_resp.keys,catch_different_resp.rt,image_1_text_catch_different,image_2_text_catch_different,image_catch_different
space,7.452,space,25.983,4,16.368,0,0,0,461,1,a red two story building with a widow that is dark on top and light on the bottom.,"a red two story building with a window that is light on top, dark in the middle and light on the bottom.",ma,95091295,3,31,A3NXT3OVGL7QNR,2021-01-07_23h02.42.159,MetaAwareness,2020.1.2,Win32,60,3ZTE0JGGCFV5ZNC8INZG0NRCX4ZCO1,A3NXT3OVGL7QNR,3S96KQ6I9N7Y3RLO42LS2MA57NLDT7,IK9S5,IK9S5,3S96KQ6I9N7Y3RLO42LS2MA57NLDT7,3S96KQ6I9N7Y3RLO42LS2MA57NLDT7,267895,267895,,,,,,,,,,
,,,,5,11.081,0,1,1,362,1,a cloth with multiple letters. 4 appears closer to g,a cloth with multiple letters. number 4 appears closer to the edge,ma,79222679,2,31,A3NXT3OVGL7QNR,2021-01-07_23h02.42.159,MetaAwareness,2020.1.2,Win32,60,3ZTE0JGGCFV5ZNC8INZG0NRCX4ZCO1,A3NXT3OVGL7QNR,3S96KQ6I9N7Y3RLO42LS2MA57NLDT7,IK9S5,IK9S5,3S96KQ6I9N7Y3RLO42LS2MA57NLDT7,3S96KQ6I9N7Y3RLO42LS2MA57NLDT7,267895,267895,,,,,,,,,,
,,,,5,9.991,0,2,2,90,1,a quilt picture in a frame with a gray house with a large four paned window on the front.,a quilt picture in a frane with a gray house with a small four panes window on the front.,ma,23024660,9,31,A3NXT3OVGL7QNR,2021-01-07_23h02.42.159,MetaAwareness,2020.1.2,Win32,60,3ZTE0JGGCFV5ZNC8INZG0NRCX4ZCO1,A3NXT3OVGL7QNR,3S96KQ6I9N7Y3RLO42LS2MA57NLDT7,IK9S5,IK9S5,3S96KQ6I9N7Y3RLO42LS2MA57NLDT7,3S96KQ6I9N7Y3RLO42LS2MA57NLDT7,267895,267895,,,,,,,,,,
,,,,4,11.659,0,3,3,298,1,halloween themed candies with a cat that has a right-tilted orange bat on its chest.,halloween themed candies with a cat that has a left-tilted bat on its chest.,ma,72488522,12,31,A3NXT3OVGL7QNR,2021-01-07_23h02.42.159,MetaAwareness,2020.1.2,Win32,60,3ZTE0JGGCFV5ZNC8INZG0NRCX4ZCO1,A3NXT3OVGL7QNR,3S96KQ6I9N7Y3RLO42LS2MA57NLDT7,IK9S5,IK9S5,3S96KQ6I9N7Y3RLO42LS2MA57NLDT7,3S96KQ6I9N7Y3RLO42LS2MA57NLDT7,267895,267895,,,,,,,,,,
,,,,4,7.039,0,4,4,475,1,a business card with the information placed lower on the card on a table with more cards and colored pencils.,a business card with the information placed higher on the card with more cards and colored pencils.,ma,97475929,6,31,A3NXT3OVGL7QNR,2021-01-07_23h02.42.159,MetaAwareness,2020.1.2,Win32,60,3ZTE0JGGCFV5ZNC8INZG0NRCX4ZCO1,A3NXT3OVGL7QNR,3S96KQ6I9N7Y3RLO42LS2MA57NLDT7,IK9S5,IK9S5,3S96KQ6I9N7Y3RLO42LS2MA57NLDT7,3S96KQ6I9N7Y3RLO42LS2MA57NLDT7,267895,267895,,,,,,,,,,
,,,,5,5.931,0,5,5,417,1,a sweets display the yellow box has a shorter stick than the other picture,a sweets display the yellow box has a taller stick in it than the other picture.,ma,86520382,1,31,A3NXT3OVGL7QNR,2021-01-07_23h02.42.159,MetaAwareness,2020.1.2,Win32,60,3ZTE0JGGCFV5ZNC8INZG0NRCX4ZCO1,A3NXT3OVGL7QNR,3S96KQ6I9N7Y3RLO42LS2MA57NLDT7,IK9S5,IK9S5,3S96KQ6I9N7Y3RLO42LS2MA57NLDT7,3S96KQ6I9N7Y3RLO42LS2MA57NLDT7,267895,267895,,,,,,,,,,
,,,,4,16.048,0,6,6,139,1,a picture of various dimetrodon toys including a small silver one,"a picture of dimetrodon toys of various colors and sizes, including a small, silver toy at the bottom center.",ma,38466626,1,31,A3NXT3OVGL7QNR,2021-01-07_23h02.42.159,MetaAwareness,2020.1.2,Win32,60,3ZTE0JGGCFV5ZNC8INZG0NRCX4ZCO1,A3NXT3OVGL7QNR,3S96KQ6I9N7Y3RLO42LS2MA57NLDT7,IK9S5,IK9S5,3S96KQ6I9N7Y3RLO42LS2MA57NLDT7,3S96KQ6I9N7Y3RLO42LS2MA57NLDT7,267895,267895,,,,,,,,,,
,,,,4,9.46,0,7,7,435,1,valentines day fondant shapes including a medium heart on the bottom right,valentines day fondant shapes including a small heart on the bottom right.,ma,88767165,5,31,A3NXT3OVGL7QNR,2021-01-07_23h02.42.159,MetaAwareness,2020.1.2,Win32,60,3ZTE0JGGCFV5ZNC8INZG0NRCX4ZCO1,A3NXT3OVGL7QNR,3S96KQ6I9N7Y3RLO42LS2MA57NLDT7,IK9S5,IK9S5,3S96KQ6I9N7Y3RLO42LS2MA57NLDT7,3S96KQ6I9N7Y3RLO42LS2MA57NLDT7,267895,267895,,,,,,,,,,
,,,,4,6.492,0,8,8,181,1,"ingredients on shelves for various coffees and teas, including one red container with red emblem on the front","ingredients on shelves for various coffees and teas, including one green container with yellow emblem on the front",ma,46475259,4,31,A3NXT3OVGL7QNR,2021-01-07_23h02.42.159,MetaAwareness,2020.1.2,Win32,60,3ZTE0JGGCFV5ZNC8INZG0NRCX4ZCO1,A3NXT3OVGL7QNR,3S96KQ6I9N7Y3RLO42LS2MA57NLDT7,IK9S5,IK9S5,3S96KQ6I9N7Y3RLO42LS2MA57NLDT7,3S96KQ6I9N7Y3RLO42LS2MA57NLDT7,267895,267895,,,,,,,,,,
,,,,3,14.501,0,9,9,244,1,"a bunch of candies and pink treats with horizontal labels, except onea",a bunch of candies and pink treats with all perfectly horizontal labels,ma,61118260,4,31,A3NXT3OVGL7QNR,2021-01-07_23h02.42.159,MetaAwareness,2020.1.2,Win32,60,3ZTE0JGGCFV5ZNC8INZG0NRCX4ZCO1,A3NXT3OVGL7QNR,3S96KQ6I9N7Y3RLO42LS2MA57NLDT7,IK9S5,IK9S5,3S96KQ6I9N7Y3RLO42LS2MA57NLDT7,3S96KQ6I9N7Y3RLO42LS2MA57NLDT7,267895,267895,,,,,,,,,,
,,,,5,13.904,0,10,10,59,1,a living area with three sofas containing different sizes of pillows.,a living area with three sofas containing same size of pillows.,ma,13873251,11,31,A3NXT3OVGL7QNR,2021-01-07_23h02.42.159,MetaAwareness,2020.1.2,Win32,60,3ZTE0JGGCFV5ZNC8INZG0NRCX4ZCO1,A3NXT3OVGL7QNR,3S96KQ6I9N7Y3RLO42LS2MA57NLDT7,IK9S5,IK9S5,3S96KQ6I9N7Y3RLO42LS2MA57NLDT7,3S96KQ6I9N7Y3RLO42LS2MA57NLDT7,267895,267895,,,,,,,,,,
,,,,5,9.352,0,11,11,445,1,a set of green fabric pillows with gift tags and a stack of orange envelopes with an upside down gnome stamp on the top one,a set of green fabric pillows with gift tags and a stack of orange envelopes with a gnome stamp on the top one,ma,8974554,4,31,A3NXT3OVGL7QNR,2021-01-07_23h02.42.159,MetaAwareness,2020.1.2,Win32,60,3ZTE0JGGCFV5ZNC8INZG0NRCX4ZCO1,A3NXT3OVGL7QNR,3S96KQ6I9N7Y3RLO42LS2MA57NLDT7,IK9S5,IK9S5,3S96KQ6I9N7Y3RLO42LS2MA57NLDT7,3S96KQ6I9N7Y3RLO42LS2MA57NLDT7,267895,267895,,,,,,,,,,
,,,,5,18.105,0,12,12,72,1,an order of pirate designed cupcakes with a big smiley face sticker on the bags,an order of pirate designed cupcakes with a regular sized smiley face sticker on the bags,ma,18345691,4,31,A3NXT3OVGL7QNR,2021-01-07_23h02.42.159,MetaAwareness,2020.1.2,Win32,60,3ZTE0JGGCFV5ZNC8INZG0NRCX4ZCO1,A3NXT3OVGL7QNR,3S96KQ6I9N7Y3RLO42LS2MA57NLDT7,IK9S5,IK9S5,3S96KQ6I9N7Y3RLO42LS2MA57NLDT7,3S96KQ6I9N7Y3RLO42LS2MA57NLDT7,267895,267895,,,,,,,,,,
,,,,5,8.205,0,13,13,290,1,"a bunch of halloween play-dough objects, one of which has a bat turned to the right on it's chest","a bunch of halloween play-dough objects, one of which has a bat turned the left on it's chest",ma,72488522,4,31,A3NXT3OVGL7QNR,2021-01-07_23h02.42.159,MetaAwareness,2020.1.2,Win32,60,3ZTE0JGGCFV5ZNC8INZG0NRCX4ZCO1,A3NXT3OVGL7QNR,3S96KQ6I9N7Y3RLO42LS2MA57NLDT7,IK9S5,IK9S5,3S96KQ6I9N7Y3RLO42LS2MA57NLDT7,3S96KQ6I9N7Y3RLO42LS2MA57NLDT7,267895,267895,,,,,,,,,,
,,,,6,11.744,0,14,14,307,1,"a picture of a shelf with books, bird statues, and two clocks shaped like ship wheels.","a picture of a shelf with books, bird statues, and two clocks shaped like ship wheels.",ma,74173745,1,31,A3NXT3OVGL7QNR,2021-01-07_23h02.42.159,MetaAwareness,2020.1.2,Win32,60,3ZTE0JGGCFV5ZNC8INZG0NRCX4ZCO1,A3NXT3OVGL7QNR,3S96KQ6I9N7Y3RLO42LS2MA57NLDT7,IK9S5,IK9S5,3S96KQ6I9N7Y3RLO42LS2MA57NLDT7,3S96KQ6I9N7Y3RLO42LS2MA57NLDT7,267895,267895,,,,,,,,,,
,,,,2,12.217,0,15,15,474,1,a table,a table with colored pencils and businesscard,ma,97475929,5,31,A3NXT3OVGL7QNR,2021-01-07_23h02.42.159,MetaAwareness,2020.1.2,Win32,60,3ZTE0JGGCFV5ZNC8INZG0NRCX4ZCO1,A3NXT3OVGL7QNR,3S96KQ6I9N7Y3RLO42LS2MA57NLDT7,IK9S5,IK9S5,3S96KQ6I9N7Y3RLO42LS2MA57NLDT7,3S96KQ6I9N7Y3RLO42LS2MA57NLDT7,267895,267895,,,,,,,,,,
,,,,3,11.665,0,16,16,390,1,a table set with cups and spoons and plates,a table set with cups and saucers with monogrammed napkins,ma,81993755,7,31,A3NXT3OVGL7QNR,2021-01-07_23h02.42.159,MetaAwareness,2020.1.2,Win32,60,3ZTE0JGGCFV5ZNC8INZG0NRCX4ZCO1,A3NXT3OVGL7QNR,3S96KQ6I9N7Y3RLO42LS2MA57NLDT7,IK9S5,IK9S5,3S96KQ6I9N7Y3RLO42LS2MA57NLDT7,3S96KQ6I9N7Y3RLO42LS2MA57NLDT7,267895,267895,,,,,,,,,,
,,,,3,11.009,0,17,17,151,1,"at the photo stand, white dot is present",there is no dot available on photo stand,ma,38546029,9,31,A3NXT3OVGL7QNR,2021-01-07_23h02.42.159,MetaAwareness,2020.1.2,Win32,60,3ZTE0JGGCFV5ZNC8INZG0NRCX4ZCO1,A3NXT3OVGL7QNR,3S96KQ6I9N7Y3RLO42LS2MA57NLDT7,IK9S5,IK9S5,3S96KQ6I9N7Y3RLO42LS2MA57NLDT7,3S96KQ6I9N7Y3RLO42LS2MA57NLDT7,267895,267895,,,,,,,,,,
,,,,5,5.05,0,18,18,105,1,a changing table against a blue wall with a larger sun light,a changing table against a blue wall with a smaller sun light,ma,24383097,4,31,A3NXT3OVGL7QNR,2021-01-07_23h02.42.159,MetaAwareness,2020.1.2,Win32,60,3ZTE0JGGCFV5ZNC8INZG0NRCX4ZCO1,A3NXT3OVGL7QNR,3S96KQ6I9N7Y3RLO42LS2MA57NLDT7,IK9S5,IK9S5,3S96KQ6I9N7Y3RLO42LS2MA57NLDT7,3S96KQ6I9N7Y3RLO42LS2MA57NLDT7,267895,267895,,,,,,,,,,
,,,,5,6.558,0,19,19,199,1,6 toys on the floor with the pink one in the front,6 toys on the floor with the purple one in the front,ma,48384711,8,31,A3NXT3OVGL7QNR,2021-01-07_23h02.42.159,MetaAwareness,2020.1.2,Win32,60,3ZTE0JGGCFV5ZNC8INZG0NRCX4ZCO1,A3NXT3OVGL7QNR,3S96KQ6I9N7Y3RLO42LS2MA57NLDT7,IK9S5,IK9S5,3S96KQ6I9N7Y3RLO42LS2MA57NLDT7,3S96KQ6I9N7Y3RLO42LS2MA57NLDT7,267895,267895,,,,,,,,,,
,,,,5,5.171,0,20,20,22,1,a robotic cake design with red color edges,a robotic cake design with yellow color edges.,ma,12115280,2,31,A3NXT3OVGL7QNR,2021-01-07_23h02.42.159,MetaAwareness,2020.1.2,Win32,60,3ZTE0JGGCFV5ZNC8INZG0NRCX4ZCO1,A3NXT3OVGL7QNR,3S96KQ6I9N7Y3RLO42LS2MA57NLDT7,IK9S5,IK9S5,3S96KQ6I9N7Y3RLO42LS2MA57NLDT7,3S96KQ6I9N7Y3RLO42LS2MA57NLDT7,267895,267895,,,,,,,,,,
,,,,5,5.065,0,21,21,54,1,a bigger pillow on a chair,a smaller pillow on a chair,ma,13873251,6,31,A3NXT3OVGL7QNR,2021-01-07_23h02.42.159,MetaAwareness,2020.1.2,Win32,60,3ZTE0JGGCFV5ZNC8INZG0NRCX4ZCO1,A3NXT3OVGL7QNR,3S96KQ6I9N7Y3RLO42LS2MA57NLDT7,IK9S5,IK9S5,3S96KQ6I9N7Y3RLO42LS2MA57NLDT7,3S96KQ6I9N7Y3RLO42LS2MA57NLDT7,267895,267895,,,,,,,,,,
,,,,5,7.887,0,22,22,280,1,"a red and green checkered cloth hangs on a wall, and the third row is white, red, red, red, red, red, red, red, and red.","a red and green checkered cloth hangs on a wall, and the third row is white, red, red, red, red, white, red, red, and red.",ma,70687495,3,31,A3NXT3OVGL7QNR,2021-01-07_23h02.42.159,MetaAwareness,2020.1.2,Win32,60,3ZTE0JGGCFV5ZNC8INZG0NRCX4ZCO1,A3NXT3OVGL7QNR,3S96KQ6I9N7Y3RLO42LS2MA57NLDT7,IK9S5,IK9S5,3S96KQ6I9N7Y3RLO42LS2MA57NLDT7,3S96KQ6I9N7Y3RLO42LS2MA57NLDT7,267895,267895,,,,,,,,,,
,,,,6,8.728,0,23,23,387,1,a reserved event table with all white dinerware,a reserved event table with all white dinerware,ma,81993755,3,31,A3NXT3OVGL7QNR,2021-01-07_23h02.42.159,MetaAwareness,2020.1.2,Win32,60,3ZTE0JGGCFV5ZNC8INZG0NRCX4ZCO1,A3NXT3OVGL7QNR,3S96KQ6I9N7Y3RLO42LS2MA57NLDT7,IK9S5,IK9S5,3S96KQ6I9N7Y3RLO42LS2MA57NLDT7,3S96KQ6I9N7Y3RLO42LS2MA57NLDT7,267895,267895,,,,,,,,,,
,,,,4,6.802,0,24,24,357,1,two rows of maiboxes with a bike below it and a green mailbox.,two rows of mailboxes with a bike below it and a black mailbox with lettering.,ma,79191795,2,31,A3NXT3OVGL7QNR,2021-01-07_23h02.42.159,MetaAwareness,2020.1.2,Win32,60,3ZTE0JGGCFV5ZNC8INZG0NRCX4ZCO1,A3NXT3OVGL7QNR,3S96KQ6I9N7Y3RLO42LS2MA57NLDT7,IK9S5,IK9S5,3S96KQ6I9N7Y3RLO42LS2MA57NLDT7,3S96KQ6I9N7Y3RLO42LS2MA57NLDT7,267895,267895,,,,,,,,,,
,,,,5,6.864,0,25,25,293,1,an orange bat with its left wing pointing down,an orange bat with its right wing pointing down,ma,72488522,7,31,A3NXT3OVGL7QNR,2021-01-07_23h02.42.159,MetaAwareness,2020.1.2,Win32,60,3ZTE0JGGCFV5ZNC8INZG0NRCX4ZCO1,A3NXT3OVGL7QNR,3S96KQ6I9N7Y3RLO42LS2MA57NLDT7,IK9S5,IK9S5,3S96KQ6I9N7Y3RLO42LS2MA57NLDT7,3S96KQ6I9N7Y3RLO42LS2MA57NLDT7,267895,267895,,,,,,,,,,
,,,,3,17.185,0,26,26,155,1,a round wood carving with a mostly filled-in circle of designs.,a round wood carving with one quadrant more empty than the other three.,ma,42429798,3,31,A3NXT3OVGL7QNR,2021-01-07_23h02.42.159,MetaAwareness,2020.1.2,Win32,60,3ZTE0JGGCFV5ZNC8INZG0NRCX4ZCO1,A3NXT3OVGL7QNR,3S96KQ6I9N7Y3RLO42LS2MA57NLDT7,IK9S5,IK9S5,3S96KQ6I9N7Y3RLO42LS2MA57NLDT7,3S96KQ6I9N7Y3RLO42LS2MA57NLDT7,267895,267895,,,,,,,,,,
,,,,4,9.341,0,27,27,473,1,a set of colored pencils and business cards. the tag line for the business card is right above the phone number,a set of colored pencils and business cards the tag line for the business card is right under the name.,ma,97475929,4,31,A3NXT3OVGL7QNR,2021-01-07_23h02.42.159,MetaAwareness,2020.1.2,Win32,60,3ZTE0JGGCFV5ZNC8INZG0NRCX4ZCO1,A3NXT3OVGL7QNR,3S96KQ6I9N7Y3RLO42LS2MA57NLDT7,IK9S5,IK9S5,3S96KQ6I9N7Y3RLO42LS2MA57NLDT7,3S96KQ6I9N7Y3RLO42LS2MA57NLDT7,267895,267895,,,,,,,,,,
,,,,4,7.776,0,28,28,353,1,an array of baked sweets displayed on a table with one sweet wrapped in a green sugar ribbon.,an array of baked sweet displayed on a table with two sweets wrapped in brown sugar ribbons.,ma,77793328,10,31,A3NXT3OVGL7QNR,2021-01-07_23h02.42.159,MetaAwareness,2020.1.2,Win32,60,3ZTE0JGGCFV5ZNC8INZG0NRCX4ZCO1,A3NXT3OVGL7QNR,3S96KQ6I9N7Y3RLO42LS2MA57NLDT7,IK9S5,IK9S5,3S96KQ6I9N7Y3RLO42LS2MA57NLDT7,3S96KQ6I9N7Y3RLO42LS2MA57NLDT7,267895,267895,,,,,,,,,,
,,,,5,4.295,0,29,29,242,1,a crooked label on a jar of candy,a straight label on a jar of candy.,ma,61118260,2,31,A3NXT3OVGL7QNR,2021-01-07_23h02.42.159,MetaAwareness,2020.1.2,Win32,60,3ZTE0JGGCFV5ZNC8INZG0NRCX4ZCO1,A3NXT3OVGL7QNR,3S96KQ6I9N7Y3RLO42LS2MA57NLDT7,IK9S5,IK9S5,3S96KQ6I9N7Y3RLO42LS2MA57NLDT7,3S96KQ6I9N7Y3RLO42LS2MA57NLDT7,267895,267895,,,,,,,,,,
,,,,,,,,,,,,,,,,31,A3NXT3OVGL7QNR,2021-01-07_23h02.42.159,MetaAwareness,2020.1.2,Win32,60,3ZTE0JGGCFV5ZNC8INZG0NRCX4ZCO1,A3NXT3OVGL7QNR,3S96KQ6I9N7Y3RLO42LS2MA57NLDT7,IK9S5,IK9S5,3S96KQ6I9N7Y3RLO42LS2MA57NLDT7,3S96KQ6I9N7Y3RLO42LS2MA57NLDT7,267895,267895,6,9.74,someone laying underneath a blue beach umbrella on a crowded beach,someone laying underneath a blue beach umbrella on a crowded beach,same,1,5.575,members of a marching band crossing a track that all have feather plumes at the front of their hats,a cluttered and rustic looking cafe with 10 hanging lights,different
