consent_response.keys,consent_response.rt,key_resp_2.keys,key_resp_2.rt,user_resp.keys,user_resp.rt,trials.thisRepN,trials.thisTrialN,trials.thisN,trials.thisIndex,trials.ran,image_1_text,image_2_text,database,image,number,age,worker_ID,date,expName,psychopyVersion,OS,frameRate,hitId,workerId,assignmentId,a,tp_a,b,tp_b,c,tp_c,catch_same_resp.keys,catch_same_resp.rt,image_1_text_catch_same,image_2_text_catch_same,image_catch_same,catch_different_resp.keys,catch_different_resp.rt,image_1_text_catch_different,image_2_text_catch_different,image_catch_different
space,21.48348,space,34.548175,4,29.67601,0,0,0,473,1,a set of colored pencils and business cards. the tag line for the business card is right above the phone number,a set of colored pencils and business cards the tag line for the business card is right under the name.,ma,97475929,4,69,AOOLS8280CL0Z,2021-01-07_19h29.08.278,MetaAwareness,2020.1.2,Win32,60,37M4O367VKLW0ZIHQXXVUDWXANTM5J,AOOLS8280CL0Z,3VFJCI1K402OZWIN23H58SCKWTERGQ,KCFV5,KCFV5,3VFJCI1K402OZWIN23H58SCKWTERGQ,3VFJCI1K402OZWIN23H58SCKWTERGQ,267895,267895,,,,,,,,,,
,,,,3,15.61781,0,1,1,290,1,"a bunch of halloween play-dough objects, one of which has a bat turned to the right on it's chest","a bunch of halloween play-dough objects, one of which has a bat turned the left on it's chest",ma,72488522,4,69,AOOLS8280CL0Z,2021-01-07_19h29.08.278,MetaAwareness,2020.1.2,Win32,60,37M4O367VKLW0ZIHQXXVUDWXANTM5J,AOOLS8280CL0Z,3VFJCI1K402OZWIN23H58SCKWTERGQ,KCFV5,KCFV5,3VFJCI1K402OZWIN23H58SCKWTERGQ,3VFJCI1K402OZWIN23H58SCKWTERGQ,267895,267895,,,,,,,,,,
,,,,4,12.33085,0,2,2,27,1,a robot shaped cake with red detailing on the side,a robot shaped cake with yellow detaining on the side,ma,12115280,7,69,AOOLS8280CL0Z,2021-01-07_19h29.08.278,MetaAwareness,2020.1.2,Win32,60,37M4O367VKLW0ZIHQXXVUDWXANTM5J,AOOLS8280CL0Z,3VFJCI1K402OZWIN23H58SCKWTERGQ,KCFV5,KCFV5,3VFJCI1K402OZWIN23H58SCKWTERGQ,3VFJCI1K402OZWIN23H58SCKWTERGQ,267895,267895,,,,,,,,,,
,,,,4,22.58389,0,3,3,398,1,a white wall containing many pictures with the picture in the middle being dark on bottom and lighter colored on top,a white wall containing many pictures with the picture in the middle being dark on top and lighter colored on bottom,ma,83691215,4,69,AOOLS8280CL0Z,2021-01-07_19h29.08.278,MetaAwareness,2020.1.2,Win32,60,37M4O367VKLW0ZIHQXXVUDWXANTM5J,AOOLS8280CL0Z,3VFJCI1K402OZWIN23H58SCKWTERGQ,KCFV5,KCFV5,3VFJCI1K402OZWIN23H58SCKWTERGQ,3VFJCI1K402OZWIN23H58SCKWTERGQ,267895,267895,,,,,,,,,,
,,,,6,10.787585,0,4,4,387,1,a reserved event table with all white dinerware,a reserved event table with all white dinerware,ma,81993755,3,69,AOOLS8280CL0Z,2021-01-07_19h29.08.278,MetaAwareness,2020.1.2,Win32,60,37M4O367VKLW0ZIHQXXVUDWXANTM5J,AOOLS8280CL0Z,3VFJCI1K402OZWIN23H58SCKWTERGQ,KCFV5,KCFV5,3VFJCI1K402OZWIN23H58SCKWTERGQ,3VFJCI1K402OZWIN23H58SCKWTERGQ,267895,267895,,,,,,,,,,
,,,,6,7.322735,0,5,5,84,1,picture with houses with windows,picture with houses with windows,ma,23024660,3,69,AOOLS8280CL0Z,2021-01-07_19h29.08.278,MetaAwareness,2020.1.2,Win32,60,37M4O367VKLW0ZIHQXXVUDWXANTM5J,AOOLS8280CL0Z,3VFJCI1K402OZWIN23H58SCKWTERGQ,KCFV5,KCFV5,3VFJCI1K402OZWIN23H58SCKWTERGQ,3VFJCI1K402OZWIN23H58SCKWTERGQ,267895,267895,,,,,,,,,,
,,,,4,11.117765,0,6,6,488,1,an informational table at a trade event with a black book with white figure on the right,an informational table at a trade event with a black book with white figure on the left,ma,98265889,2,69,AOOLS8280CL0Z,2021-01-07_19h29.08.278,MetaAwareness,2020.1.2,Win32,60,37M4O367VKLW0ZIHQXXVUDWXANTM5J,AOOLS8280CL0Z,3VFJCI1K402OZWIN23H58SCKWTERGQ,KCFV5,KCFV5,3VFJCI1K402OZWIN23H58SCKWTERGQ,3VFJCI1K402OZWIN23H58SCKWTERGQ,267895,267895,,,,,,,,,,
,,,,4,8.82296,0,7,7,190,1,a bakery full of sweet including a face cake with a yellow mouth,a bakery full of sweets including a face cake with a red mouth,ma,46635293,8,69,AOOLS8280CL0Z,2021-01-07_19h29.08.278,MetaAwareness,2020.1.2,Win32,60,37M4O367VKLW0ZIHQXXVUDWXANTM5J,AOOLS8280CL0Z,3VFJCI1K402OZWIN23H58SCKWTERGQ,KCFV5,KCFV5,3VFJCI1K402OZWIN23H58SCKWTERGQ,3VFJCI1K402OZWIN23H58SCKWTERGQ,267895,267895,,,,,,,,,,
,,,,5,49.646745,0,8,8,77,1,"a cluttered room with a chest of drawers an lots of nicknacks on it a yellow cloth with a vase, lamp and picture sitting on the chest.","a cluttered room with a ches of drawers and lots of nicknacks on the chest a yellow cloth is on the corner with a vase, lamp, picture frame, and pile of purple stuff.",ma,22020472,2,69,AOOLS8280CL0Z,2021-01-07_19h29.08.278,MetaAwareness,2020.1.2,Win32,60,37M4O367VKLW0ZIHQXXVUDWXANTM5J,AOOLS8280CL0Z,3VFJCI1K402OZWIN23H58SCKWTERGQ,KCFV5,KCFV5,3VFJCI1K402OZWIN23H58SCKWTERGQ,3VFJCI1K402OZWIN23H58SCKWTERGQ,267895,267895,,,,,,,,,,
,,,,4,9.228135,0,9,9,40,1,animal figure and ground with an orange carrot,animal figure and ground with a red carrot,ma,13141692,1,69,AOOLS8280CL0Z,2021-01-07_19h29.08.278,MetaAwareness,2020.1.2,Win32,60,37M4O367VKLW0ZIHQXXVUDWXANTM5J,AOOLS8280CL0Z,3VFJCI1K402OZWIN23H58SCKWTERGQ,KCFV5,KCFV5,3VFJCI1K402OZWIN23H58SCKWTERGQ,3VFJCI1K402OZWIN23H58SCKWTERGQ,267895,267895,,,,,,,,,,
,,,,5,17.890585,0,10,10,316,1,there are 15 cookies on the plate and the brown face cookie at south west direction has its hair facing north east.,there are 15 cookies on the plate and the brown face cookie at south west direction has its hair facing north west.,ma,75081153,1,69,AOOLS8280CL0Z,2021-01-07_19h29.08.278,MetaAwareness,2020.1.2,Win32,60,37M4O367VKLW0ZIHQXXVUDWXANTM5J,AOOLS8280CL0Z,3VFJCI1K402OZWIN23H58SCKWTERGQ,KCFV5,KCFV5,3VFJCI1K402OZWIN23H58SCKWTERGQ,3VFJCI1K402OZWIN23H58SCKWTERGQ,267895,267895,,,,,,,,,,
,,,,3,9.12275,0,11,11,253,1,a yellow bowl with a light green inside.,a yellow bowl with a beige colored inside,ma,62224663,2,69,AOOLS8280CL0Z,2021-01-07_19h29.08.278,MetaAwareness,2020.1.2,Win32,60,37M4O367VKLW0ZIHQXXVUDWXANTM5J,AOOLS8280CL0Z,3VFJCI1K402OZWIN23H58SCKWTERGQ,KCFV5,KCFV5,3VFJCI1K402OZWIN23H58SCKWTERGQ,3VFJCI1K402OZWIN23H58SCKWTERGQ,267895,267895,,,,,,,,,,
,,,,5,25.417255,0,12,12,277,1,website is placed at the bottom cornoer box,website name is placed at the correct position,ma,69128765,10,69,AOOLS8280CL0Z,2021-01-07_19h29.08.278,MetaAwareness,2020.1.2,Win32,60,37M4O367VKLW0ZIHQXXVUDWXANTM5J,AOOLS8280CL0Z,3VFJCI1K402OZWIN23H58SCKWTERGQ,KCFV5,KCFV5,3VFJCI1K402OZWIN23H58SCKWTERGQ,3VFJCI1K402OZWIN23H58SCKWTERGQ,267895,267895,,,,,,,,,,
,,,,6,17.85485,0,13,13,336,1,a plate of cupcakes with a pink iced ribbon in the front with the letters gughlhof.,a plate of cupcakes with a pink iced ribbon in the front with the letters gugelhof.,ma,77345858,9,69,AOOLS8280CL0Z,2021-01-07_19h29.08.278,MetaAwareness,2020.1.2,Win32,60,37M4O367VKLW0ZIHQXXVUDWXANTM5J,AOOLS8280CL0Z,3VFJCI1K402OZWIN23H58SCKWTERGQ,KCFV5,KCFV5,3VFJCI1K402OZWIN23H58SCKWTERGQ,3VFJCI1K402OZWIN23H58SCKWTERGQ,267895,267895,,,,,,,,,,
,,,,4,7.58779,0,14,14,29,1,a parachute with gas fire at pink color edges.,a parachute with gas fire at yellow color edges.,ma,12178414,1,69,AOOLS8280CL0Z,2021-01-07_19h29.08.278,MetaAwareness,2020.1.2,Win32,60,37M4O367VKLW0ZIHQXXVUDWXANTM5J,AOOLS8280CL0Z,3VFJCI1K402OZWIN23H58SCKWTERGQ,KCFV5,KCFV5,3VFJCI1K402OZWIN23H58SCKWTERGQ,3VFJCI1K402OZWIN23H58SCKWTERGQ,267895,267895,,,,,,,,,,
,,,,2,24.987355,0,15,15,239,1,"an orange room with violins on the walls the small, skinny violin in the box is a duplicate of the one to the left of it","an orange room with violins on the walls. there is no violin in the box, only the one to the left of the box.",ma,57861456,6,69,AOOLS8280CL0Z,2021-01-07_19h29.08.278,MetaAwareness,2020.1.2,Win32,60,37M4O367VKLW0ZIHQXXVUDWXANTM5J,AOOLS8280CL0Z,3VFJCI1K402OZWIN23H58SCKWTERGQ,KCFV5,KCFV5,3VFJCI1K402OZWIN23H58SCKWTERGQ,3VFJCI1K402OZWIN23H58SCKWTERGQ,267895,267895,,,,,,,,,,
,,,,4,12.50925,0,16,16,354,1,a table that has various types of desserts stacked upon it,"a table with various types of desserts on it, one of tem has a chocolate bow and a clear container",ma,77793328,11,69,AOOLS8280CL0Z,2021-01-07_19h29.08.278,MetaAwareness,2020.1.2,Win32,60,37M4O367VKLW0ZIHQXXVUDWXANTM5J,AOOLS8280CL0Z,3VFJCI1K402OZWIN23H58SCKWTERGQ,KCFV5,KCFV5,3VFJCI1K402OZWIN23H58SCKWTERGQ,3VFJCI1K402OZWIN23H58SCKWTERGQ,267895,267895,,,,,,,,,,
,,,,3,8.82008,0,17,17,206,1,a plate of sushi with a long strip of rice.,a plate of suski with a short strip of rice.,ma,48486405,3,69,AOOLS8280CL0Z,2021-01-07_19h29.08.278,MetaAwareness,2020.1.2,Win32,60,37M4O367VKLW0ZIHQXXVUDWXANTM5J,AOOLS8280CL0Z,3VFJCI1K402OZWIN23H58SCKWTERGQ,KCFV5,KCFV5,3VFJCI1K402OZWIN23H58SCKWTERGQ,3VFJCI1K402OZWIN23H58SCKWTERGQ,267895,267895,,,,,,,,,,
,,,,5,9.52052,0,18,18,399,1,a collection of pictures on a wall with one being an obscure photo,a collection of pictures on a wall with one being a dark but obscure photo.,ma,83691215,5,69,AOOLS8280CL0Z,2021-01-07_19h29.08.278,MetaAwareness,2020.1.2,Win32,60,37M4O367VKLW0ZIHQXXVUDWXANTM5J,AOOLS8280CL0Z,3VFJCI1K402OZWIN23H58SCKWTERGQ,KCFV5,KCFV5,3VFJCI1K402OZWIN23H58SCKWTERGQ,3VFJCI1K402OZWIN23H58SCKWTERGQ,267895,267895,,,,,,,,,,
,,,,2,10.359335,0,19,19,396,1,picture gallery on wall with all pictures straight up,picture gallery on wall with one picture upside down,ma,83691215,2,69,AOOLS8280CL0Z,2021-01-07_19h29.08.278,MetaAwareness,2020.1.2,Win32,60,37M4O367VKLW0ZIHQXXVUDWXANTM5J,AOOLS8280CL0Z,3VFJCI1K402OZWIN23H58SCKWTERGQ,KCFV5,KCFV5,3VFJCI1K402OZWIN23H58SCKWTERGQ,3VFJCI1K402OZWIN23H58SCKWTERGQ,267895,267895,,,,,,,,,,
,,,,4,16.99639,0,20,20,370,1,a red decorated bedroom wall with the u2l next to the bullseye,a red decorated bedroom wall with the u2l to the right and slightly above the bullseye,ma,79241011,4,69,AOOLS8280CL0Z,2021-01-07_19h29.08.278,MetaAwareness,2020.1.2,Win32,60,37M4O367VKLW0ZIHQXXVUDWXANTM5J,AOOLS8280CL0Z,3VFJCI1K402OZWIN23H58SCKWTERGQ,KCFV5,KCFV5,3VFJCI1K402OZWIN23H58SCKWTERGQ,3VFJCI1K402OZWIN23H58SCKWTERGQ,267895,267895,,,,,,,,,,
,,,,3,13.84233,0,21,21,305,1,a beautiful good looking blue pillow with two strawberries and five butterflies pics on it.,a beautiful good looking pillow with three strawberries and four butterflies pics on it.,ma,73637203,7,69,AOOLS8280CL0Z,2021-01-07_19h29.08.278,MetaAwareness,2020.1.2,Win32,60,37M4O367VKLW0ZIHQXXVUDWXANTM5J,AOOLS8280CL0Z,3VFJCI1K402OZWIN23H58SCKWTERGQ,KCFV5,KCFV5,3VFJCI1K402OZWIN23H58SCKWTERGQ,3VFJCI1K402OZWIN23H58SCKWTERGQ,267895,267895,,,,,,,,,,
,,,,4,13.328165,0,22,22,246,1,"in the seond bottle at the right side, sticker is pasted on opposite side","in the second bottle at te right side, sticker placed at correct side",ma,61118260,6,69,AOOLS8280CL0Z,2021-01-07_19h29.08.278,MetaAwareness,2020.1.2,Win32,60,37M4O367VKLW0ZIHQXXVUDWXANTM5J,AOOLS8280CL0Z,3VFJCI1K402OZWIN23H58SCKWTERGQ,KCFV5,KCFV5,3VFJCI1K402OZWIN23H58SCKWTERGQ,3VFJCI1K402OZWIN23H58SCKWTERGQ,267895,267895,,,,,,,,,,
,,,,3,13.679325,0,23,23,111,1,four elephant keychains hanging from a wall and a green square.,four elephant keychains hanging from a wall with a green backdrop lettering and des in the box.,ma,25107991,4,69,AOOLS8280CL0Z,2021-01-07_19h29.08.278,MetaAwareness,2020.1.2,Win32,60,37M4O367VKLW0ZIHQXXVUDWXANTM5J,AOOLS8280CL0Z,3VFJCI1K402OZWIN23H58SCKWTERGQ,KCFV5,KCFV5,3VFJCI1K402OZWIN23H58SCKWTERGQ,3VFJCI1K402OZWIN23H58SCKWTERGQ,267895,267895,,,,,,,,,,
,,,,1,6.148065,0,24,24,385,1,there is no name board in the table,there is a name board in the table,ma,81993755,1,69,AOOLS8280CL0Z,2021-01-07_19h29.08.278,MetaAwareness,2020.1.2,Win32,60,37M4O367VKLW0ZIHQXXVUDWXANTM5J,AOOLS8280CL0Z,3VFJCI1K402OZWIN23H58SCKWTERGQ,KCFV5,KCFV5,3VFJCI1K402OZWIN23H58SCKWTERGQ,3VFJCI1K402OZWIN23H58SCKWTERGQ,267895,267895,,,,,,,,,,
,,,,4,11.49189,0,25,25,194,1,multiple toys. the toy in the front has pink legs.,multiple toys. the toy in the front has blue legs,ma,48384711,1,69,AOOLS8280CL0Z,2021-01-07_19h29.08.278,MetaAwareness,2020.1.2,Win32,60,37M4O367VKLW0ZIHQXXVUDWXANTM5J,AOOLS8280CL0Z,3VFJCI1K402OZWIN23H58SCKWTERGQ,KCFV5,KCFV5,3VFJCI1K402OZWIN23H58SCKWTERGQ,3VFJCI1K402OZWIN23H58SCKWTERGQ,267895,267895,,,,,,,,,,
,,,,3,15.9791,0,26,26,426,1,a set dinner table with a floral covering. one flower in the pattern is orange rather than red.,a set dinner table with a floral covering. all flowers in the pattern are red.,ma,87983207,5,69,AOOLS8280CL0Z,2021-01-07_19h29.08.278,MetaAwareness,2020.1.2,Win32,60,37M4O367VKLW0ZIHQXXVUDWXANTM5J,AOOLS8280CL0Z,3VFJCI1K402OZWIN23H58SCKWTERGQ,KCFV5,KCFV5,3VFJCI1K402OZWIN23H58SCKWTERGQ,3VFJCI1K402OZWIN23H58SCKWTERGQ,267895,267895,,,,,,,,,,
,,,,4,19.00497,0,27,27,76,1,"there are flowers, sea shells, pine cone, some wooden art work and a blue vase on a yellow mat","there are flowers, sea shells, pine cone, some wooden art work, a blue vast and a pile of tiny brown stones on a yellow mat",ma,22020472,1,69,AOOLS8280CL0Z,2021-01-07_19h29.08.278,MetaAwareness,2020.1.2,Win32,60,37M4O367VKLW0ZIHQXXVUDWXANTM5J,AOOLS8280CL0Z,3VFJCI1K402OZWIN23H58SCKWTERGQ,KCFV5,KCFV5,3VFJCI1K402OZWIN23H58SCKWTERGQ,3VFJCI1K402OZWIN23H58SCKWTERGQ,267895,267895,,,,,,,,,,
,,,,2,20.4279,0,28,28,413,1,a table with round lights and one light has a green top,a table with round lights all white or yellow colored,ma,85741618,3,69,AOOLS8280CL0Z,2021-01-07_19h29.08.278,MetaAwareness,2020.1.2,Win32,60,37M4O367VKLW0ZIHQXXVUDWXANTM5J,AOOLS8280CL0Z,3VFJCI1K402OZWIN23H58SCKWTERGQ,KCFV5,KCFV5,3VFJCI1K402OZWIN23H58SCKWTERGQ,3VFJCI1K402OZWIN23H58SCKWTERGQ,267895,267895,,,,,,,,,,
,,,,3,11.003545,0,29,29,494,1,different sets of book with a black book containing a lady's pic on its right corner.,different sets of book with a black book containing a lady's pic on its left corner.,ma,98265889,8,69,AOOLS8280CL0Z,2021-01-07_19h29.08.278,MetaAwareness,2020.1.2,Win32,60,37M4O367VKLW0ZIHQXXVUDWXANTM5J,AOOLS8280CL0Z,3VFJCI1K402OZWIN23H58SCKWTERGQ,KCFV5,KCFV5,3VFJCI1K402OZWIN23H58SCKWTERGQ,3VFJCI1K402OZWIN23H58SCKWTERGQ,267895,267895,,,,,,,,,,
,,,,,,,,,,,,,,,,69,AOOLS8280CL0Z,2021-01-07_19h29.08.278,MetaAwareness,2020.1.2,Win32,60,37M4O367VKLW0ZIHQXXVUDWXANTM5J,AOOLS8280CL0Z,3VFJCI1K402OZWIN23H58SCKWTERGQ,KCFV5,KCFV5,3VFJCI1K402OZWIN23H58SCKWTERGQ,3VFJCI1K402OZWIN23H58SCKWTERGQ,267895,267895,6,9.730965,someone laying underneath a blue beach umbrella on a crowded beach,someone laying underneath a blue beach umbrella on a crowded beach,same,1,9.818165,members of a marching band crossing a track that all have feather plumes at the front of their hats,a cluttered and rustic looking cafe with 10 hanging lights,different
