consent_response.keys,consent_response.rt,key_resp_2.keys,key_resp_2.rt,user_resp.keys,user_resp.rt,trials.thisRepN,trials.thisTrialN,trials.thisN,trials.thisIndex,trials.ran,image_1_text,image_2_text,database,image,number,age,worker_ID,date,expName,psychopyVersion,OS,frameRate,hitId,workerId,assignmentId,a,tp_a,b,tp_b,c,tp_c,catch_same_resp.keys,catch_same_resp.rt,image_1_text_catch_same,image_2_text_catch_same,image_catch_same,catch_different_resp.keys,catch_different_resp.rt,image_1_text_catch_different,image_2_text_catch_different,image_catch_different
space,28.59071,space,20.937485,6,18.595955,0,0,0,57,1,"a tea set with multiple cups, including a yellow cup with green interior","a tea set with multiple cups, including a yellow cup with a tan interior",ma,62224663,5,70,A7ERZELTAMWL5,2021-02-17_18h35.50.671,MetaAwareness,2020.1.2,Linux x86_64,60,38F60IALAHK1INM02OSVZWVYP880TF,A7ERZELTAMWL5,32N49TQG3HLFICM1PNU5D3QKNZ4VAV,G9N22,G9N22,32N49TQG3HLFICM1PNU5D3QKNZ4VAV,32N49TQG3HLFICM1PNU5D3QKNZ4VAV,276282,276282,,,,,,,,,,
,,,,1,12.73803,0,1,1,27,1,"at the photo stand, white dot is present",there is no dot available on photo stand,ma,38546029,9,70,A7ERZELTAMWL5,2021-02-17_18h35.50.671,MetaAwareness,2020.1.2,Linux x86_64,60,38F60IALAHK1INM02OSVZWVYP880TF,A7ERZELTAMWL5,32N49TQG3HLFICM1PNU5D3QKNZ4VAV,G9N22,G9N22,32N49TQG3HLFICM1PNU5D3QKNZ4VAV,32N49TQG3HLFICM1PNU5D3QKNZ4VAV,276282,276282,,,,,,,,,,
,,,,3,14.957695,0,2,2,111,1,a sward hanging up,a sword hanging below the table,ma,98156944,6,70,A7ERZELTAMWL5,2021-02-17_18h35.50.671,MetaAwareness,2020.1.2,Linux x86_64,60,38F60IALAHK1INM02OSVZWVYP880TF,A7ERZELTAMWL5,32N49TQG3HLFICM1PNU5D3QKNZ4VAV,G9N22,G9N22,32N49TQG3HLFICM1PNU5D3QKNZ4VAV,32N49TQG3HLFICM1PNU5D3QKNZ4VAV,276282,276282,,,,,,,,,,
,,,,4,12.326895,0,3,3,60,1,rows of business cards with a website at the bottom of the card,rows of business cards with the website under the phone number,ma,69128765,3,70,A7ERZELTAMWL5,2021-02-17_18h35.50.671,MetaAwareness,2020.1.2,Linux x86_64,60,38F60IALAHK1INM02OSVZWVYP880TF,A7ERZELTAMWL5,32N49TQG3HLFICM1PNU5D3QKNZ4VAV,G9N22,G9N22,32N49TQG3HLFICM1PNU5D3QKNZ4VAV,32N49TQG3HLFICM1PNU5D3QKNZ4VAV,276282,276282,,,,,,,,,,
,,,,5,19.24223,0,4,4,108,1,a collection of pencils and notecards. one notecard has a blank space below the name and a description above the phone number and email.,a collection of pencils and notecards. one notecard has a blank space above the phone number and email and a description below the name.,ma,97475929,3,70,A7ERZELTAMWL5,2021-02-17_18h35.50.671,MetaAwareness,2020.1.2,Linux x86_64,60,38F60IALAHK1INM02OSVZWVYP880TF,A7ERZELTAMWL5,32N49TQG3HLFICM1PNU5D3QKNZ4VAV,G9N22,G9N22,32N49TQG3HLFICM1PNU5D3QKNZ4VAV,32N49TQG3HLFICM1PNU5D3QKNZ4VAV,276282,276282,,,,,,,,,,
,,,,3,13.888155,0,5,5,56,1,a yellow color  bowl with green shaded are available inside.,a yellow color bowl with cream chaded are available inside,ma,62224663,4,70,A7ERZELTAMWL5,2021-02-17_18h35.50.671,MetaAwareness,2020.1.2,Linux x86_64,60,38F60IALAHK1INM02OSVZWVYP880TF,A7ERZELTAMWL5,32N49TQG3HLFICM1PNU5D3QKNZ4VAV,G9N22,G9N22,32N49TQG3HLFICM1PNU5D3QKNZ4VAV,32N49TQG3HLFICM1PNU5D3QKNZ4VAV,276282,276282,,,,,,,,,,
,,,,2,16.5499,0,6,6,33,1,"a hammer sits on a table, next to a yellow squirt jar, a cloth, and an open box. next to the hammer appears to be a pencil.","a hammer sits on a table, next to a yellow squirt jar, a cloth, and an open box. there appears to be nothing sitting directly next to the hammer.",ma,45525109,4,70,A7ERZELTAMWL5,2021-02-17_18h35.50.671,MetaAwareness,2020.1.2,Linux x86_64,60,38F60IALAHK1INM02OSVZWVYP880TF,A7ERZELTAMWL5,32N49TQG3HLFICM1PNU5D3QKNZ4VAV,G9N22,G9N22,32N49TQG3HLFICM1PNU5D3QKNZ4VAV,32N49TQG3HLFICM1PNU5D3QKNZ4VAV,276282,276282,,,,,,,,,,
,,,,2,13.077845,0,7,7,112,1,a desk with dual monitors. a tall umbrella stands to the left of the desk,a desk with dual monitors. a short umbrella stands to the left of the desk,ma,98156944,8,70,A7ERZELTAMWL5,2021-02-17_18h35.50.671,MetaAwareness,2020.1.2,Linux x86_64,60,38F60IALAHK1INM02OSVZWVYP880TF,A7ERZELTAMWL5,32N49TQG3HLFICM1PNU5D3QKNZ4VAV,G9N22,G9N22,32N49TQG3HLFICM1PNU5D3QKNZ4VAV,32N49TQG3HLFICM1PNU5D3QKNZ4VAV,276282,276282,,,,,,,,,,
,,,,2,18.058275,0,8,8,104,1,a exterior of the buildin with all windows open on top floor,an exterior of the building with one window partially closed.,ma,95091295,2,70,A7ERZELTAMWL5,2021-02-17_18h35.50.671,MetaAwareness,2020.1.2,Linux x86_64,60,38F60IALAHK1INM02OSVZWVYP880TF,A7ERZELTAMWL5,32N49TQG3HLFICM1PNU5D3QKNZ4VAV,G9N22,G9N22,32N49TQG3HLFICM1PNU5D3QKNZ4VAV,32N49TQG3HLFICM1PNU5D3QKNZ4VAV,276282,276282,,,,,,,,,,
,,,,3,19.466775,0,9,9,93,1,valentine hearts and doves the heart in the yellow box is larger than the other picture.,valentine hearts and doves the heart in the yellow box is smaller than the other picture.,ma,88767165,1,70,A7ERZELTAMWL5,2021-02-17_18h35.50.671,MetaAwareness,2020.1.2,Linux x86_64,60,38F60IALAHK1INM02OSVZWVYP880TF,A7ERZELTAMWL5,32N49TQG3HLFICM1PNU5D3QKNZ4VAV,G9N22,G9N22,32N49TQG3HLFICM1PNU5D3QKNZ4VAV,32N49TQG3HLFICM1PNU5D3QKNZ4VAV,276282,276282,,,,,,,,,,
,,,,1,12.4211,0,10,10,48,1,there's a peable there,there's none here,ma,56835136,5,70,A7ERZELTAMWL5,2021-02-17_18h35.50.671,MetaAwareness,2020.1.2,Linux x86_64,60,38F60IALAHK1INM02OSVZWVYP880TF,A7ERZELTAMWL5,32N49TQG3HLFICM1PNU5D3QKNZ4VAV,G9N22,G9N22,32N49TQG3HLFICM1PNU5D3QKNZ4VAV,32N49TQG3HLFICM1PNU5D3QKNZ4VAV,276282,276282,,,,,,,,,,
,,,,5,19.410945,0,11,11,28,1,a wooden decorative memento decorated with two colorful circles sitting on a shelf along with other meaningful items,a wooden decorative memento decorated with one colorful circle sitting on a shelf along with other meaningful items,ma,38546029,10,70,A7ERZELTAMWL5,2021-02-17_18h35.50.671,MetaAwareness,2020.1.2,Linux x86_64,60,38F60IALAHK1INM02OSVZWVYP880TF,A7ERZELTAMWL5,32N49TQG3HLFICM1PNU5D3QKNZ4VAV,G9N22,G9N22,32N49TQG3HLFICM1PNU5D3QKNZ4VAV,32N49TQG3HLFICM1PNU5D3QKNZ4VAV,276282,276282,,,,,,,,,,
,,,,5,16.027325,0,12,12,110,1,"a desk and chair with two monitors and several files and pennd a keyboard, mouse and table a handle of a vaccum is next to the right of the desk","a desk and chair with two monitors and several files, pens, keyboard, mouse with a vaccum cleaner handle near the right of the desk.",ma,98156944,1,70,A7ERZELTAMWL5,2021-02-17_18h35.50.671,MetaAwareness,2020.1.2,Linux x86_64,60,38F60IALAHK1INM02OSVZWVYP880TF,A7ERZELTAMWL5,32N49TQG3HLFICM1PNU5D3QKNZ4VAV,G9N22,G9N22,32N49TQG3HLFICM1PNU5D3QKNZ4VAV,32N49TQG3HLFICM1PNU5D3QKNZ4VAV,276282,276282,,,,,,,,,,
,,,,4,15.05122,0,13,13,83,1,"an eceltic decorated room with artwork hung on the wall with clothes pins, the center artwork being the largest and pink.","a decorated bedroom with artwork hung on the wall with string and clothes pins, the center artwork being pink.",ma,79573638,4,70,A7ERZELTAMWL5,2021-02-17_18h35.50.671,MetaAwareness,2020.1.2,Linux x86_64,60,38F60IALAHK1INM02OSVZWVYP880TF,A7ERZELTAMWL5,32N49TQG3HLFICM1PNU5D3QKNZ4VAV,G9N22,G9N22,32N49TQG3HLFICM1PNU5D3QKNZ4VAV,32N49TQG3HLFICM1PNU5D3QKNZ4VAV,276282,276282,,,,,,,,,,
,,,,3,14.519255,0,14,14,47,1,a table centerpiece with flowers and stones,"small, smooth river stones on a table centerpiece",ma,56835136,3,70,A7ERZELTAMWL5,2021-02-17_18h35.50.671,MetaAwareness,2020.1.2,Linux x86_64,60,38F60IALAHK1INM02OSVZWVYP880TF,A7ERZELTAMWL5,32N49TQG3HLFICM1PNU5D3QKNZ4VAV,G9N22,G9N22,32N49TQG3HLFICM1PNU5D3QKNZ4VAV,32N49TQG3HLFICM1PNU5D3QKNZ4VAV,276282,276282,,,,,,,,,,
,,,,2,12.86641,0,15,15,23,1,a birthday cake with a toybox and toys in it. the star is upside down .,a birthday cake with a toybox and toys in it. the star is rightside up,ma,32289063,4,70,A7ERZELTAMWL5,2021-02-17_18h35.50.671,MetaAwareness,2020.1.2,Linux x86_64,60,38F60IALAHK1INM02OSVZWVYP880TF,A7ERZELTAMWL5,32N49TQG3HLFICM1PNU5D3QKNZ4VAV,G9N22,G9N22,32N49TQG3HLFICM1PNU5D3QKNZ4VAV,32N49TQG3HLFICM1PNU5D3QKNZ4VAV,276282,276282,,,,,,,,,,
,,,,4,10.832835,0,16,16,89,1,candy decorations and a big jar of sweets,candy decorations with a big jar of sweets and some suckers next to it,ma,86520382,4,70,A7ERZELTAMWL5,2021-02-17_18h35.50.671,MetaAwareness,2020.1.2,Linux x86_64,60,38F60IALAHK1INM02OSVZWVYP880TF,A7ERZELTAMWL5,32N49TQG3HLFICM1PNU5D3QKNZ4VAV,G9N22,G9N22,32N49TQG3HLFICM1PNU5D3QKNZ4VAV,32N49TQG3HLFICM1PNU5D3QKNZ4VAV,276282,276282,,,,,,,,,,
,,,,3,17.22955,0,17,17,62,1,a checkerboard sheet containing a set of contact information and titles of a company with the website on the bottom of the square.,a checkerboard sheet containing a set of contact information and titles of a company with the website in the middle of the square,ma,69128765,7,70,A7ERZELTAMWL5,2021-02-17_18h35.50.671,MetaAwareness,2020.1.2,Linux x86_64,60,38F60IALAHK1INM02OSVZWVYP880TF,A7ERZELTAMWL5,32N49TQG3HLFICM1PNU5D3QKNZ4VAV,G9N22,G9N22,32N49TQG3HLFICM1PNU5D3QKNZ4VAV,32N49TQG3HLFICM1PNU5D3QKNZ4VAV,276282,276282,,,,,,,,,,
,,,,3,13.20283,0,18,18,1,1,a room with some wall decorations including a wide painting of a coffee mug,a room with wall decorations in cluding a narrow painting of a coffee mug.,ma,10504629,6,70,A7ERZELTAMWL5,2021-02-17_18h35.50.671,MetaAwareness,2020.1.2,Linux x86_64,60,38F60IALAHK1INM02OSVZWVYP880TF,A7ERZELTAMWL5,32N49TQG3HLFICM1PNU5D3QKNZ4VAV,G9N22,G9N22,32N49TQG3HLFICM1PNU5D3QKNZ4VAV,32N49TQG3HLFICM1PNU5D3QKNZ4VAV,276282,276282,,,,,,,,,,
,,,,3,30.21849,0,19,19,38,1,a set of creatively modeled rabbit figures. the front one has blue ears and pink feet.,a set of creatively modeled rabbit figures. the front one has blue ears and blue feet.,ma,48384711,7,70,A7ERZELTAMWL5,2021-02-17_18h35.50.671,MetaAwareness,2020.1.2,Linux x86_64,60,38F60IALAHK1INM02OSVZWVYP880TF,A7ERZELTAMWL5,32N49TQG3HLFICM1PNU5D3QKNZ4VAV,G9N22,G9N22,32N49TQG3HLFICM1PNU5D3QKNZ4VAV,32N49TQG3HLFICM1PNU5D3QKNZ4VAV,276282,276282,,,,,,,,,,
,,,,2,12.761285,0,20,20,7,1,a robot looking item with the name lauri e on it,a robot looking item with the name lauri e on it and an amber marker light,ma,12115280,8,70,A7ERZELTAMWL5,2021-02-17_18h35.50.671,MetaAwareness,2020.1.2,Linux x86_64,60,38F60IALAHK1INM02OSVZWVYP880TF,A7ERZELTAMWL5,32N49TQG3HLFICM1PNU5D3QKNZ4VAV,G9N22,G9N22,32N49TQG3HLFICM1PNU5D3QKNZ4VAV,32N49TQG3HLFICM1PNU5D3QKNZ4VAV,276282,276282,,,,,,,,,,
,,,,5,11.2551,0,21,21,63,1,a green and red quilt of squares of various shades of green and red.,a green and red quilt hanging on a white wall. the squares are various shades of green and red.,ma,70687495,1,70,A7ERZELTAMWL5,2021-02-17_18h35.50.671,MetaAwareness,2020.1.2,Linux x86_64,60,38F60IALAHK1INM02OSVZWVYP880TF,A7ERZELTAMWL5,32N49TQG3HLFICM1PNU5D3QKNZ4VAV,G9N22,G9N22,32N49TQG3HLFICM1PNU5D3QKNZ4VAV,32N49TQG3HLFICM1PNU5D3QKNZ4VAV,276282,276282,,,,,,,,,,
,,,,5,10.44098,0,22,22,79,1,a table with elegant desserts and flowere decorations,a table with delicious desserts and flowers and bows,ma,77793328,7,70,A7ERZELTAMWL5,2021-02-17_18h35.50.671,MetaAwareness,2020.1.2,Linux x86_64,60,38F60IALAHK1INM02OSVZWVYP880TF,A7ERZELTAMWL5,32N49TQG3HLFICM1PNU5D3QKNZ4VAV,G9N22,G9N22,32N49TQG3HLFICM1PNU5D3QKNZ4VAV,32N49TQG3HLFICM1PNU5D3QKNZ4VAV,276282,276282,,,,,,,,,,
,,,,2,11.95782,0,23,23,101,1,an assortment of small pillowlike green items,an assortment of small pillowlike green items and a manilla envelope with a stamp in the corner,ma,8974554,9,70,A7ERZELTAMWL5,2021-02-17_18h35.50.671,MetaAwareness,2020.1.2,Linux x86_64,60,38F60IALAHK1INM02OSVZWVYP880TF,A7ERZELTAMWL5,32N49TQG3HLFICM1PNU5D3QKNZ4VAV,G9N22,G9N22,32N49TQG3HLFICM1PNU5D3QKNZ4VAV,32N49TQG3HLFICM1PNU5D3QKNZ4VAV,276282,276282,,,,,,,,,,
,,,,3,13.74388,0,24,24,106,1,a brick building that houses total a-v systems inc. the second of 6 windows on the second story has a screen in the top half of the window,a brick building that houses a total a-v systems inc. the second of 6 windows on the second story has a screen in the middle of the window,ma,95091295,6,70,A7ERZELTAMWL5,2021-02-17_18h35.50.671,MetaAwareness,2020.1.2,Linux x86_64,60,38F60IALAHK1INM02OSVZWVYP880TF,A7ERZELTAMWL5,32N49TQG3HLFICM1PNU5D3QKNZ4VAV,G9N22,G9N22,32N49TQG3HLFICM1PNU5D3QKNZ4VAV,32N49TQG3HLFICM1PNU5D3QKNZ4VAV,276282,276282,,,,,,,,,,
,,,,3,11.60119,0,25,25,37,1,a group of colorful toys is led by a pink legged purple toy,a group of colorful toys is led by a purple toy,ma,48384711,4,70,A7ERZELTAMWL5,2021-02-17_18h35.50.671,MetaAwareness,2020.1.2,Linux x86_64,60,38F60IALAHK1INM02OSVZWVYP880TF,A7ERZELTAMWL5,32N49TQG3HLFICM1PNU5D3QKNZ4VAV,G9N22,G9N22,32N49TQG3HLFICM1PNU5D3QKNZ4VAV,32N49TQG3HLFICM1PNU5D3QKNZ4VAV,276282,276282,,,,,,,,,,
,,,,2,8.17702,0,26,26,12,1,a bigger pillow on a chair,a smaller pillow on a chair,ma,13873251,6,70,A7ERZELTAMWL5,2021-02-17_18h35.50.671,MetaAwareness,2020.1.2,Linux x86_64,60,38F60IALAHK1INM02OSVZWVYP880TF,A7ERZELTAMWL5,32N49TQG3HLFICM1PNU5D3QKNZ4VAV,G9N22,G9N22,32N49TQG3HLFICM1PNU5D3QKNZ4VAV,32N49TQG3HLFICM1PNU5D3QKNZ4VAV,276282,276282,,,,,,,,,,
,,,,3,18.69093,0,27,27,86,1,neatly arranged photos in frames on a wall with one smaller photo in a frame with a backgroun of a tree and a hill,neatly arranged photos in frames on a wall with one smaller photo in a frame of another scene,ma,83691215,8,70,A7ERZELTAMWL5,2021-02-17_18h35.50.671,MetaAwareness,2020.1.2,Linux x86_64,60,38F60IALAHK1INM02OSVZWVYP880TF,A7ERZELTAMWL5,32N49TQG3HLFICM1PNU5D3QKNZ4VAV,G9N22,G9N22,32N49TQG3HLFICM1PNU5D3QKNZ4VAV,32N49TQG3HLFICM1PNU5D3QKNZ4VAV,276282,276282,,,,,,,,,,
,,,,5,19.71844,0,28,28,30,1,a wooden table with a piece of art made out of wood and pipes,a wooden piece of art on a table with pipes,ma,42429798,6,70,A7ERZELTAMWL5,2021-02-17_18h35.50.671,MetaAwareness,2020.1.2,Linux x86_64,60,38F60IALAHK1INM02OSVZWVYP880TF,A7ERZELTAMWL5,32N49TQG3HLFICM1PNU5D3QKNZ4VAV,G9N22,G9N22,32N49TQG3HLFICM1PNU5D3QKNZ4VAV,32N49TQG3HLFICM1PNU5D3QKNZ4VAV,276282,276282,,,,,,,,,,
,,,,3,14.833305,0,29,29,90,1,"pink and red desserts displayed in glass containers on a table, cake pops to the right and one is missing a stick","pink and red desserts displayed in glass containers on a table, cake pops to the right with pink sticks.",ma,86520382,5,70,A7ERZELTAMWL5,2021-02-17_18h35.50.671,MetaAwareness,2020.1.2,Linux x86_64,60,38F60IALAHK1INM02OSVZWVYP880TF,A7ERZELTAMWL5,32N49TQG3HLFICM1PNU5D3QKNZ4VAV,G9N22,G9N22,32N49TQG3HLFICM1PNU5D3QKNZ4VAV,32N49TQG3HLFICM1PNU5D3QKNZ4VAV,276282,276282,,,,,,,,,,
,,,,,,,,,,,,,,,,70,A7ERZELTAMWL5,2021-02-17_18h35.50.671,MetaAwareness,2020.1.2,Linux x86_64,60,38F60IALAHK1INM02OSVZWVYP880TF,A7ERZELTAMWL5,32N49TQG3HLFICM1PNU5D3QKNZ4VAV,G9N22,G9N22,32N49TQG3HLFICM1PNU5D3QKNZ4VAV,32N49TQG3HLFICM1PNU5D3QKNZ4VAV,276282,276282,6,11.583795,someone laying underneath a blue beach umbrella on a crowded beach,someone laying underneath a blue beach umbrella on a crowded beach,same,1,8.80714,members of a marching band crossing a track that all have feather plumes at the front of their hats,a cluttered and rustic looking cafe with 10 hanging lights,different
