consent_response.keys,consent_response.rt,key_resp_2.keys,key_resp_2.rt,user_resp.keys,user_resp.rt,trials.thisRepN,trials.thisTrialN,trials.thisN,trials.thisIndex,trials.ran,image_1_text,image_2_text,database,image,number,age,worker_ID,date,expName,psychopyVersion,OS,frameRate,hitId,workerId,assignmentId,a,tp_a,b,tp_b,c,tp_c,catch_same_resp.keys,catch_same_resp.rt,image_1_text_catch_same,image_2_text_catch_same,image_catch_same,catch_different_resp.keys,catch_different_resp.rt,image_1_text_catch_different,image_2_text_catch_different,image_catch_different
space,1,space,0.84,5,2.055,0,0,0,5,1,a robotic looking cake with fondant and a red line towards the top right of the cake,a robotic looking cake with fondant and a yellow line towards the top right of the cake,ma,12115280,6,28,AUSCGUM2XIPYL,2021-02-17_15h36.37.651,MetaAwareness,2020.1.2,Win32,60,38F60IALAHK1INM02OSVZWVYP880TF,AUSCGUM2XIPYL,31T4R4OBOTJ101I3R3NGDK051KJ7CI,BRT12,BRT12,31T4R4OBOTJ101I3R3NGDK051KJ7CI,31T4R4OBOTJ101I3R3NGDK051KJ7CI,276282,276282,,,,,,,,,,
,,,,6,0.554,0,1,1,105,1,a red brick building with a wooden door and white trim. bars are on the lower windows,a red brick building with a wooden door and white trim. bars are on the lower windows and one upper window looks open,ma,95091295,5,28,AUSCGUM2XIPYL,2021-02-17_15h36.37.651,MetaAwareness,2020.1.2,Win32,60,38F60IALAHK1INM02OSVZWVYP880TF,AUSCGUM2XIPYL,31T4R4OBOTJ101I3R3NGDK051KJ7CI,BRT12,BRT12,31T4R4OBOTJ101I3R3NGDK051KJ7CI,31T4R4OBOTJ101I3R3NGDK051KJ7CI,276282,276282,,,,,,,,,,
,,,,1,0.349,0,2,2,96,1,green bean bags the postal stamp in the yellow box is opposite than the other picture.,green bean bags the postal stamp in the yellow box is facing up in this picture.,ma,8974554,1,28,AUSCGUM2XIPYL,2021-02-17_15h36.37.651,MetaAwareness,2020.1.2,Win32,60,38F60IALAHK1INM02OSVZWVYP880TF,AUSCGUM2XIPYL,31T4R4OBOTJ101I3R3NGDK051KJ7CI,BRT12,BRT12,31T4R4OBOTJ101I3R3NGDK051KJ7CI,31T4R4OBOTJ101I3R3NGDK051KJ7CI,276282,276282,,,,,,,,,,
,,,,5,0.392,0,3,3,4,1,"a robot made out of fabric, and one that has red felt on the side of it","a robot made out of fabric, and one that does not have red felt on the side of it",ma,12115280,4,28,AUSCGUM2XIPYL,2021-02-17_15h36.37.651,MetaAwareness,2020.1.2,Win32,60,38F60IALAHK1INM02OSVZWVYP880TF,AUSCGUM2XIPYL,31T4R4OBOTJ101I3R3NGDK051KJ7CI,BRT12,BRT12,31T4R4OBOTJ101I3R3NGDK051KJ7CI,31T4R4OBOTJ101I3R3NGDK051KJ7CI,276282,276282,,,,,,,,,,
,,,,2,0.325,0,4,4,40,1,a snack setup that has a variety of food including deviled eggs the deviled egg in the yellow box is turned vertically in this picture.,a snack setup that has a variety of food including deviled eggs the deviled egg in the yellow box is turned horizontally in this picture.,ma,51537628,2,28,AUSCGUM2XIPYL,2021-02-17_15h36.37.651,MetaAwareness,2020.1.2,Win32,60,38F60IALAHK1INM02OSVZWVYP880TF,AUSCGUM2XIPYL,31T4R4OBOTJ101I3R3NGDK051KJ7CI,BRT12,BRT12,31T4R4OBOTJ101I3R3NGDK051KJ7CI,31T4R4OBOTJ101I3R3NGDK051KJ7CI,276282,276282,,,,,,,,,,
,,,,5,0.349,0,5,5,15,1,a vanity with various trinkets adorning it including a yellow cloth,a vanity with various trinkets adorning it including rocks on a yellow cloth,ma,22020472,5,28,AUSCGUM2XIPYL,2021-02-17_15h36.37.651,MetaAwareness,2020.1.2,Win32,60,38F60IALAHK1INM02OSVZWVYP880TF,AUSCGUM2XIPYL,31T4R4OBOTJ101I3R3NGDK051KJ7CI,BRT12,BRT12,31T4R4OBOTJ101I3R3NGDK051KJ7CI,31T4R4OBOTJ101I3R3NGDK051KJ7CI,276282,276282,,,,,,,,,,
,,,,6,0.362,0,6,6,95,1,a desk with photo boxes that have plastic view labels. on of the boxes has two labels,"a desk with photo boxes, some with one view window",ma,89354846,5,28,AUSCGUM2XIPYL,2021-02-17_15h36.37.651,MetaAwareness,2020.1.2,Win32,60,38F60IALAHK1INM02OSVZWVYP880TF,AUSCGUM2XIPYL,31T4R4OBOTJ101I3R3NGDK051KJ7CI,BRT12,BRT12,31T4R4OBOTJ101I3R3NGDK051KJ7CI,31T4R4OBOTJ101I3R3NGDK051KJ7CI,276282,276282,,,,,,,,,,
,,,,5,0.526,0,7,7,111,1,a sward hanging up,a sword hanging below the table,ma,98156944,6,28,AUSCGUM2XIPYL,2021-02-17_15h36.37.651,MetaAwareness,2020.1.2,Win32,60,38F60IALAHK1INM02OSVZWVYP880TF,AUSCGUM2XIPYL,31T4R4OBOTJ101I3R3NGDK051KJ7CI,BRT12,BRT12,31T4R4OBOTJ101I3R3NGDK051KJ7CI,31T4R4OBOTJ101I3R3NGDK051KJ7CI,276282,276282,,,,,,,,,,
,,,,3,0.296,0,8,8,90,1,"pink and red desserts displayed in glass containers on a table, cake pops to the right and one is missing a stick","pink and red desserts displayed in glass containers on a table, cake pops to the right with pink sticks.",ma,86520382,5,28,AUSCGUM2XIPYL,2021-02-17_15h36.37.651,MetaAwareness,2020.1.2,Win32,60,38F60IALAHK1INM02OSVZWVYP880TF,AUSCGUM2XIPYL,31T4R4OBOTJ101I3R3NGDK051KJ7CI,BRT12,BRT12,31T4R4OBOTJ101I3R3NGDK051KJ7CI,31T4R4OBOTJ101I3R3NGDK051KJ7CI,276282,276282,,,,,,,,,,
,,,,4,0.34,0,9,9,66,1,butterfly pillow with fruit on it,strawberry pillow with butterflys on it,ma,73637203,4,28,AUSCGUM2XIPYL,2021-02-17_15h36.37.651,MetaAwareness,2020.1.2,Win32,60,38F60IALAHK1INM02OSVZWVYP880TF,AUSCGUM2XIPYL,31T4R4OBOTJ101I3R3NGDK051KJ7CI,BRT12,BRT12,31T4R4OBOTJ101I3R3NGDK051KJ7CI,31T4R4OBOTJ101I3R3NGDK051KJ7CI,276282,276282,,,,,,,,,,
,,,,6,0.273,0,10,10,2,1,a table with a pink tablecloth with a place setting for 6 with clear glassware four tealight candles burning each inside a shell. green napkins and silverware and pink and white flowers in the center,a table with a pink tablecloth with a place setting for six with clear glassware  four tealights lit and each sitting inside a seashell there are white and pink flowers in the center of the table.,ma,10810329,1,28,AUSCGUM2XIPYL,2021-02-17_15h36.37.651,MetaAwareness,2020.1.2,Win32,60,38F60IALAHK1INM02OSVZWVYP880TF,AUSCGUM2XIPYL,31T4R4OBOTJ101I3R3NGDK051KJ7CI,BRT12,BRT12,31T4R4OBOTJ101I3R3NGDK051KJ7CI,31T4R4OBOTJ101I3R3NGDK051KJ7CI,276282,276282,,,,,,,,,,
,,,,5,0.288,0,11,11,88,1,an array of led type lights and one with a green color lid,an array of led type lights and one with a white color lid,ma,85741618,5,28,AUSCGUM2XIPYL,2021-02-17_15h36.37.651,MetaAwareness,2020.1.2,Win32,60,38F60IALAHK1INM02OSVZWVYP880TF,AUSCGUM2XIPYL,31T4R4OBOTJ101I3R3NGDK051KJ7CI,BRT12,BRT12,31T4R4OBOTJ101I3R3NGDK051KJ7CI,31T4R4OBOTJ101I3R3NGDK051KJ7CI,276282,276282,,,,,,,,,,
,,,,3,0.302,0,12,12,25,1,a cake decorated like a toy box with an off centered yellow star in the middle,a cake decorated like a toy box with centered yellow star in the middle,ma,32289063,8,28,AUSCGUM2XIPYL,2021-02-17_15h36.37.651,MetaAwareness,2020.1.2,Win32,60,38F60IALAHK1INM02OSVZWVYP880TF,AUSCGUM2XIPYL,31T4R4OBOTJ101I3R3NGDK051KJ7CI,BRT12,BRT12,31T4R4OBOTJ101I3R3NGDK051KJ7CI,31T4R4OBOTJ101I3R3NGDK051KJ7CI,276282,276282,,,,,,,,,,
,,,,4,0.203,0,13,13,7,1,a robot looking item with the name lauri e on it,a robot looking item with the name lauri e on it and an amber marker light,ma,12115280,8,28,AUSCGUM2XIPYL,2021-02-17_15h36.37.651,MetaAwareness,2020.1.2,Win32,60,38F60IALAHK1INM02OSVZWVYP880TF,AUSCGUM2XIPYL,31T4R4OBOTJ101I3R3NGDK051KJ7CI,BRT12,BRT12,31T4R4OBOTJ101I3R3NGDK051KJ7CI,31T4R4OBOTJ101I3R3NGDK051KJ7CI,276282,276282,,,,,,,,,,
,,,,4,0.444,0,14,14,86,1,neatly arranged photos in frames on a wall with one smaller photo in a frame with a backgroun of a tree and a hill,neatly arranged photos in frames on a wall with one smaller photo in a frame of another scene,ma,83691215,8,28,AUSCGUM2XIPYL,2021-02-17_15h36.37.651,MetaAwareness,2020.1.2,Win32,60,38F60IALAHK1INM02OSVZWVYP880TF,AUSCGUM2XIPYL,31T4R4OBOTJ101I3R3NGDK051KJ7CI,BRT12,BRT12,31T4R4OBOTJ101I3R3NGDK051KJ7CI,31T4R4OBOTJ101I3R3NGDK051KJ7CI,276282,276282,,,,,,,,,,
,,,,5,0.263,0,15,15,83,1,"an eceltic decorated room with artwork hung on the wall with clothes pins, the center artwork being the largest and pink.","a decorated bedroom with artwork hung on the wall with string and clothes pins, the center artwork being pink.",ma,79573638,4,28,AUSCGUM2XIPYL,2021-02-17_15h36.37.651,MetaAwareness,2020.1.2,Win32,60,38F60IALAHK1INM02OSVZWVYP880TF,AUSCGUM2XIPYL,31T4R4OBOTJ101I3R3NGDK051KJ7CI,BRT12,BRT12,31T4R4OBOTJ101I3R3NGDK051KJ7CI,31T4R4OBOTJ101I3R3NGDK051KJ7CI,276282,276282,,,,,,,,,,
,,,,5,1.15,0,16,16,46,1,pumpkins and coffee theres a man sitting in the back with a blue shirt the pumpkin with the yellow box has its nose slightly lowered than the other picture.,pumpkins and coffee theres a man sitting in the back with a blue sihrt the pumpkin with the yellow box has its nose slightly above the other picture.,ma,55174490,1,28,AUSCGUM2XIPYL,2021-02-17_15h36.37.651,MetaAwareness,2020.1.2,Win32,60,38F60IALAHK1INM02OSVZWVYP880TF,AUSCGUM2XIPYL,31T4R4OBOTJ101I3R3NGDK051KJ7CI,BRT12,BRT12,31T4R4OBOTJ101I3R3NGDK051KJ7CI,31T4R4OBOTJ101I3R3NGDK051KJ7CI,276282,276282,,,,,,,,,,
,,,,4,0.368,0,17,17,99,1,an envelope with an upside down stamp,an envelope with a right side up stamp,ma,8974554,7,28,AUSCGUM2XIPYL,2021-02-17_15h36.37.651,MetaAwareness,2020.1.2,Win32,60,38F60IALAHK1INM02OSVZWVYP880TF,AUSCGUM2XIPYL,31T4R4OBOTJ101I3R3NGDK051KJ7CI,BRT12,BRT12,31T4R4OBOTJ101I3R3NGDK051KJ7CI,31T4R4OBOTJ101I3R3NGDK051KJ7CI,276282,276282,,,,,,,,,,
,,,,6,0.26,0,18,18,6,1,a robot shaped cake with red detailing on the side,a robot shaped cake with yellow detaining on the side,ma,12115280,7,28,AUSCGUM2XIPYL,2021-02-17_15h36.37.651,MetaAwareness,2020.1.2,Win32,60,38F60IALAHK1INM02OSVZWVYP880TF,AUSCGUM2XIPYL,31T4R4OBOTJ101I3R3NGDK051KJ7CI,BRT12,BRT12,31T4R4OBOTJ101I3R3NGDK051KJ7CI,31T4R4OBOTJ101I3R3NGDK051KJ7CI,276282,276282,,,,,,,,,,
,,,,3,0.341,0,19,19,112,1,a desk with dual monitors. a tall umbrella stands to the left of the desk,a desk with dual monitors. a short umbrella stands to the left of the desk,ma,98156944,8,28,AUSCGUM2XIPYL,2021-02-17_15h36.37.651,MetaAwareness,2020.1.2,Win32,60,38F60IALAHK1INM02OSVZWVYP880TF,AUSCGUM2XIPYL,31T4R4OBOTJ101I3R3NGDK051KJ7CI,BRT12,BRT12,31T4R4OBOTJ101I3R3NGDK051KJ7CI,31T4R4OBOTJ101I3R3NGDK051KJ7CI,276282,276282,,,,,,,,,,
,,,,5,0.374,0,20,20,109,1,an assortment of business cards on a wooden surface along with a number of colored pencils which are used to fill in circles on the cards which are located above a short phrase,an assortment of business cards on a wooden surface along with a number of colored pencils which are used to fill in circles on the cards which are located next to a short phrase,ma,97475929,7,28,AUSCGUM2XIPYL,2021-02-17_15h36.37.651,MetaAwareness,2020.1.2,Win32,60,38F60IALAHK1INM02OSVZWVYP880TF,AUSCGUM2XIPYL,31T4R4OBOTJ101I3R3NGDK051KJ7CI,BRT12,BRT12,31T4R4OBOTJ101I3R3NGDK051KJ7CI,31T4R4OBOTJ101I3R3NGDK051KJ7CI,276282,276282,,,,,,,,,,
,,,,4,1.613,0,21,21,97,1,stamp upside down on mail,stamp right side up on mail,ma,8974554,2,28,AUSCGUM2XIPYL,2021-02-17_15h36.37.651,MetaAwareness,2020.1.2,Win32,60,38F60IALAHK1INM02OSVZWVYP880TF,AUSCGUM2XIPYL,31T4R4OBOTJ101I3R3NGDK051KJ7CI,BRT12,BRT12,31T4R4OBOTJ101I3R3NGDK051KJ7CI,31T4R4OBOTJ101I3R3NGDK051KJ7CI,276282,276282,,,,,,,,,,
,,,,6,1.117,0,22,22,26,1,toy dinosaurs sorted in line large in the back to the smallest in the front. the smallest silver one is in line in the front,"toy dinosaurs sorted in line, large in the back to the smallest in the front. the smallest silver one is slightly out of line",ma,38466626,6,28,AUSCGUM2XIPYL,2021-02-17_15h36.37.651,MetaAwareness,2020.1.2,Win32,60,38F60IALAHK1INM02OSVZWVYP880TF,AUSCGUM2XIPYL,31T4R4OBOTJ101I3R3NGDK051KJ7CI,BRT12,BRT12,31T4R4OBOTJ101I3R3NGDK051KJ7CI,31T4R4OBOTJ101I3R3NGDK051KJ7CI,276282,276282,,,,,,,,,,
,,,,5,1.038,0,23,23,8,1,presumably a colorful hot air balloon with one section being miscolored as purple.,presumably a colorful hot air balloon with one section matching the rest as yellow.,ma,12178414,5,28,AUSCGUM2XIPYL,2021-02-17_15h36.37.651,MetaAwareness,2020.1.2,Win32,60,38F60IALAHK1INM02OSVZWVYP880TF,AUSCGUM2XIPYL,31T4R4OBOTJ101I3R3NGDK051KJ7CI,BRT12,BRT12,31T4R4OBOTJ101I3R3NGDK051KJ7CI,31T4R4OBOTJ101I3R3NGDK051KJ7CI,276282,276282,,,,,,,,,,
,,,,6,0.895,0,24,24,62,1,a checkerboard sheet containing a set of contact information and titles of a company with the website on the bottom of the square.,a checkerboard sheet containing a set of contact information and titles of a company with the website in the middle of the square,ma,69128765,7,28,AUSCGUM2XIPYL,2021-02-17_15h36.37.651,MetaAwareness,2020.1.2,Win32,60,38F60IALAHK1INM02OSVZWVYP880TF,AUSCGUM2XIPYL,31T4R4OBOTJ101I3R3NGDK051KJ7CI,BRT12,BRT12,31T4R4OBOTJ101I3R3NGDK051KJ7CI,31T4R4OBOTJ101I3R3NGDK051KJ7CI,276282,276282,,,,,,,,,,
,,,,3,0.931,0,25,25,58,1,a green inner lined bowl sits with other dishes on a table,a creamy inner lined bowl sits with other dishes on a table,ma,62224663,7,28,AUSCGUM2XIPYL,2021-02-17_15h36.37.651,MetaAwareness,2020.1.2,Win32,60,38F60IALAHK1INM02OSVZWVYP880TF,AUSCGUM2XIPYL,31T4R4OBOTJ101I3R3NGDK051KJ7CI,BRT12,BRT12,31T4R4OBOTJ101I3R3NGDK051KJ7CI,31T4R4OBOTJ101I3R3NGDK051KJ7CI,276282,276282,,,,,,,,,,
,,,,6,0.938,0,26,26,38,1,a set of creatively modeled rabbit figures. the front one has blue ears and pink feet.,a set of creatively modeled rabbit figures. the front one has blue ears and blue feet.,ma,48384711,7,28,AUSCGUM2XIPYL,2021-02-17_15h36.37.651,MetaAwareness,2020.1.2,Win32,60,38F60IALAHK1INM02OSVZWVYP880TF,AUSCGUM2XIPYL,31T4R4OBOTJ101I3R3NGDK051KJ7CI,BRT12,BRT12,31T4R4OBOTJ101I3R3NGDK051KJ7CI,31T4R4OBOTJ101I3R3NGDK051KJ7CI,276282,276282,,,,,,,,,,
,,,,3,1.645,0,27,27,13,1,a nice set of furniture with a chair that has a large pillow,a nice set of furniture with a chair that has a normal size pillow,ma,13873251,8,28,AUSCGUM2XIPYL,2021-02-17_15h36.37.651,MetaAwareness,2020.1.2,Win32,60,38F60IALAHK1INM02OSVZWVYP880TF,AUSCGUM2XIPYL,31T4R4OBOTJ101I3R3NGDK051KJ7CI,BRT12,BRT12,31T4R4OBOTJ101I3R3NGDK051KJ7CI,31T4R4OBOTJ101I3R3NGDK051KJ7CI,276282,276282,,,,,,,,,,
,,,,5,1.006,0,28,28,11,1,a small pad of moss with a small grey and white dog with lots of dog toys and a brown dog toy.,a small pad of moss with a small grey and white dog with lots of dog toys and a red do toy.,ma,13141692,2,28,AUSCGUM2XIPYL,2021-02-17_15h36.37.651,MetaAwareness,2020.1.2,Win32,60,38F60IALAHK1INM02OSVZWVYP880TF,AUSCGUM2XIPYL,31T4R4OBOTJ101I3R3NGDK051KJ7CI,BRT12,BRT12,31T4R4OBOTJ101I3R3NGDK051KJ7CI,31T4R4OBOTJ101I3R3NGDK051KJ7CI,276282,276282,,,,,,,,,,
,,,,2,1.144,0,29,29,102,1,pinwheels stuck onto two pieces of wood,decorative pinwheels stuck onto two wooden boards and one has a pink heart in the center,ma,90405028,7,28,AUSCGUM2XIPYL,2021-02-17_15h36.37.651,MetaAwareness,2020.1.2,Win32,60,38F60IALAHK1INM02OSVZWVYP880TF,AUSCGUM2XIPYL,31T4R4OBOTJ101I3R3NGDK051KJ7CI,BRT12,BRT12,31T4R4OBOTJ101I3R3NGDK051KJ7CI,31T4R4OBOTJ101I3R3NGDK051KJ7CI,276282,276282,,,,,,,,,,
,,,,,,,,,,,,,,,,28,AUSCGUM2XIPYL,2021-02-17_15h36.37.651,MetaAwareness,2020.1.2,Win32,60,38F60IALAHK1INM02OSVZWVYP880TF,AUSCGUM2XIPYL,31T4R4OBOTJ101I3R3NGDK051KJ7CI,BRT12,BRT12,31T4R4OBOTJ101I3R3NGDK051KJ7CI,31T4R4OBOTJ101I3R3NGDK051KJ7CI,276282,276282,6,1.158,someone laying underneath a blue beach umbrella on a crowded beach,someone laying underneath a blue beach umbrella on a crowded beach,same,5,0.999,members of a marching band crossing a track that all have feather plumes at the front of their hats,a cluttered and rustic looking cafe with 10 hanging lights,different
