consent_response.keys,consent_response.rt,key_resp_2.keys,key_resp_2.rt,user_resp.keys,user_resp.rt,trials.thisRepN,trials.thisTrialN,trials.thisN,trials.thisIndex,trials.ran,image_1_text,image_2_text,database,image,number,age,worker_ID,date,expName,psychopyVersion,OS,frameRate,hitId,workerId,assignmentId,a,tp_a,b,tp_b,c,tp_c,catch_same_resp.keys,catch_same_resp.rt,image_1_text_catch_same,image_2_text_catch_same,image_catch_same,catch_different_resp.keys,catch_different_resp.rt,image_1_text_catch_different,image_2_text_catch_different,image_catch_different
space,196.254,space,5.968,5,16.816,0,0,0,614,1,a girl with a green hat and sunglasses is riding on the back of a camel,a girl with a pink hat and sunglasses is riding on the back of a camel behind another girl,wolfe1,image-135,4,26,A147VU5FL0JL70,2021-01-07_21h29.36.351,MetaAwareness,2020.1.2,Win32,60,3ZC62PVYDIDGWU1VAAIZXD3FAQPXXQ,A147VU5FL0JL70,333U7HK6IAI4POPJS87O0GNW9KIDJO,67332,67332,333U7HK6IAI4POPJS87O0GNW9KIDJO,333U7HK6IAI4POPJS87O0GNW9KIDJO,267902,267902,,,,,,,,,,
,,,,4,3.581,0,1,1,325,1,students work at a table in front of a bulletin board with a red decoration,students work at a table in front of a bulletin board with a yellow decoration,wolfe1,image-083,6,26,A147VU5FL0JL70,2021-01-07_21h29.36.351,MetaAwareness,2020.1.2,Win32,60,3ZC62PVYDIDGWU1VAAIZXD3FAQPXXQ,A147VU5FL0JL70,333U7HK6IAI4POPJS87O0GNW9KIDJO,67332,67332,333U7HK6IAI4POPJS87O0GNW9KIDJO,333U7HK6IAI4POPJS87O0GNW9KIDJO,267902,267902,,,,,,,,,,
,,,,5,6.518,0,2,2,419,1,children playing on a playground with the young girl on the far right wearing a pinkl shirt.,children playing on a playground with the young girl on the far right wearing a orange shirt.,wolfe1,image-101,4,26,A147VU5FL0JL70,2021-01-07_21h29.36.351,MetaAwareness,2020.1.2,Win32,60,3ZC62PVYDIDGWU1VAAIZXD3FAQPXXQ,A147VU5FL0JL70,333U7HK6IAI4POPJS87O0GNW9KIDJO,67332,67332,333U7HK6IAI4POPJS87O0GNW9KIDJO,333U7HK6IAI4POPJS87O0GNW9KIDJO,267902,267902,,,,,,,,,,
,,,,6,5.916,0,3,3,547,1,a pair of people standing and talking next to a body of water with a green pole standing next to them,a pair of people standing and talking next to a body of water with a brown pole standing next to them,wolfe1,image-124,3,26,A147VU5FL0JL70,2021-01-07_21h29.36.351,MetaAwareness,2020.1.2,Win32,60,3ZC62PVYDIDGWU1VAAIZXD3FAQPXXQ,A147VU5FL0JL70,333U7HK6IAI4POPJS87O0GNW9KIDJO,67332,67332,333U7HK6IAI4POPJS87O0GNW9KIDJO,333U7HK6IAI4POPJS87O0GNW9KIDJO,267902,267902,,,,,,,,,,
,,,,3,4.119,0,4,4,69,1,a relaxing indoor retreat with a small planter embedded in the stone in the front which surrounds it,a relaxing indoor retreat with stone surrounding it,wolfe1,image-012,5,26,A147VU5FL0JL70,2021-01-07_21h29.36.351,MetaAwareness,2020.1.2,Win32,60,3ZC62PVYDIDGWU1VAAIZXD3FAQPXXQ,A147VU5FL0JL70,333U7HK6IAI4POPJS87O0GNW9KIDJO,67332,67332,333U7HK6IAI4POPJS87O0GNW9KIDJO,333U7HK6IAI4POPJS87O0GNW9KIDJO,267902,267902,,,,,,,,,,
,,,,3,2.759,0,5,5,66,1,"a small building with a hammock, and a small circular object on the ground outside",a small building with a hammock,wolfe1,image-012,2,26,A147VU5FL0JL70,2021-01-07_21h29.36.351,MetaAwareness,2020.1.2,Win32,60,3ZC62PVYDIDGWU1VAAIZXD3FAQPXXQ,A147VU5FL0JL70,333U7HK6IAI4POPJS87O0GNW9KIDJO,67332,67332,333U7HK6IAI4POPJS87O0GNW9KIDJO,333U7HK6IAI4POPJS87O0GNW9KIDJO,267902,267902,,,,,,,,,,
,,,,6,4.652,0,6,6,313,1,two women sitting in plastic chairs at the park with their backpacks and a red folder on a wooden table.,two women sitting in plastic chairs at the park with their backpacks and a blue folder on a wooden table.,wolfe1,image-081,3,26,A147VU5FL0JL70,2021-01-07_21h29.36.351,MetaAwareness,2020.1.2,Win32,60,3ZC62PVYDIDGWU1VAAIZXD3FAQPXXQ,A147VU5FL0JL70,333U7HK6IAI4POPJS87O0GNW9KIDJO,67332,67332,333U7HK6IAI4POPJS87O0GNW9KIDJO,333U7HK6IAI4POPJS87O0GNW9KIDJO,267902,267902,,,,,,,,,,
,,,,6,2.879,0,7,7,179,1,a family is feeding birds that surround them in front of a landmark,a family is feeding birds in front of them in front of a landmark,wolfe1,image-032,5,26,A147VU5FL0JL70,2021-01-07_21h29.36.351,MetaAwareness,2020.1.2,Win32,60,3ZC62PVYDIDGWU1VAAIZXD3FAQPXXQ,A147VU5FL0JL70,333U7HK6IAI4POPJS87O0GNW9KIDJO,67332,67332,333U7HK6IAI4POPJS87O0GNW9KIDJO,333U7HK6IAI4POPJS87O0GNW9KIDJO,267902,267902,,,,,,,,,,
,,,,5,3.854,0,8,8,316,1,people playing soccer with one wearing blue shoe.,people playing soccer with one person wearing one green shoe.,wolfe1,image-082,1,26,A147VU5FL0JL70,2021-01-07_21h29.36.351,MetaAwareness,2020.1.2,Win32,60,3ZC62PVYDIDGWU1VAAIZXD3FAQPXXQ,A147VU5FL0JL70,333U7HK6IAI4POPJS87O0GNW9KIDJO,67332,67332,333U7HK6IAI4POPJS87O0GNW9KIDJO,333U7HK6IAI4POPJS87O0GNW9KIDJO,267902,267902,,,,,,,,,,
,,,,6,4.135,0,9,9,428,1,a person with green shoes walks with a crowd down a rainy sidewalk,a person with red shoes walks with a crowd down a rainy sidewalk,wolfe1,image-103,2,26,A147VU5FL0JL70,2021-01-07_21h29.36.351,MetaAwareness,2020.1.2,Win32,60,3ZC62PVYDIDGWU1VAAIZXD3FAQPXXQ,A147VU5FL0JL70,333U7HK6IAI4POPJS87O0GNW9KIDJO,67332,67332,333U7HK6IAI4POPJS87O0GNW9KIDJO,333U7HK6IAI4POPJS87O0GNW9KIDJO,267902,267902,,,,,,,,,,
,,,,6,2.674,0,10,10,378,1,black backpack with blue tape,black backpack with green tape,wolfe1,image-094,3,26,A147VU5FL0JL70,2021-01-07_21h29.36.351,MetaAwareness,2020.1.2,Win32,60,3ZC62PVYDIDGWU1VAAIZXD3FAQPXXQ,A147VU5FL0JL70,333U7HK6IAI4POPJS87O0GNW9KIDJO,67332,67332,333U7HK6IAI4POPJS87O0GNW9KIDJO,333U7HK6IAI4POPJS87O0GNW9KIDJO,267902,267902,,,,,,,,,,
,,,,6,3.571,0,11,11,569,1,a swimmer trying to climb up a short cliff wearing a blue vest.,a swimmer trying to climb up a short cliff wearing a green vest.,wolfe1,image-128,5,26,A147VU5FL0JL70,2021-01-07_21h29.36.351,MetaAwareness,2020.1.2,Win32,60,3ZC62PVYDIDGWU1VAAIZXD3FAQPXXQ,A147VU5FL0JL70,333U7HK6IAI4POPJS87O0GNW9KIDJO,67332,67332,333U7HK6IAI4POPJS87O0GNW9KIDJO,333U7HK6IAI4POPJS87O0GNW9KIDJO,267902,267902,,,,,,,,,,
,,,,6,2.382,0,12,12,24,1,five students in graduate outfits standing and celebrating in front of a bench,five students in graduate outfits standing and celebrating in front of a patch of grass,wolfe1,image-005,3,26,A147VU5FL0JL70,2021-01-07_21h29.36.351,MetaAwareness,2020.1.2,Win32,60,3ZC62PVYDIDGWU1VAAIZXD3FAQPXXQ,A147VU5FL0JL70,333U7HK6IAI4POPJS87O0GNW9KIDJO,67332,67332,333U7HK6IAI4POPJS87O0GNW9KIDJO,333U7HK6IAI4POPJS87O0GNW9KIDJO,267902,267902,,,,,,,,,,
,,,,6,2.317,0,13,13,509,1,people standing under a blue canopy at a farmer's market,people standing under a red canopy at a farmer's market,wolfe1,image-117,2,26,A147VU5FL0JL70,2021-01-07_21h29.36.351,MetaAwareness,2020.1.2,Win32,60,3ZC62PVYDIDGWU1VAAIZXD3FAQPXXQ,A147VU5FL0JL70,333U7HK6IAI4POPJS87O0GNW9KIDJO,67332,67332,333U7HK6IAI4POPJS87O0GNW9KIDJO,333U7HK6IAI4POPJS87O0GNW9KIDJO,267902,267902,,,,,,,,,,
,,,,6,2.579,0,14,14,367,1,a group of old people in a movement class with one old woman wearing a white pair of shoes,a group of old people in a movement class with one old woman wearing a pink pair of shoes,wolfe1,image-092,4,26,A147VU5FL0JL70,2021-01-07_21h29.36.351,MetaAwareness,2020.1.2,Win32,60,3ZC62PVYDIDGWU1VAAIZXD3FAQPXXQ,A147VU5FL0JL70,333U7HK6IAI4POPJS87O0GNW9KIDJO,67332,67332,333U7HK6IAI4POPJS87O0GNW9KIDJO,333U7HK6IAI4POPJS87O0GNW9KIDJO,267902,267902,,,,,,,,,,
,,,,4,4.163,0,15,15,235,1,there is a statue on top of the church,there is no statue,wolfe1,image-042,5,26,A147VU5FL0JL70,2021-01-07_21h29.36.351,MetaAwareness,2020.1.2,Win32,60,3ZC62PVYDIDGWU1VAAIZXD3FAQPXXQ,A147VU5FL0JL70,333U7HK6IAI4POPJS87O0GNW9KIDJO,67332,67332,333U7HK6IAI4POPJS87O0GNW9KIDJO,333U7HK6IAI4POPJS87O0GNW9KIDJO,267902,267902,,,,,,,,,,
,,,,6,4.764,0,16,16,415,1,"there is a pop up gazebo in the middle of a camping area. in the background, there are large trees, a camper, and red and blue towels hanging on a line attached to the trees.","there is a pop up gazebo in the middle of a camping area. in the background, there are large trees, a camper, and red towels that are hanging from a line attached to the trees.",wolfe1,image-100,4,26,A147VU5FL0JL70,2021-01-07_21h29.36.351,MetaAwareness,2020.1.2,Win32,60,3ZC62PVYDIDGWU1VAAIZXD3FAQPXXQ,A147VU5FL0JL70,333U7HK6IAI4POPJS87O0GNW9KIDJO,67332,67332,333U7HK6IAI4POPJS87O0GNW9KIDJO,333U7HK6IAI4POPJS87O0GNW9KIDJO,267902,267902,,,,,,,,,,
,,,,6,3.227,0,17,17,600,1,an outdoor lounge area with a brown surfboard leaning against the building,an outdoor lounge area with a green surfboard leaning against the building,wolfe1,image-133,3,26,A147VU5FL0JL70,2021-01-07_21h29.36.351,MetaAwareness,2020.1.2,Win32,60,3ZC62PVYDIDGWU1VAAIZXD3FAQPXXQ,A147VU5FL0JL70,333U7HK6IAI4POPJS87O0GNW9KIDJO,67332,67332,333U7HK6IAI4POPJS87O0GNW9KIDJO,333U7HK6IAI4POPJS87O0GNW9KIDJO,267902,267902,,,,,,,,,,
,,,,4,2.798,0,18,18,165,1,a signboard sits outside the store with the yellow front,nothing sits outside the store with the yellow front,wolfe1,image-030,2,26,A147VU5FL0JL70,2021-01-07_21h29.36.351,MetaAwareness,2020.1.2,Win32,60,3ZC62PVYDIDGWU1VAAIZXD3FAQPXXQ,A147VU5FL0JL70,333U7HK6IAI4POPJS87O0GNW9KIDJO,67332,67332,333U7HK6IAI4POPJS87O0GNW9KIDJO,333U7HK6IAI4POPJS87O0GNW9KIDJO,267902,267902,,,,,,,,,,
,,,,4,3.378,0,19,19,175,1,people feeding a large group of pigeons while 3 stand by a young boy,people feeding a large group of pigeons,wolfe1,image-032,1,26,A147VU5FL0JL70,2021-01-07_21h29.36.351,MetaAwareness,2020.1.2,Win32,60,3ZC62PVYDIDGWU1VAAIZXD3FAQPXXQ,A147VU5FL0JL70,333U7HK6IAI4POPJS87O0GNW9KIDJO,67332,67332,333U7HK6IAI4POPJS87O0GNW9KIDJO,333U7HK6IAI4POPJS87O0GNW9KIDJO,267902,267902,,,,,,,,,,
,,,,3,3.118,0,20,20,105,1,"a beach scene with kayaks, a tent, and an empty blue chair in the foreground",a beach scene with kayaks and a tent in the foreground,wolfe1,image-018,2,26,A147VU5FL0JL70,2021-01-07_21h29.36.351,MetaAwareness,2020.1.2,Win32,60,3ZC62PVYDIDGWU1VAAIZXD3FAQPXXQ,A147VU5FL0JL70,333U7HK6IAI4POPJS87O0GNW9KIDJO,67332,67332,333U7HK6IAI4POPJS87O0GNW9KIDJO,333U7HK6IAI4POPJS87O0GNW9KIDJO,267902,267902,,,,,,,,,,
,,,,6,6.413,0,21,21,370,1,several students in a school gym taking part in an exercise class. one student is wearing pink pants.,"several students in a school gym taking part in an exercise class, one student is wearing blue pants.",wolfe1,image-093,1,26,A147VU5FL0JL70,2021-01-07_21h29.36.351,MetaAwareness,2020.1.2,Win32,60,3ZC62PVYDIDGWU1VAAIZXD3FAQPXXQ,A147VU5FL0JL70,333U7HK6IAI4POPJS87O0GNW9KIDJO,67332,67332,333U7HK6IAI4POPJS87O0GNW9KIDJO,333U7HK6IAI4POPJS87O0GNW9KIDJO,267902,267902,,,,,,,,,,
,,,,4,7.459,0,22,22,398,1,"a music classroom with a teacher, students, and a blue box under a stool.","a music classroom with a teacher, students, and a green box under a stool.",wolfe1,image-096,6,26,A147VU5FL0JL70,2021-01-07_21h29.36.351,MetaAwareness,2020.1.2,Win32,60,3ZC62PVYDIDGWU1VAAIZXD3FAQPXXQ,A147VU5FL0JL70,333U7HK6IAI4POPJS87O0GNW9KIDJO,67332,67332,333U7HK6IAI4POPJS87O0GNW9KIDJO,333U7HK6IAI4POPJS87O0GNW9KIDJO,267902,267902,,,,,,,,,,
,,,,6,4.87,0,23,23,599,1,a brown surf board leans against the outside of a blue building.,a green surf board leans against the outside of a blue building.,wolfe1,image-133,2,26,A147VU5FL0JL70,2021-01-07_21h29.36.351,MetaAwareness,2020.1.2,Win32,60,3ZC62PVYDIDGWU1VAAIZXD3FAQPXXQ,A147VU5FL0JL70,333U7HK6IAI4POPJS87O0GNW9KIDJO,67332,67332,333U7HK6IAI4POPJS87O0GNW9KIDJO,333U7HK6IAI4POPJS87O0GNW9KIDJO,267902,267902,,,,,,,,,,
,,,,4,3.051,0,24,24,277,1,"a hammock is strung between two trees on a tropical island, with leaves dangling down from another tree, blocking the sun.","a hammock is strung between two trees ona tropical island, with the sun shining beneath another tree.",wolfe1,image-049,6,26,A147VU5FL0JL70,2021-01-07_21h29.36.351,MetaAwareness,2020.1.2,Win32,60,3ZC62PVYDIDGWU1VAAIZXD3FAQPXXQ,A147VU5FL0JL70,333U7HK6IAI4POPJS87O0GNW9KIDJO,67332,67332,333U7HK6IAI4POPJS87O0GNW9KIDJO,333U7HK6IAI4POPJS87O0GNW9KIDJO,267902,267902,,,,,,,,,,
,,,,6,4.616,0,25,25,302,1,the inside of a large mall where people walk around shopping in different stores. one clothing store on the second floor has a red dress on display,the inside of a large mall where people walk around shopping in different stores.one clothing store on the second floor has a purple dress on display,wolfe1,image-079,3,26,A147VU5FL0JL70,2021-01-07_21h29.36.351,MetaAwareness,2020.1.2,Win32,60,3ZC62PVYDIDGWU1VAAIZXD3FAQPXXQ,A147VU5FL0JL70,333U7HK6IAI4POPJS87O0GNW9KIDJO,67332,67332,333U7HK6IAI4POPJS87O0GNW9KIDJO,333U7HK6IAI4POPJS87O0GNW9KIDJO,267902,267902,,,,,,,,,,
,,,,5,3.758,0,26,26,332,1,hikers climbing a mountain and a hiker with a yellow shirt is opening a red backpack.,hikers climbing a mountain and a hiker with a yellow shirt opening a green backpack,wolfe1,image-084,6,26,A147VU5FL0JL70,2021-01-07_21h29.36.351,MetaAwareness,2020.1.2,Win32,60,3ZC62PVYDIDGWU1VAAIZXD3FAQPXXQ,A147VU5FL0JL70,333U7HK6IAI4POPJS87O0GNW9KIDJO,67332,67332,333U7HK6IAI4POPJS87O0GNW9KIDJO,333U7HK6IAI4POPJS87O0GNW9KIDJO,267902,267902,,,,,,,,,,
,,,,4,3.341,0,27,27,516,1,"a group of people hang around some playground equipment, including someone with a red backpack","a group of people hang around some playground equipment, including someone wwith an orange backpack.",wolfe1,image-118,2,26,A147VU5FL0JL70,2021-01-07_21h29.36.351,MetaAwareness,2020.1.2,Win32,60,3ZC62PVYDIDGWU1VAAIZXD3FAQPXXQ,A147VU5FL0JL70,333U7HK6IAI4POPJS87O0GNW9KIDJO,67332,67332,333U7HK6IAI4POPJS87O0GNW9KIDJO,333U7HK6IAI4POPJS87O0GNW9KIDJO,267902,267902,,,,,,,,,,
,,,,6,3.669,0,28,28,303,1,"a mall interior, with people standing around, and a red dress visible in a storefront window on the upper floor","a mall interior, with people standing around, and a purple dress visible in a storefront window on the upper floor",wolfe1,image-079,4,26,A147VU5FL0JL70,2021-01-07_21h29.36.351,MetaAwareness,2020.1.2,Win32,60,3ZC62PVYDIDGWU1VAAIZXD3FAQPXXQ,A147VU5FL0JL70,333U7HK6IAI4POPJS87O0GNW9KIDJO,67332,67332,333U7HK6IAI4POPJS87O0GNW9KIDJO,333U7HK6IAI4POPJS87O0GNW9KIDJO,267902,267902,,,,,,,,,,
,,,,6,4.429,0,29,29,460,1,a group of men playing golf with a view of a grayish buliding roof visible in the break of the tree line.,a group of men playing golf with a view of a reddish building roof visible in the break of the tree line.,wolfe1,image-108,2,26,A147VU5FL0JL70,2021-01-07_21h29.36.351,MetaAwareness,2020.1.2,Win32,60,3ZC62PVYDIDGWU1VAAIZXD3FAQPXXQ,A147VU5FL0JL70,333U7HK6IAI4POPJS87O0GNW9KIDJO,67332,67332,333U7HK6IAI4POPJS87O0GNW9KIDJO,333U7HK6IAI4POPJS87O0GNW9KIDJO,267902,267902,,,,,,,,,,
,,,,,,,,,,,,,,,,26,A147VU5FL0JL70,2021-01-07_21h29.36.351,MetaAwareness,2020.1.2,Win32,60,3ZC62PVYDIDGWU1VAAIZXD3FAQPXXQ,A147VU5FL0JL70,333U7HK6IAI4POPJS87O0GNW9KIDJO,67332,67332,333U7HK6IAI4POPJS87O0GNW9KIDJO,333U7HK6IAI4POPJS87O0GNW9KIDJO,267902,267902,6,3.274,someone laying underneath a blue beach umbrella on a crowded beach,someone laying underneath a blue beach umbrella on a crowded beach,same,3,3.2,members of a marching band crossing a track that all have feather plumes at the front of their hats,a cluttered and rustic looking cafe with 10 hanging lights,different
