consent_response.keys,consent_response.rt,key_resp_2.keys,key_resp_2.rt,user_resp.keys,user_resp.rt,trials.thisRepN,trials.thisTrialN,trials.thisN,trials.thisIndex,trials.ran,image_1_text,image_2_text,database,image,number,age,worker_ID,date,expName,psychopyVersion,OS,frameRate,hitId,workerId,assignmentId,a,tp_a,b,tp_b,c,tp_c,catch_same_resp.keys,catch_same_resp.rt,image_1_text_catch_same,image_2_text_catch_same,image_catch_same,catch_different_resp.keys,catch_different_resp.rt,image_1_text_catch_different,image_2_text_catch_different,image_catch_different
space,4.16469,space,5.141645,5,10.164835,0,0,0,593,1,two white couches sit in front of a fireplace in a nice living room. the closest couch has a red throw pillow at the end next to the fireplace,two white couches sit in front of fireplace in a nice living room. the closest couch has a green throw pillow at the end next to the fireplace,wolfe1,image-132,2,32,A1DMXEJGJY02E1,2021-01-07_20h16.49.999,MetaAwareness,2020.1.2,Win32,60,3GONHBMNHW1U7D26XL4BJH3SBM1MZQ,A1DMXEJGJY02E1,3A4TN5196LLYTQOF4C9S4XPZBSQHCB,9N4A2,9N4A2,3A4TN5196LLYTQOF4C9S4XPZBSQHCB,3A4TN5196LLYTQOF4C9S4XPZBSQHCB,267902,267902,,,,,,,,,,
,,,,5,7.58802,0,1,1,45,1,people at a petting zoo including a group of people in white shirts  and one in black at the rear of the zoo,people at a petting zoo including a group of people in white shirts at the rear of the zoo,wolfe1,image-008,4,32,A1DMXEJGJY02E1,2021-01-07_20h16.49.999,MetaAwareness,2020.1.2,Win32,60,3GONHBMNHW1U7D26XL4BJH3SBM1MZQ,A1DMXEJGJY02E1,3A4TN5196LLYTQOF4C9S4XPZBSQHCB,9N4A2,9N4A2,3A4TN5196LLYTQOF4C9S4XPZBSQHCB,3A4TN5196LLYTQOF4C9S4XPZBSQHCB,267902,267902,,,,,,,,,,
,,,,3,8.10036,0,2,2,203,1,"a picnic table is inside an enclosure, there is a white food carton sitting in the middle of the table.","a picnic table is inside an enclosure, there is no white food carton sitting in the middle.",wolfe1,image-037,1,32,A1DMXEJGJY02E1,2021-01-07_20h16.49.999,MetaAwareness,2020.1.2,Win32,60,3GONHBMNHW1U7D26XL4BJH3SBM1MZQ,A1DMXEJGJY02E1,3A4TN5196LLYTQOF4C9S4XPZBSQHCB,9N4A2,9N4A2,3A4TN5196LLYTQOF4C9S4XPZBSQHCB,3A4TN5196LLYTQOF4C9S4XPZBSQHCB,267902,267902,,,,,,,,,,
,,,,5,12.948845,0,3,3,469,1,"a street long shot with cables running above and the tops of some older roofs, one red and one white appear to the right","a long shot of a street scene with cables running overhead and the tops of some buildings, one white and one purpleblue",wolfe1,image-110,1,32,A1DMXEJGJY02E1,2021-01-07_20h16.49.999,MetaAwareness,2020.1.2,Win32,60,3GONHBMNHW1U7D26XL4BJH3SBM1MZQ,A1DMXEJGJY02E1,3A4TN5196LLYTQOF4C9S4XPZBSQHCB,9N4A2,9N4A2,3A4TN5196LLYTQOF4C9S4XPZBSQHCB,3A4TN5196LLYTQOF4C9S4XPZBSQHCB,267902,267902,,,,,,,,,,
,,,,5,7.3012,0,4,4,86,1,two young guys playing around with the college mascot on a brick courtyard with a trashcan,two young guys playing around with the college mascot on a brick courtyard,wolfe1,image-015,2,32,A1DMXEJGJY02E1,2021-01-07_20h16.49.999,MetaAwareness,2020.1.2,Win32,60,3GONHBMNHW1U7D26XL4BJH3SBM1MZQ,A1DMXEJGJY02E1,3A4TN5196LLYTQOF4C9S4XPZBSQHCB,9N4A2,9N4A2,3A4TN5196LLYTQOF4C9S4XPZBSQHCB,3A4TN5196LLYTQOF4C9S4XPZBSQHCB,267902,267902,,,,,,,,,,
,,,,5,7.22646,0,5,5,536,1,a person with a white shirt and white backpack bends over at a concert,a person with a white shirt and beige backpack is in a crowd at a concert,wolfe1,image-122,3,32,A1DMXEJGJY02E1,2021-01-07_20h16.49.999,MetaAwareness,2020.1.2,Win32,60,3GONHBMNHW1U7D26XL4BJH3SBM1MZQ,A1DMXEJGJY02E1,3A4TN5196LLYTQOF4C9S4XPZBSQHCB,9N4A2,9N4A2,3A4TN5196LLYTQOF4C9S4XPZBSQHCB,3A4TN5196LLYTQOF4C9S4XPZBSQHCB,267902,267902,,,,,,,,,,
,,,,4,5.09535,0,6,6,408,1,a group of people wearing red robes while a man in an orange jacket watches,a group of people wearing red robes while a man in a green jacket watches,wolfe1,image-099,1,32,A1DMXEJGJY02E1,2021-01-07_20h16.49.999,MetaAwareness,2020.1.2,Win32,60,3GONHBMNHW1U7D26XL4BJH3SBM1MZQ,A1DMXEJGJY02E1,3A4TN5196LLYTQOF4C9S4XPZBSQHCB,9N4A2,9N4A2,3A4TN5196LLYTQOF4C9S4XPZBSQHCB,3A4TN5196LLYTQOF4C9S4XPZBSQHCB,267902,267902,,,,,,,,,,
,,,,4,4.168755,0,7,7,335,1,at an outdoor restaurant near the beach a man in a purple hat looks out towards the ocean.,at an outdoor restaurant near the beach a man in a green hat looks out towards the ocean.,wolfe1,image-085,2,32,A1DMXEJGJY02E1,2021-01-07_20h16.49.999,MetaAwareness,2020.1.2,Win32,60,3GONHBMNHW1U7D26XL4BJH3SBM1MZQ,A1DMXEJGJY02E1,3A4TN5196LLYTQOF4C9S4XPZBSQHCB,9N4A2,9N4A2,3A4TN5196LLYTQOF4C9S4XPZBSQHCB,3A4TN5196LLYTQOF4C9S4XPZBSQHCB,267902,267902,,,,,,,,,,
,,,,5,7.696125,0,8,8,259,1,a group of people are listening to a man talk who is working holding a shovel and is putting dirt into a white bucket.,a group of people are listening to a man who is working holding a shovel.,wolfe1,image-046,7,32,A1DMXEJGJY02E1,2021-01-07_20h16.49.999,MetaAwareness,2020.1.2,Win32,60,3GONHBMNHW1U7D26XL4BJH3SBM1MZQ,A1DMXEJGJY02E1,3A4TN5196LLYTQOF4C9S4XPZBSQHCB,9N4A2,9N4A2,3A4TN5196LLYTQOF4C9S4XPZBSQHCB,3A4TN5196LLYTQOF4C9S4XPZBSQHCB,267902,267902,,,,,,,,,,
,,,,3,10.166995,0,9,9,278,1,a class room with three people in front lecturing with stacked up items in the corner behind them.,a classroom with three people in the front talking with a bare corner behind them.,wolfe1,image-050,1,32,A1DMXEJGJY02E1,2021-01-07_20h16.49.999,MetaAwareness,2020.1.2,Win32,60,3GONHBMNHW1U7D26XL4BJH3SBM1MZQ,A1DMXEJGJY02E1,3A4TN5196LLYTQOF4C9S4XPZBSQHCB,9N4A2,9N4A2,3A4TN5196LLYTQOF4C9S4XPZBSQHCB,3A4TN5196LLYTQOF4C9S4XPZBSQHCB,267902,267902,,,,,,,,,,
,,,,5,5.046465,0,10,10,406,1,"a group of people walking into a building, one guy is wearing green shorts.","a group of people walking into a building, with one guy wearing brown shorts.",wolfe1,image-098,4,32,A1DMXEJGJY02E1,2021-01-07_20h16.49.999,MetaAwareness,2020.1.2,Win32,60,3GONHBMNHW1U7D26XL4BJH3SBM1MZQ,A1DMXEJGJY02E1,3A4TN5196LLYTQOF4C9S4XPZBSQHCB,9N4A2,9N4A2,3A4TN5196LLYTQOF4C9S4XPZBSQHCB,3A4TN5196LLYTQOF4C9S4XPZBSQHCB,267902,267902,,,,,,,,,,
,,,,5,6.81146,0,11,11,512,1,open air market with several white tents and one blue tent covering the products.,open air market with several white tents and one rent tent covering the products,wolfe1,image-117,5,32,A1DMXEJGJY02E1,2021-01-07_20h16.49.999,MetaAwareness,2020.1.2,Win32,60,3GONHBMNHW1U7D26XL4BJH3SBM1MZQ,A1DMXEJGJY02E1,3A4TN5196LLYTQOF4C9S4XPZBSQHCB,9N4A2,9N4A2,3A4TN5196LLYTQOF4C9S4XPZBSQHCB,3A4TN5196LLYTQOF4C9S4XPZBSQHCB,267902,267902,,,,,,,,,,
,,,,4,4.299475,0,12,12,491,1,people walking on a street in front of a store with a red awning,people walking on a street in front of a store with a yellow awning,wolfe1,image-113,6,32,A1DMXEJGJY02E1,2021-01-07_20h16.49.999,MetaAwareness,2020.1.2,Win32,60,3GONHBMNHW1U7D26XL4BJH3SBM1MZQ,A1DMXEJGJY02E1,3A4TN5196LLYTQOF4C9S4XPZBSQHCB,9N4A2,9N4A2,3A4TN5196LLYTQOF4C9S4XPZBSQHCB,3A4TN5196LLYTQOF4C9S4XPZBSQHCB,267902,267902,,,,,,,,,,
,,,,5,8.104405,0,13,13,248,1,"a freshly mowed plain next to a vineyard, adorned with seven rolls of grass","a freshly mowed plain next to a vineyard, adorned with six rolls of grass",wolfe1,image-045,2,32,A1DMXEJGJY02E1,2021-01-07_20h16.49.999,MetaAwareness,2020.1.2,Win32,60,3GONHBMNHW1U7D26XL4BJH3SBM1MZQ,A1DMXEJGJY02E1,3A4TN5196LLYTQOF4C9S4XPZBSQHCB,9N4A2,9N4A2,3A4TN5196LLYTQOF4C9S4XPZBSQHCB,3A4TN5196LLYTQOF4C9S4XPZBSQHCB,267902,267902,,,,,,,,,,
,,,,5,5.122535,0,14,14,457,1,a basket of candles with a variety of colors including blue are at a shrine.,a basket of candles with a variety of colors including purple are at a shrine.,wolfe1,image-107,7,32,A1DMXEJGJY02E1,2021-01-07_20h16.49.999,MetaAwareness,2020.1.2,Win32,60,3GONHBMNHW1U7D26XL4BJH3SBM1MZQ,A1DMXEJGJY02E1,3A4TN5196LLYTQOF4C9S4XPZBSQHCB,9N4A2,9N4A2,3A4TN5196LLYTQOF4C9S4XPZBSQHCB,3A4TN5196LLYTQOF4C9S4XPZBSQHCB,267902,267902,,,,,,,,,,
,,,,1,3.672195,0,15,15,41,1,transit area with solar panel,trn,wolfe1,image-007,6,32,A1DMXEJGJY02E1,2021-01-07_20h16.49.999,MetaAwareness,2020.1.2,Win32,60,3GONHBMNHW1U7D26XL4BJH3SBM1MZQ,A1DMXEJGJY02E1,3A4TN5196LLYTQOF4C9S4XPZBSQHCB,9N4A2,9N4A2,3A4TN5196LLYTQOF4C9S4XPZBSQHCB,3A4TN5196LLYTQOF4C9S4XPZBSQHCB,267902,267902,,,,,,,,,,
,,,,5,7.46203,0,16,16,79,1,people gather at a park to watch a concert while a blanket is spread out on the lawn but unoccupied,people gather at a park to watch a concert in the grass,wolfe1,image-014,3,32,A1DMXEJGJY02E1,2021-01-07_20h16.49.999,MetaAwareness,2020.1.2,Win32,60,3GONHBMNHW1U7D26XL4BJH3SBM1MZQ,A1DMXEJGJY02E1,3A4TN5196LLYTQOF4C9S4XPZBSQHCB,9N4A2,9N4A2,3A4TN5196LLYTQOF4C9S4XPZBSQHCB,3A4TN5196LLYTQOF4C9S4XPZBSQHCB,267902,267902,,,,,,,,,,
,,,,5,5.748415,0,17,17,198,1,a group of sail boats sailing on the ocean behind some jetski's and a smaller boat.,a group of sail boats sailing on the ocean behind some jetski's.,wolfe1,image-035,1,32,A1DMXEJGJY02E1,2021-01-07_20h16.49.999,MetaAwareness,2020.1.2,Win32,60,3GONHBMNHW1U7D26XL4BJH3SBM1MZQ,A1DMXEJGJY02E1,3A4TN5196LLYTQOF4C9S4XPZBSQHCB,9N4A2,9N4A2,3A4TN5196LLYTQOF4C9S4XPZBSQHCB,3A4TN5196LLYTQOF4C9S4XPZBSQHCB,267902,267902,,,,,,,,,,
,,,,4,3.960565,0,18,18,333,1,a hiker on a grassy mountain reaching into their red bag.,a hiker on a grassy mountain reaching into their green bag.,wolfe1,image-084,7,32,A1DMXEJGJY02E1,2021-01-07_20h16.49.999,MetaAwareness,2020.1.2,Win32,60,3GONHBMNHW1U7D26XL4BJH3SBM1MZQ,A1DMXEJGJY02E1,3A4TN5196LLYTQOF4C9S4XPZBSQHCB,9N4A2,9N4A2,3A4TN5196LLYTQOF4C9S4XPZBSQHCB,3A4TN5196LLYTQOF4C9S4XPZBSQHCB,267902,267902,,,,,,,,,,
,,,,4,5.052835,0,19,19,371,1,kids balancing on one foot in a gym with one girl wearing pink pants.,kids balancing on one foot in a gym with one girl wearing green pants.,wolfe1,image-093,2,32,A1DMXEJGJY02E1,2021-01-07_20h16.49.999,MetaAwareness,2020.1.2,Win32,60,3GONHBMNHW1U7D26XL4BJH3SBM1MZQ,A1DMXEJGJY02E1,3A4TN5196LLYTQOF4C9S4XPZBSQHCB,9N4A2,9N4A2,3A4TN5196LLYTQOF4C9S4XPZBSQHCB,3A4TN5196LLYTQOF4C9S4XPZBSQHCB,267902,267902,,,,,,,,,,
,,,,4,4.59234,0,20,20,484,1,a man in a red shirt walks down a street with a crowd of many people.,a man in a blue shirt walks down a street with a crowd of many people.,wolfe1,image-112,3,32,A1DMXEJGJY02E1,2021-01-07_20h16.49.999,MetaAwareness,2020.1.2,Win32,60,3GONHBMNHW1U7D26XL4BJH3SBM1MZQ,A1DMXEJGJY02E1,3A4TN5196LLYTQOF4C9S4XPZBSQHCB,9N4A2,9N4A2,3A4TN5196LLYTQOF4C9S4XPZBSQHCB,3A4TN5196LLYTQOF4C9S4XPZBSQHCB,267902,267902,,,,,,,,,,
,,,,5,5.096005,0,21,21,49,1,a group of farm animals is eating in front of a fence with a chicken just on the other side,a group of farm animals is eating in front of a fence,wolfe1,image-009,3,32,A1DMXEJGJY02E1,2021-01-07_20h16.49.999,MetaAwareness,2020.1.2,Win32,60,3GONHBMNHW1U7D26XL4BJH3SBM1MZQ,A1DMXEJGJY02E1,3A4TN5196LLYTQOF4C9S4XPZBSQHCB,9N4A2,9N4A2,3A4TN5196LLYTQOF4C9S4XPZBSQHCB,3A4TN5196LLYTQOF4C9S4XPZBSQHCB,267902,267902,,,,,,,,,,
,,,,4,5.4978,0,22,22,184,1,men playing basketball in front of a crowd with a blue awning in the top left corner.,men playing basketball in front of a crowd with no awning visible.,wolfe1,image-033,3,32,A1DMXEJGJY02E1,2021-01-07_20h16.49.999,MetaAwareness,2020.1.2,Win32,60,3GONHBMNHW1U7D26XL4BJH3SBM1MZQ,A1DMXEJGJY02E1,3A4TN5196LLYTQOF4C9S4XPZBSQHCB,9N4A2,9N4A2,3A4TN5196LLYTQOF4C9S4XPZBSQHCB,3A4TN5196LLYTQOF4C9S4XPZBSQHCB,267902,267902,,,,,,,,,,
,,,,5,6.18754,0,23,23,422,1,a man on the end of the front line with a red tie as they pose for a picture,a man on the end of the front line with a pink tie as they pose for a picture,wolfe1,image-102,3,32,A1DMXEJGJY02E1,2021-01-07_20h16.49.999,MetaAwareness,2020.1.2,Win32,60,3GONHBMNHW1U7D26XL4BJH3SBM1MZQ,A1DMXEJGJY02E1,3A4TN5196LLYTQOF4C9S4XPZBSQHCB,9N4A2,9N4A2,3A4TN5196LLYTQOF4C9S4XPZBSQHCB,3A4TN5196LLYTQOF4C9S4XPZBSQHCB,267902,267902,,,,,,,,,,
,,,,4,4.830925,0,24,24,366,1,seniors exercising in a rec room with one lady wearing white shoes.,seniors exercising in a rec room with one lady wearing light purple shoes.,wolfe1,image-092,3,32,A1DMXEJGJY02E1,2021-01-07_20h16.49.999,MetaAwareness,2020.1.2,Win32,60,3GONHBMNHW1U7D26XL4BJH3SBM1MZQ,A1DMXEJGJY02E1,3A4TN5196LLYTQOF4C9S4XPZBSQHCB,9N4A2,9N4A2,3A4TN5196LLYTQOF4C9S4XPZBSQHCB,3A4TN5196LLYTQOF4C9S4XPZBSQHCB,267902,267902,,,,,,,,,,
,,,,5,9.69532,0,25,25,277,1,"a hammock is strung between two trees on a tropical island, with leaves dangling down from another tree, blocking the sun.","a hammock is strung between two trees ona tropical island, with the sun shining beneath another tree.",wolfe1,image-049,6,32,A1DMXEJGJY02E1,2021-01-07_20h16.49.999,MetaAwareness,2020.1.2,Win32,60,3GONHBMNHW1U7D26XL4BJH3SBM1MZQ,A1DMXEJGJY02E1,3A4TN5196LLYTQOF4C9S4XPZBSQHCB,9N4A2,9N4A2,3A4TN5196LLYTQOF4C9S4XPZBSQHCB,3A4TN5196LLYTQOF4C9S4XPZBSQHCB,267902,267902,,,,,,,,,,
,,,,5,6.108725,0,26,26,161,1,bikes sit in front of a building with three front facing windows at the very top of the building,bikes sit in front of a building with two front facing windows at the very top of the building,wolfe1,image-029,2,32,A1DMXEJGJY02E1,2021-01-07_20h16.49.999,MetaAwareness,2020.1.2,Win32,60,3GONHBMNHW1U7D26XL4BJH3SBM1MZQ,A1DMXEJGJY02E1,3A4TN5196LLYTQOF4C9S4XPZBSQHCB,9N4A2,9N4A2,3A4TN5196LLYTQOF4C9S4XPZBSQHCB,3A4TN5196LLYTQOF4C9S4XPZBSQHCB,267902,267902,,,,,,,,,,
,,,,4,5.588005,0,27,27,411,1,people standing on dirt in traditional indian garb and a man dressed casually with a peach collared shirt,people standing on dirt in traditional indian garb and a man dressed casually with a green collared shirt,wolfe1,image-099,4,32,A1DMXEJGJY02E1,2021-01-07_20h16.49.999,MetaAwareness,2020.1.2,Win32,60,3GONHBMNHW1U7D26XL4BJH3SBM1MZQ,A1DMXEJGJY02E1,3A4TN5196LLYTQOF4C9S4XPZBSQHCB,9N4A2,9N4A2,3A4TN5196LLYTQOF4C9S4XPZBSQHCB,3A4TN5196LLYTQOF4C9S4XPZBSQHCB,267902,267902,,,,,,,,,,
,,,,4,5.207705,0,28,28,218,1,boys playing basketball outside a garage with two wall lights visible on the building.,boys playing basketball outside a garage with one wall light visible on the building.,wolfe1,image-040,3,32,A1DMXEJGJY02E1,2021-01-07_20h16.49.999,MetaAwareness,2020.1.2,Win32,60,3GONHBMNHW1U7D26XL4BJH3SBM1MZQ,A1DMXEJGJY02E1,3A4TN5196LLYTQOF4C9S4XPZBSQHCB,9N4A2,9N4A2,3A4TN5196LLYTQOF4C9S4XPZBSQHCB,3A4TN5196LLYTQOF4C9S4XPZBSQHCB,267902,267902,,,,,,,,,,
,,,,4,4.44742,0,29,29,336,1,kids ride bikes at the boardwalk at a beach while a man in a red cap watches them.,kids ride bikes at the boardwalk at a beach while a man in a green cap watches them.,wolfe1,image-085,4,32,A1DMXEJGJY02E1,2021-01-07_20h16.49.999,MetaAwareness,2020.1.2,Win32,60,3GONHBMNHW1U7D26XL4BJH3SBM1MZQ,A1DMXEJGJY02E1,3A4TN5196LLYTQOF4C9S4XPZBSQHCB,9N4A2,9N4A2,3A4TN5196LLYTQOF4C9S4XPZBSQHCB,3A4TN5196LLYTQOF4C9S4XPZBSQHCB,267902,267902,,,,,,,,,,
,,,,,,,,,,,,,,,,32,A1DMXEJGJY02E1,2021-01-07_20h16.49.999,MetaAwareness,2020.1.2,Win32,60,3GONHBMNHW1U7D26XL4BJH3SBM1MZQ,A1DMXEJGJY02E1,3A4TN5196LLYTQOF4C9S4XPZBSQHCB,9N4A2,9N4A2,3A4TN5196LLYTQOF4C9S4XPZBSQHCB,3A4TN5196LLYTQOF4C9S4XPZBSQHCB,267902,267902,6,5.82493,someone laying underneath a blue beach umbrella on a crowded beach,someone laying underneath a blue beach umbrella on a crowded beach,same,3,7.729105,members of a marching band crossing a track that all have feather plumes at the front of their hats,a cluttered and rustic looking cafe with 10 hanging lights,different
