consent_response.keys,consent_response.rt,key_resp_2.keys,key_resp_2.rt,user_resp.keys,user_resp.rt,trials.thisRepN,trials.thisTrialN,trials.thisN,trials.thisIndex,trials.ran,image_1_text,image_2_text,database,image,number,age,worker_ID,date,expName,psychopyVersion,OS,frameRate,hitId,workerId,assignmentId,a,tp_a,b,tp_b,c,tp_c,catch_same_resp.keys,catch_same_resp.rt,image_1_text_catch_same,image_2_text_catch_same,image_catch_same,catch_different_resp.keys,catch_different_resp.rt,image_1_text_catch_different,image_2_text_catch_different,image_catch_different
space,14.39079,space,22.77464,1,54.62164,0,0,0,449,1,a yellow pillow sits next to many other multi-colored pillows on a tiered area of a room,a light green pillow sits next to many other colored pillows on a tiered area of a room,wolfe1,image-106,4,29,A1EALXRSH6N3FC,2021-01-07_22h34.31.381,MetaAwareness,2020.1.2,Win32,60,3PZDSVZ3J6KKMYZHOTTL20FJFHD4N1,A1EALXRSH6N3FC,3IXEICO793MZII69UFDEWG0DQ1WT6T,7IXI2,7IXI2,3IXEICO793MZII69UFDEWG0DQ1WT6T,3IXEICO793MZII69UFDEWG0DQ1WT6T,267902,267902,,,,,,,,,,
,,,,4,30.01535,0,1,1,493,1,3 men are standing outside with a blue fence behind them,3 men are standing outside with a yellow fence behind them,wolfe1,image-114,1,29,A1EALXRSH6N3FC,2021-01-07_22h34.31.381,MetaAwareness,2020.1.2,Win32,60,3PZDSVZ3J6KKMYZHOTTL20FJFHD4N1,A1EALXRSH6N3FC,3IXEICO793MZII69UFDEWG0DQ1WT6T,7IXI2,7IXI2,3IXEICO793MZII69UFDEWG0DQ1WT6T,3IXEICO793MZII69UFDEWG0DQ1WT6T,267902,267902,,,,,,,,,,
,,,,1,10.01725,0,2,2,58,1,two cactus plants are on the table,one cactus plant is on the table.,wolfe1,image-011,1,29,A1EALXRSH6N3FC,2021-01-07_22h34.31.381,MetaAwareness,2020.1.2,Win32,60,3PZDSVZ3J6KKMYZHOTTL20FJFHD4N1,A1EALXRSH6N3FC,3IXEICO793MZII69UFDEWG0DQ1WT6T,7IXI2,7IXI2,3IXEICO793MZII69UFDEWG0DQ1WT6T,3IXEICO793MZII69UFDEWG0DQ1WT6T,267902,267902,,,,,,,,,,
,,,,4,14.925045,0,3,3,299,1,a man walking in a crowd wearing a blue stripped shirt,a man walking in a crowd wearing a green stripped shirt,wolfe1,image-078,5,29,A1EALXRSH6N3FC,2021-01-07_22h34.31.381,MetaAwareness,2020.1.2,Win32,60,3PZDSVZ3J6KKMYZHOTTL20FJFHD4N1,A1EALXRSH6N3FC,3IXEICO793MZII69UFDEWG0DQ1WT6T,7IXI2,7IXI2,3IXEICO793MZII69UFDEWG0DQ1WT6T,3IXEICO793MZII69UFDEWG0DQ1WT6T,267902,267902,,,,,,,,,,
,,,,2,43.97379,0,4,4,614,1,a girl with a green hat and sunglasses is riding on the back of a camel,a girl with a pink hat and sunglasses is riding on the back of a camel behind another girl,wolfe1,image-135,4,29,A1EALXRSH6N3FC,2021-01-07_22h34.31.381,MetaAwareness,2020.1.2,Win32,60,3PZDSVZ3J6KKMYZHOTTL20FJFHD4N1,A1EALXRSH6N3FC,3IXEICO793MZII69UFDEWG0DQ1WT6T,7IXI2,7IXI2,3IXEICO793MZII69UFDEWG0DQ1WT6T,3IXEICO793MZII69UFDEWG0DQ1WT6T,267902,267902,,,,,,,,,,
,,,,4,15.713275,0,5,5,326,1,there is a red peice of paper on the board behind the students,there is a yellow peice of paper on the board behind the students,wolfe1,image-083,7,29,A1EALXRSH6N3FC,2021-01-07_22h34.31.381,MetaAwareness,2020.1.2,Win32,60,3PZDSVZ3J6KKMYZHOTTL20FJFHD4N1,A1EALXRSH6N3FC,3IXEICO793MZII69UFDEWG0DQ1WT6T,7IXI2,7IXI2,3IXEICO793MZII69UFDEWG0DQ1WT6T,3IXEICO793MZII69UFDEWG0DQ1WT6T,267902,267902,,,,,,,,,,
,,,,1,21.384205,0,6,6,127,1,three runners jogging next to a building and two patches of grass that contain an object on one of them,three runners jogging next to a building and two patches of grass that are open and do not have any objects on them,wolfe1,image-022,1,29,A1EALXRSH6N3FC,2021-01-07_22h34.31.381,MetaAwareness,2020.1.2,Win32,60,3PZDSVZ3J6KKMYZHOTTL20FJFHD4N1,A1EALXRSH6N3FC,3IXEICO793MZII69UFDEWG0DQ1WT6T,7IXI2,7IXI2,3IXEICO793MZII69UFDEWG0DQ1WT6T,3IXEICO793MZII69UFDEWG0DQ1WT6T,267902,267902,,,,,,,,,,
,,,,1,14.51533,0,7,7,158,1,a group of people are listening to a speaker while sitting on the grass in front of a building with a piece of paper behind them.,a group of people are listening to a speaker while sitting on the grass with no litter.,wolfe1,image-028,4,29,A1EALXRSH6N3FC,2021-01-07_22h34.31.381,MetaAwareness,2020.1.2,Win32,60,3PZDSVZ3J6KKMYZHOTTL20FJFHD4N1,A1EALXRSH6N3FC,3IXEICO793MZII69UFDEWG0DQ1WT6T,7IXI2,7IXI2,3IXEICO793MZII69UFDEWG0DQ1WT6T,3IXEICO793MZII69UFDEWG0DQ1WT6T,267902,267902,,,,,,,,,,
,,,,1,8.43153,0,8,8,235,1,there is a statue on top of the church,there is no statue,wolfe1,image-042,5,29,A1EALXRSH6N3FC,2021-01-07_22h34.31.381,MetaAwareness,2020.1.2,Win32,60,3PZDSVZ3J6KKMYZHOTTL20FJFHD4N1,A1EALXRSH6N3FC,3IXEICO793MZII69UFDEWG0DQ1WT6T,7IXI2,7IXI2,3IXEICO793MZII69UFDEWG0DQ1WT6T,3IXEICO793MZII69UFDEWG0DQ1WT6T,267902,267902,,,,,,,,,,
,,,,2,13.65967,0,9,9,265,1,people are shoveling dirt in a yard with a single flower in it,people are shoveling dirt a yard made of only dirt,wolfe1,image-047,5,29,A1EALXRSH6N3FC,2021-01-07_22h34.31.381,MetaAwareness,2020.1.2,Win32,60,3PZDSVZ3J6KKMYZHOTTL20FJFHD4N1,A1EALXRSH6N3FC,3IXEICO793MZII69UFDEWG0DQ1WT6T,7IXI2,7IXI2,3IXEICO793MZII69UFDEWG0DQ1WT6T,3IXEICO793MZII69UFDEWG0DQ1WT6T,267902,267902,,,,,,,,,,
,,,,4,17.66515,0,10,10,422,1,a man on the end of the front line with a red tie as they pose for a picture,a man on the end of the front line with a pink tie as they pose for a picture,wolfe1,image-102,3,29,A1EALXRSH6N3FC,2021-01-07_22h34.31.381,MetaAwareness,2020.1.2,Win32,60,3PZDSVZ3J6KKMYZHOTTL20FJFHD4N1,A1EALXRSH6N3FC,3IXEICO793MZII69UFDEWG0DQ1WT6T,7IXI2,7IXI2,3IXEICO793MZII69UFDEWG0DQ1WT6T,3IXEICO793MZII69UFDEWG0DQ1WT6T,267902,267902,,,,,,,,,,
,,,,1,22.108655,0,11,11,455,1,"a rock surface with many candles, with a brown dish holding many colorful candles on their sides with a green and blue candle on top","a rock surface with many candles, with a brown dish holding many colorful candles with a purple and green candle on top",wolfe1,image-107,5,29,A1EALXRSH6N3FC,2021-01-07_22h34.31.381,MetaAwareness,2020.1.2,Win32,60,3PZDSVZ3J6KKMYZHOTTL20FJFHD4N1,A1EALXRSH6N3FC,3IXEICO793MZII69UFDEWG0DQ1WT6T,7IXI2,7IXI2,3IXEICO793MZII69UFDEWG0DQ1WT6T,3IXEICO793MZII69UFDEWG0DQ1WT6T,267902,267902,,,,,,,,,,
,,,,4,29.76364,0,12,12,576,1,a jeans-wearing photographer looks at her photos as she stands outside an interestingly designed building,a gray pants-wearing photographer looks at her photos as she stands outside an interestingly designed building,wolfe1,image-129,7,29,A1EALXRSH6N3FC,2021-01-07_22h34.31.381,MetaAwareness,2020.1.2,Win32,60,3PZDSVZ3J6KKMYZHOTTL20FJFHD4N1,A1EALXRSH6N3FC,3IXEICO793MZII69UFDEWG0DQ1WT6T,7IXI2,7IXI2,3IXEICO793MZII69UFDEWG0DQ1WT6T,3IXEICO793MZII69UFDEWG0DQ1WT6T,267902,267902,,,,,,,,,,
,,,,4,9.12793,0,13,13,340,1,many boys are being in the scene one boy wearing red color t-shirt,many boys are being in the scene and one boy wearing purple color t-shirt,wolfe1,image-086,4,29,A1EALXRSH6N3FC,2021-01-07_22h34.31.381,MetaAwareness,2020.1.2,Win32,60,3PZDSVZ3J6KKMYZHOTTL20FJFHD4N1,A1EALXRSH6N3FC,3IXEICO793MZII69UFDEWG0DQ1WT6T,7IXI2,7IXI2,3IXEICO793MZII69UFDEWG0DQ1WT6T,3IXEICO793MZII69UFDEWG0DQ1WT6T,267902,267902,,,,,,,,,,
,,,,1,9.607985,0,14,14,49,1,a group of farm animals is eating in front of a fence with a chicken just on the other side,a group of farm animals is eating in front of a fence,wolfe1,image-009,3,29,A1EALXRSH6N3FC,2021-01-07_22h34.31.381,MetaAwareness,2020.1.2,Win32,60,3PZDSVZ3J6KKMYZHOTTL20FJFHD4N1,A1EALXRSH6N3FC,3IXEICO793MZII69UFDEWG0DQ1WT6T,7IXI2,7IXI2,3IXEICO793MZII69UFDEWG0DQ1WT6T,3IXEICO793MZII69UFDEWG0DQ1WT6T,267902,267902,,,,,,,,,,
,,,,4,20.618565,0,15,15,611,1,a family enjoying a camel ride where the second girl is wearing a green cap backwards.,a family enjoying a camel ride where the second girl is wearing a purple cap backwards.,wolfe1,image-135,1,29,A1EALXRSH6N3FC,2021-01-07_22h34.31.381,MetaAwareness,2020.1.2,Win32,60,3PZDSVZ3J6KKMYZHOTTL20FJFHD4N1,A1EALXRSH6N3FC,3IXEICO793MZII69UFDEWG0DQ1WT6T,7IXI2,7IXI2,3IXEICO793MZII69UFDEWG0DQ1WT6T,3IXEICO793MZII69UFDEWG0DQ1WT6T,267902,267902,,,,,,,,,,
,,,,4,9.186845,0,16,16,348,1,"a group of parents and children hold hands in a park, while one mom holds a red thermos","a group of parents and children hold hands in a park, while one mom holds a purple thermos",wolfe1,image-088,4,29,A1EALXRSH6N3FC,2021-01-07_22h34.31.381,MetaAwareness,2020.1.2,Win32,60,3PZDSVZ3J6KKMYZHOTTL20FJFHD4N1,A1EALXRSH6N3FC,3IXEICO793MZII69UFDEWG0DQ1WT6T,7IXI2,7IXI2,3IXEICO793MZII69UFDEWG0DQ1WT6T,3IXEICO793MZII69UFDEWG0DQ1WT6T,267902,267902,,,,,,,,,,
,,,,4,15.57996,0,17,17,334,1,"a boardwalk on a beach, including bicyclists, people eating, and a man with a red hat","a boardwalk on a beach, including bicyclists, people eating, and a man with a green hat",wolfe1,image-085,1,29,A1EALXRSH6N3FC,2021-01-07_22h34.31.381,MetaAwareness,2020.1.2,Win32,60,3PZDSVZ3J6KKMYZHOTTL20FJFHD4N1,A1EALXRSH6N3FC,3IXEICO793MZII69UFDEWG0DQ1WT6T,7IXI2,7IXI2,3IXEICO793MZII69UFDEWG0DQ1WT6T,3IXEICO793MZII69UFDEWG0DQ1WT6T,267902,267902,,,,,,,,,,
,,,,4,14.90879,0,18,18,523,1,people gathering around a pond that has a yellow flag near the water.,people gathering around a pond that has a red flag near the water,wolfe1,image-119,4,29,A1EALXRSH6N3FC,2021-01-07_22h34.31.381,MetaAwareness,2020.1.2,Win32,60,3PZDSVZ3J6KKMYZHOTTL20FJFHD4N1,A1EALXRSH6N3FC,3IXEICO793MZII69UFDEWG0DQ1WT6T,7IXI2,7IXI2,3IXEICO793MZII69UFDEWG0DQ1WT6T,3IXEICO793MZII69UFDEWG0DQ1WT6T,267902,267902,,,,,,,,,,
,,,,1,7.229045,0,19,19,78,1,"there is a crowd enjoying a musical performance at an outdoor theathe, there are blankets spread on the ground to sit on.",there is a crowd enjoying a musical performance at an outdoor theater.,wolfe1,image-014,2,29,A1EALXRSH6N3FC,2021-01-07_22h34.31.381,MetaAwareness,2020.1.2,Win32,60,3PZDSVZ3J6KKMYZHOTTL20FJFHD4N1,A1EALXRSH6N3FC,3IXEICO793MZII69UFDEWG0DQ1WT6T,7IXI2,7IXI2,3IXEICO793MZII69UFDEWG0DQ1WT6T,3IXEICO793MZII69UFDEWG0DQ1WT6T,267902,267902,,,,,,,,,,
,,,,1,8.389465,0,20,20,79,1,people gather at a park to watch a concert while a blanket is spread out on the lawn but unoccupied,people gather at a park to watch a concert in the grass,wolfe1,image-014,3,29,A1EALXRSH6N3FC,2021-01-07_22h34.31.381,MetaAwareness,2020.1.2,Win32,60,3PZDSVZ3J6KKMYZHOTTL20FJFHD4N1,A1EALXRSH6N3FC,3IXEICO793MZII69UFDEWG0DQ1WT6T,7IXI2,7IXI2,3IXEICO793MZII69UFDEWG0DQ1WT6T,3IXEICO793MZII69UFDEWG0DQ1WT6T,267902,267902,,,,,,,,,,
,,,,4,10.256705,0,21,21,451,1,a blue candle sits in a bowl with other colorful candles,a purple candle sits on a bowl with other colorful candles,wolfe1,image-107,1,29,A1EALXRSH6N3FC,2021-01-07_22h34.31.381,MetaAwareness,2020.1.2,Win32,60,3PZDSVZ3J6KKMYZHOTTL20FJFHD4N1,A1EALXRSH6N3FC,3IXEICO793MZII69UFDEWG0DQ1WT6T,7IXI2,7IXI2,3IXEICO793MZII69UFDEWG0DQ1WT6T,3IXEICO793MZII69UFDEWG0DQ1WT6T,267902,267902,,,,,,,,,,
,,,,1,15.568785,0,22,22,98,1,"a group of four men stand on a golf course, and one of them is getting ready to swing, and there is a peg in the ground behind him","a group of four men stand on a gold course, and one of them is getting ready to swing",wolfe1,image-017,4,29,A1EALXRSH6N3FC,2021-01-07_22h34.31.381,MetaAwareness,2020.1.2,Win32,60,3PZDSVZ3J6KKMYZHOTTL20FJFHD4N1,A1EALXRSH6N3FC,3IXEICO793MZII69UFDEWG0DQ1WT6T,7IXI2,7IXI2,3IXEICO793MZII69UFDEWG0DQ1WT6T,3IXEICO793MZII69UFDEWG0DQ1WT6T,267902,267902,,,,,,,,,,
,,,,2,7.29164,0,23,23,27,1,a group of graduates celebrate in front of a bench.,a group of grdsuates celebrate the abscence of a bench.,wolfe1,image-005,6,29,A1EALXRSH6N3FC,2021-01-07_22h34.31.381,MetaAwareness,2020.1.2,Win32,60,3PZDSVZ3J6KKMYZHOTTL20FJFHD4N1,A1EALXRSH6N3FC,3IXEICO793MZII69UFDEWG0DQ1WT6T,7IXI2,7IXI2,3IXEICO793MZII69UFDEWG0DQ1WT6T,3IXEICO793MZII69UFDEWG0DQ1WT6T,267902,267902,,,,,,,,,,
,,,,5,21.11413,0,24,24,552,1,a blue bag leaning against a sign post on a street,a yellow bag leaning against a post on a street,wolfe1,image-125,1,29,A1EALXRSH6N3FC,2021-01-07_22h34.31.381,MetaAwareness,2020.1.2,Win32,60,3PZDSVZ3J6KKMYZHOTTL20FJFHD4N1,A1EALXRSH6N3FC,3IXEICO793MZII69UFDEWG0DQ1WT6T,7IXI2,7IXI2,3IXEICO793MZII69UFDEWG0DQ1WT6T,3IXEICO793MZII69UFDEWG0DQ1WT6T,267902,267902,,,,,,,,,,
,,,,2,8.806075,0,25,25,490,1,"a city street lined with stores, one with pink dresses hanging over it","a city street lined with stores, one with black and yellow dresses hanging over it",wolfe1,image-113,5,29,A1EALXRSH6N3FC,2021-01-07_22h34.31.381,MetaAwareness,2020.1.2,Win32,60,3PZDSVZ3J6KKMYZHOTTL20FJFHD4N1,A1EALXRSH6N3FC,3IXEICO793MZII69UFDEWG0DQ1WT6T,7IXI2,7IXI2,3IXEICO793MZII69UFDEWG0DQ1WT6T,3IXEICO793MZII69UFDEWG0DQ1WT6T,267902,267902,,,,,,,,,,
,,,,4,16.300365,0,26,26,111,1,there is a blue lawn chair right beside the yellow kayak,there is open sand behind the yellow kayak,wolfe1,image-018,8,29,A1EALXRSH6N3FC,2021-01-07_22h34.31.381,MetaAwareness,2020.1.2,Win32,60,3PZDSVZ3J6KKMYZHOTTL20FJFHD4N1,A1EALXRSH6N3FC,3IXEICO793MZII69UFDEWG0DQ1WT6T,7IXI2,7IXI2,3IXEICO793MZII69UFDEWG0DQ1WT6T,3IXEICO793MZII69UFDEWG0DQ1WT6T,267902,267902,,,,,,,,,,
,,,,5,9.932005,0,27,27,383,1,two college students walking outside. the female student is carrying a black backpack with a blue label.,two college students walking outside. the female student is carrying a black backpack with a green label.,wolfe1,image-094,8,29,A1EALXRSH6N3FC,2021-01-07_22h34.31.381,MetaAwareness,2020.1.2,Win32,60,3PZDSVZ3J6KKMYZHOTTL20FJFHD4N1,A1EALXRSH6N3FC,3IXEICO793MZII69UFDEWG0DQ1WT6T,7IXI2,7IXI2,3IXEICO793MZII69UFDEWG0DQ1WT6T,3IXEICO793MZII69UFDEWG0DQ1WT6T,267902,267902,,,,,,,,,,
,,,,2,11.31139,0,28,28,168,1,a troop of boy scouts cross a street with the lead kid wearing badges,a troop of boy scouts cross a street with the lead kid not wearing badges,wolfe1,image-031,1,29,A1EALXRSH6N3FC,2021-01-07_22h34.31.381,MetaAwareness,2020.1.2,Win32,60,3PZDSVZ3J6KKMYZHOTTL20FJFHD4N1,A1EALXRSH6N3FC,3IXEICO793MZII69UFDEWG0DQ1WT6T,7IXI2,7IXI2,3IXEICO793MZII69UFDEWG0DQ1WT6T,3IXEICO793MZII69UFDEWG0DQ1WT6T,267902,267902,,,,,,,,,,
,,,,4,23.21673,0,29,29,226,1,"a red brick factory is next to a small pond and wild area, with a rock sticking out of the pond.","a red brick factory is next to a small pond and wild area, with the pond being clear of rocks.",wolfe1,image-041,4,29,A1EALXRSH6N3FC,2021-01-07_22h34.31.381,MetaAwareness,2020.1.2,Win32,60,3PZDSVZ3J6KKMYZHOTTL20FJFHD4N1,A1EALXRSH6N3FC,3IXEICO793MZII69UFDEWG0DQ1WT6T,7IXI2,7IXI2,3IXEICO793MZII69UFDEWG0DQ1WT6T,3IXEICO793MZII69UFDEWG0DQ1WT6T,267902,267902,,,,,,,,,,
,,,,,,,,,,,,,,,,29,A1EALXRSH6N3FC,2021-01-07_22h34.31.381,MetaAwareness,2020.1.2,Win32,60,3PZDSVZ3J6KKMYZHOTTL20FJFHD4N1,A1EALXRSH6N3FC,3IXEICO793MZII69UFDEWG0DQ1WT6T,7IXI2,7IXI2,3IXEICO793MZII69UFDEWG0DQ1WT6T,3IXEICO793MZII69UFDEWG0DQ1WT6T,267902,267902,6,20.909105,someone laying underneath a blue beach umbrella on a crowded beach,someone laying underneath a blue beach umbrella on a crowded beach,same,1,4.00028,members of a marching band crossing a track that all have feather plumes at the front of their hats,a cluttered and rustic looking cafe with 10 hanging lights,different
