consent_response.keys,consent_response.rt,key_resp_2.keys,key_resp_2.rt,user_resp.keys,user_resp.rt,trials.thisRepN,trials.thisTrialN,trials.thisN,trials.thisIndex,trials.ran,image_1_text,image_2_text,database,image,number,age,worker_ID,date,expName,psychopyVersion,OS,frameRate,hitId,workerId,assignmentId,a,tp_a,b,tp_b,c,tp_c,catch_same_resp.keys,catch_same_resp.rt,image_1_text_catch_same,image_2_text_catch_same,image_catch_same,catch_different_resp.keys,catch_different_resp.rt,image_1_text_catch_different,image_2_text_catch_different,image_catch_different
space,271.444,space,1.263,5,8.278,0,0,0,393,1,in the classroom there is a blue box under the table,in the classroom there is a green box under the table.,wolfe1,image-096,1,33,A2G8GY8B9AE72O,2021-01-07_18h32.13.164,MetaAwareness,2020.1.2,Win32,60,3ZC62PVYDIDGWU1VAAIZXD3FAQPXXQ,A2G8GY8B9AE72O,3P4RDNWND69LXZ55KM8ZRD391PQJIW,ND4P2,ND4P2,3P4RDNWND69LXZ55KM8ZRD391PQJIW,3P4RDNWND69LXZ55KM8ZRD391PQJIW,267902,267902,,,,,,,,,,
,,,,5,2.896,0,1,1,296,1,group of people following a tour guide. one man with a blue striped shirt looks off at one of the local clothing stores.,group of people following a tour guide. one man with a green striped shirt looks off at one of the local clothing stores.,wolfe1,image-078,2,33,A2G8GY8B9AE72O,2021-01-07_18h32.13.164,MetaAwareness,2020.1.2,Win32,60,3ZC62PVYDIDGWU1VAAIZXD3FAQPXXQ,A2G8GY8B9AE72O,3P4RDNWND69LXZ55KM8ZRD391PQJIW,ND4P2,ND4P2,3P4RDNWND69LXZ55KM8ZRD391PQJIW,3P4RDNWND69LXZ55KM8ZRD391PQJIW,267902,267902,,,,,,,,,,
,,,,5,2.545,0,2,2,24,1,five students in graduate outfits standing and celebrating in front of a bench,five students in graduate outfits standing and celebrating in front of a patch of grass,wolfe1,image-005,3,33,A2G8GY8B9AE72O,2021-01-07_18h32.13.164,MetaAwareness,2020.1.2,Win32,60,3ZC62PVYDIDGWU1VAAIZXD3FAQPXXQ,A2G8GY8B9AE72O,3P4RDNWND69LXZ55KM8ZRD391PQJIW,ND4P2,ND4P2,3P4RDNWND69LXZ55KM8ZRD391PQJIW,3P4RDNWND69LXZ55KM8ZRD391PQJIW,267902,267902,,,,,,,,,,
,,,,4,2.73,0,3,3,81,1,people are sitting in a field for an outdoor concert with one empty blanket that no one is using,people are sitting in a field for an outdoor concert with a large patch of empty grass to the left side of the stage,wolfe1,image-014,5,33,A2G8GY8B9AE72O,2021-01-07_18h32.13.164,MetaAwareness,2020.1.2,Win32,60,3ZC62PVYDIDGWU1VAAIZXD3FAQPXXQ,A2G8GY8B9AE72O,3P4RDNWND69LXZ55KM8ZRD391PQJIW,ND4P2,ND4P2,3P4RDNWND69LXZ55KM8ZRD391PQJIW,3P4RDNWND69LXZ55KM8ZRD391PQJIW,267902,267902,,,,,,,,,,
,,,,5,3.826,0,4,4,606,1,"there are various people walking down a sidealk in front of a tropicana store, one of them is a woman wearing a red top","there are various people walking down a sidewalk in front of a tropicana store, one of them is a woman wearing a blue top",wolfe1,image-134,1,33,A2G8GY8B9AE72O,2021-01-07_18h32.13.164,MetaAwareness,2020.1.2,Win32,60,3ZC62PVYDIDGWU1VAAIZXD3FAQPXXQ,A2G8GY8B9AE72O,3P4RDNWND69LXZ55KM8ZRD391PQJIW,ND4P2,ND4P2,3P4RDNWND69LXZ55KM8ZRD391PQJIW,3P4RDNWND69LXZ55KM8ZRD391PQJIW,267902,267902,,,,,,,,,,
,,,,6,5.063,0,5,5,360,1,"various people are seaed in outdoor tables, one of them is a woman in a pink jacket","various people are seated in outdoor tables, one of them is a woman in a purple jacket",wolfe1,image-091,1,33,A2G8GY8B9AE72O,2021-01-07_18h32.13.164,MetaAwareness,2020.1.2,Win32,60,3ZC62PVYDIDGWU1VAAIZXD3FAQPXXQ,A2G8GY8B9AE72O,3P4RDNWND69LXZ55KM8ZRD391PQJIW,ND4P2,ND4P2,3P4RDNWND69LXZ55KM8ZRD391PQJIW,3P4RDNWND69LXZ55KM8ZRD391PQJIW,267902,267902,,,,,,,,,,
,,,,6,4.306,0,6,6,332,1,hikers climbing a mountain and a hiker with a yellow shirt is opening a red backpack.,hikers climbing a mountain and a hiker with a yellow shirt opening a green backpack,wolfe1,image-084,6,33,A2G8GY8B9AE72O,2021-01-07_18h32.13.164,MetaAwareness,2020.1.2,Win32,60,3ZC62PVYDIDGWU1VAAIZXD3FAQPXXQ,A2G8GY8B9AE72O,3P4RDNWND69LXZ55KM8ZRD391PQJIW,ND4P2,ND4P2,3P4RDNWND69LXZ55KM8ZRD391PQJIW,3P4RDNWND69LXZ55KM8ZRD391PQJIW,267902,267902,,,,,,,,,,
,,,,6,5.711,0,7,7,297,1,people walking down the street with a man in a blue striped shirt looking at passing storefronts,people walking down the street with a man in a green striped shirt looking at passing storefronts,wolfe1,image-078,3,33,A2G8GY8B9AE72O,2021-01-07_18h32.13.164,MetaAwareness,2020.1.2,Win32,60,3ZC62PVYDIDGWU1VAAIZXD3FAQPXXQ,A2G8GY8B9AE72O,3P4RDNWND69LXZ55KM8ZRD391PQJIW,ND4P2,ND4P2,3P4RDNWND69LXZ55KM8ZRD391PQJIW,3P4RDNWND69LXZ55KM8ZRD391PQJIW,267902,267902,,,,,,,,,,
,,,,5,2.364,0,8,8,267,1,multiple people shoveling and one finds an item in the dirt.,multiple people shoveling dirt.,wolfe1,image-047,7,33,A2G8GY8B9AE72O,2021-01-07_18h32.13.164,MetaAwareness,2020.1.2,Win32,60,3ZC62PVYDIDGWU1VAAIZXD3FAQPXXQ,A2G8GY8B9AE72O,3P4RDNWND69LXZ55KM8ZRD391PQJIW,ND4P2,ND4P2,3P4RDNWND69LXZ55KM8ZRD391PQJIW,3P4RDNWND69LXZ55KM8ZRD391PQJIW,267902,267902,,,,,,,,,,
,,,,6,3.252,0,9,9,168,1,a troop of boy scouts cross a street with the lead kid wearing badges,a troop of boy scouts cross a street with the lead kid not wearing badges,wolfe1,image-031,1,33,A2G8GY8B9AE72O,2021-01-07_18h32.13.164,MetaAwareness,2020.1.2,Win32,60,3ZC62PVYDIDGWU1VAAIZXD3FAQPXXQ,A2G8GY8B9AE72O,3P4RDNWND69LXZ55KM8ZRD391PQJIW,ND4P2,ND4P2,3P4RDNWND69LXZ55KM8ZRD391PQJIW,3P4RDNWND69LXZ55KM8ZRD391PQJIW,267902,267902,,,,,,,,,,
,,,,6,3.143,0,10,10,624,1,people walking near blue umbrella,people walking near yellow umbrella,wolfe1,image-137,2,33,A2G8GY8B9AE72O,2021-01-07_18h32.13.164,MetaAwareness,2020.1.2,Win32,60,3ZC62PVYDIDGWU1VAAIZXD3FAQPXXQ,A2G8GY8B9AE72O,3P4RDNWND69LXZ55KM8ZRD391PQJIW,ND4P2,ND4P2,3P4RDNWND69LXZ55KM8ZRD391PQJIW,3P4RDNWND69LXZ55KM8ZRD391PQJIW,267902,267902,,,,,,,,,,
,,,,4,4.06,0,11,11,550,1,a walk in the park on a gated path along the water with green posts sticking out of the water,a walk in the park on a gated path along the water with green and brown posts sticking out of the water,wolfe1,image-124,6,33,A2G8GY8B9AE72O,2021-01-07_18h32.13.164,MetaAwareness,2020.1.2,Win32,60,3ZC62PVYDIDGWU1VAAIZXD3FAQPXXQ,A2G8GY8B9AE72O,3P4RDNWND69LXZ55KM8ZRD391PQJIW,ND4P2,ND4P2,3P4RDNWND69LXZ55KM8ZRD391PQJIW,3P4RDNWND69LXZ55KM8ZRD391PQJIW,267902,267902,,,,,,,,,,
,,,,6,2.62,0,12,12,223,1,and old red building behind a creek that has lots of rocks on the land and in the water,an old red building behind a creek that has lots of rocks on the land and few in the water,wolfe1,image-041,1,33,A2G8GY8B9AE72O,2021-01-07_18h32.13.164,MetaAwareness,2020.1.2,Win32,60,3ZC62PVYDIDGWU1VAAIZXD3FAQPXXQ,A2G8GY8B9AE72O,3P4RDNWND69LXZ55KM8ZRD391PQJIW,ND4P2,ND4P2,3P4RDNWND69LXZ55KM8ZRD391PQJIW,3P4RDNWND69LXZ55KM8ZRD391PQJIW,267902,267902,,,,,,,,,,
,,,,5,3.696,0,13,13,335,1,at an outdoor restaurant near the beach a man in a purple hat looks out towards the ocean.,at an outdoor restaurant near the beach a man in a green hat looks out towards the ocean.,wolfe1,image-085,2,33,A2G8GY8B9AE72O,2021-01-07_18h32.13.164,MetaAwareness,2020.1.2,Win32,60,3ZC62PVYDIDGWU1VAAIZXD3FAQPXXQ,A2G8GY8B9AE72O,3P4RDNWND69LXZ55KM8ZRD391PQJIW,ND4P2,ND4P2,3P4RDNWND69LXZ55KM8ZRD391PQJIW,3P4RDNWND69LXZ55KM8ZRD391PQJIW,267902,267902,,,,,,,,,,
,,,,5,2.827,0,14,14,316,1,people playing soccer with one wearing blue shoe.,people playing soccer with one person wearing one green shoe.,wolfe1,image-082,1,33,A2G8GY8B9AE72O,2021-01-07_18h32.13.164,MetaAwareness,2020.1.2,Win32,60,3ZC62PVYDIDGWU1VAAIZXD3FAQPXXQ,A2G8GY8B9AE72O,3P4RDNWND69LXZ55KM8ZRD391PQJIW,ND4P2,ND4P2,3P4RDNWND69LXZ55KM8ZRD391PQJIW,3P4RDNWND69LXZ55KM8ZRD391PQJIW,267902,267902,,,,,,,,,,
,,,,6,2.639,0,15,15,553,1,"two surveyors looking at their equipment, with a blue bag of it left on the streetside in case they need it.","two surveyors looking at their equipment, with a yellow bag of it left on the streetside in case they need it.",wolfe1,image-125,2,33,A2G8GY8B9AE72O,2021-01-07_18h32.13.164,MetaAwareness,2020.1.2,Win32,60,3ZC62PVYDIDGWU1VAAIZXD3FAQPXXQ,A2G8GY8B9AE72O,3P4RDNWND69LXZ55KM8ZRD391PQJIW,ND4P2,ND4P2,3P4RDNWND69LXZ55KM8ZRD391PQJIW,3P4RDNWND69LXZ55KM8ZRD391PQJIW,267902,267902,,,,,,,,,,
,,,,4,3.172,0,16,16,275,1,a beach scene with a palm tree. one of the palm fronds is highlighted.,a beach scene with a palm tree. one of the palm fronds is missing.,wolfe1,image-049,4,33,A2G8GY8B9AE72O,2021-01-07_18h32.13.164,MetaAwareness,2020.1.2,Win32,60,3ZC62PVYDIDGWU1VAAIZXD3FAQPXXQ,A2G8GY8B9AE72O,3P4RDNWND69LXZ55KM8ZRD391PQJIW,ND4P2,ND4P2,3P4RDNWND69LXZ55KM8ZRD391PQJIW,3P4RDNWND69LXZ55KM8ZRD391PQJIW,267902,267902,,,,,,,,,,
,,,,4,2.993,0,17,17,7,1,a yard sale in front of a brick house with clothing and a childs to and a blue dress,a yard sale in front of a brick house with clothing and a childs toy,wolfe1,image-002,2,33,A2G8GY8B9AE72O,2021-01-07_18h32.13.164,MetaAwareness,2020.1.2,Win32,60,3ZC62PVYDIDGWU1VAAIZXD3FAQPXXQ,A2G8GY8B9AE72O,3P4RDNWND69LXZ55KM8ZRD391PQJIW,ND4P2,ND4P2,3P4RDNWND69LXZ55KM8ZRD391PQJIW,3P4RDNWND69LXZ55KM8ZRD391PQJIW,267902,267902,,,,,,,,,,
,,,,5,3.144,0,18,18,67,1,a grotto with a fire pit,a grotto without a firepit,wolfe1,image-012,3,33,A2G8GY8B9AE72O,2021-01-07_18h32.13.164,MetaAwareness,2020.1.2,Win32,60,3ZC62PVYDIDGWU1VAAIZXD3FAQPXXQ,A2G8GY8B9AE72O,3P4RDNWND69LXZ55KM8ZRD391PQJIW,ND4P2,ND4P2,3P4RDNWND69LXZ55KM8ZRD391PQJIW,3P4RDNWND69LXZ55KM8ZRD391PQJIW,267902,267902,,,,,,,,,,
,,,,6,3.386,0,19,19,262,1,people digging in a yard with a small indistinguishable object near them,people digging in a yard with no small indistinguishable objects near them,wolfe1,image-047,2,33,A2G8GY8B9AE72O,2021-01-07_18h32.13.164,MetaAwareness,2020.1.2,Win32,60,3ZC62PVYDIDGWU1VAAIZXD3FAQPXXQ,A2G8GY8B9AE72O,3P4RDNWND69LXZ55KM8ZRD391PQJIW,ND4P2,ND4P2,3P4RDNWND69LXZ55KM8ZRD391PQJIW,3P4RDNWND69LXZ55KM8ZRD391PQJIW,267902,267902,,,,,,,,,,
,,,,5,3.157,0,20,20,481,1,"between the planes, there is a truck that is yellow",between the trains there is a truck that is red,wolfe1,image-111,5,33,A2G8GY8B9AE72O,2021-01-07_18h32.13.164,MetaAwareness,2020.1.2,Win32,60,3ZC62PVYDIDGWU1VAAIZXD3FAQPXXQ,A2G8GY8B9AE72O,3P4RDNWND69LXZ55KM8ZRD391PQJIW,ND4P2,ND4P2,3P4RDNWND69LXZ55KM8ZRD391PQJIW,3P4RDNWND69LXZ55KM8ZRD391PQJIW,267902,267902,,,,,,,,,,
,,,,6,3.244,0,21,21,336,1,kids ride bikes at the boardwalk at a beach while a man in a red cap watches them.,kids ride bikes at the boardwalk at a beach while a man in a green cap watches them.,wolfe1,image-085,4,33,A2G8GY8B9AE72O,2021-01-07_18h32.13.164,MetaAwareness,2020.1.2,Win32,60,3ZC62PVYDIDGWU1VAAIZXD3FAQPXXQ,A2G8GY8B9AE72O,3P4RDNWND69LXZ55KM8ZRD391PQJIW,ND4P2,ND4P2,3P4RDNWND69LXZ55KM8ZRD391PQJIW,3P4RDNWND69LXZ55KM8ZRD391PQJIW,267902,267902,,,,,,,,,,
,,,,5,3.042,0,22,22,471,1,strip of bulidings with a red one at the end,strip of buildings with a blue one at the end,wolfe1,image-110,3,33,A2G8GY8B9AE72O,2021-01-07_18h32.13.164,MetaAwareness,2020.1.2,Win32,60,3ZC62PVYDIDGWU1VAAIZXD3FAQPXXQ,A2G8GY8B9AE72O,3P4RDNWND69LXZ55KM8ZRD391PQJIW,ND4P2,ND4P2,3P4RDNWND69LXZ55KM8ZRD391PQJIW,3P4RDNWND69LXZ55KM8ZRD391PQJIW,267902,267902,,,,,,,,,,
,,,,4,2.692,0,23,23,43,1,"a woman petting a deer in an outdoor setting, in the background is a man dressed in black clothing",a woman petting a deer in an outdoor setting,wolfe1,image-008,2,33,A2G8GY8B9AE72O,2021-01-07_18h32.13.164,MetaAwareness,2020.1.2,Win32,60,3ZC62PVYDIDGWU1VAAIZXD3FAQPXXQ,A2G8GY8B9AE72O,3P4RDNWND69LXZ55KM8ZRD391PQJIW,ND4P2,ND4P2,3P4RDNWND69LXZ55KM8ZRD391PQJIW,3P4RDNWND69LXZ55KM8ZRD391PQJIW,267902,267902,,,,,,,,,,
,,,,4,2.892,0,24,24,9,1,a yard sale with a blue shirt and a brown coat hanging up in front of a brick house.,a yard sale with a brown coat hanging up in front of a brick house.,wolfe1,image-002,4,33,A2G8GY8B9AE72O,2021-01-07_18h32.13.164,MetaAwareness,2020.1.2,Win32,60,3ZC62PVYDIDGWU1VAAIZXD3FAQPXXQ,A2G8GY8B9AE72O,3P4RDNWND69LXZ55KM8ZRD391PQJIW,ND4P2,ND4P2,3P4RDNWND69LXZ55KM8ZRD391PQJIW,3P4RDNWND69LXZ55KM8ZRD391PQJIW,267902,267902,,,,,,,,,,
,,,,5,2.937,0,25,25,564,1,woman clearing car with bluw shovel,women clearing car with green shovel,wolfe1,image-127,5,33,A2G8GY8B9AE72O,2021-01-07_18h32.13.164,MetaAwareness,2020.1.2,Win32,60,3ZC62PVYDIDGWU1VAAIZXD3FAQPXXQ,A2G8GY8B9AE72O,3P4RDNWND69LXZ55KM8ZRD391PQJIW,ND4P2,ND4P2,3P4RDNWND69LXZ55KM8ZRD391PQJIW,3P4RDNWND69LXZ55KM8ZRD391PQJIW,267902,267902,,,,,,,,,,
,,,,4,4.564,0,26,26,104,1,"a group camps on a beach, their kayaks and tents and chairs set up on the sand, including one overlooking the horizon.","a group camps on a beach, their kayaks and tents and chairs set up on the sand, though none overlook the horizon.",wolfe1,image-018,1,33,A2G8GY8B9AE72O,2021-01-07_18h32.13.164,MetaAwareness,2020.1.2,Win32,60,3ZC62PVYDIDGWU1VAAIZXD3FAQPXXQ,A2G8GY8B9AE72O,3P4RDNWND69LXZ55KM8ZRD391PQJIW,ND4P2,ND4P2,3P4RDNWND69LXZ55KM8ZRD391PQJIW,3P4RDNWND69LXZ55KM8ZRD391PQJIW,267902,267902,,,,,,,,,,
,,,,6,4.576,0,27,27,144,1,a line up of vendors under tents with two trees behind them,a line up of vendors under tents with one tree behind them,wolfe1,image-025,4,33,A2G8GY8B9AE72O,2021-01-07_18h32.13.164,MetaAwareness,2020.1.2,Win32,60,3ZC62PVYDIDGWU1VAAIZXD3FAQPXXQ,A2G8GY8B9AE72O,3P4RDNWND69LXZ55KM8ZRD391PQJIW,ND4P2,ND4P2,3P4RDNWND69LXZ55KM8ZRD391PQJIW,3P4RDNWND69LXZ55KM8ZRD391PQJIW,267902,267902,,,,,,,,,,
,,,,5,3.149,0,28,28,457,1,a basket of candles with a variety of colors including blue are at a shrine.,a basket of candles with a variety of colors including purple are at a shrine.,wolfe1,image-107,7,33,A2G8GY8B9AE72O,2021-01-07_18h32.13.164,MetaAwareness,2020.1.2,Win32,60,3ZC62PVYDIDGWU1VAAIZXD3FAQPXXQ,A2G8GY8B9AE72O,3P4RDNWND69LXZ55KM8ZRD391PQJIW,ND4P2,ND4P2,3P4RDNWND69LXZ55KM8ZRD391PQJIW,3P4RDNWND69LXZ55KM8ZRD391PQJIW,267902,267902,,,,,,,,,,
,,,,4,2.819,0,29,29,231,1,each of the arches at the top of the building have spires above them,each of the arches at the top of the building have spires above them except one.,wolfe1,image-042,1,33,A2G8GY8B9AE72O,2021-01-07_18h32.13.164,MetaAwareness,2020.1.2,Win32,60,3ZC62PVYDIDGWU1VAAIZXD3FAQPXXQ,A2G8GY8B9AE72O,3P4RDNWND69LXZ55KM8ZRD391PQJIW,ND4P2,ND4P2,3P4RDNWND69LXZ55KM8ZRD391PQJIW,3P4RDNWND69LXZ55KM8ZRD391PQJIW,267902,267902,,,,,,,,,,
,,,,,,,,,,,,,,,,33,A2G8GY8B9AE72O,2021-01-07_18h32.13.164,MetaAwareness,2020.1.2,Win32,60,3ZC62PVYDIDGWU1VAAIZXD3FAQPXXQ,A2G8GY8B9AE72O,3P4RDNWND69LXZ55KM8ZRD391PQJIW,ND4P2,ND4P2,3P4RDNWND69LXZ55KM8ZRD391PQJIW,3P4RDNWND69LXZ55KM8ZRD391PQJIW,267902,267902,6,3.689,someone laying underneath a blue beach umbrella on a crowded beach,someone laying underneath a blue beach umbrella on a crowded beach,same,5,2.801,members of a marching band crossing a track that all have feather plumes at the front of their hats,a cluttered and rustic looking cafe with 10 hanging lights,different
