consent_response.keys,consent_response.rt,key_resp_2.keys,key_resp_2.rt,user_resp.keys,user_resp.rt,trials.thisRepN,trials.thisTrialN,trials.thisN,trials.thisIndex,trials.ran,image_1_text,image_2_text,database,image,number,age,worker_ID,date,expName,psychopyVersion,OS,frameRate,hitId,workerId,assignmentId,a,tp_a,b,tp_b,c,tp_c,catch_same_resp.keys,catch_same_resp.rt,image_1_text_catch_same,image_2_text_catch_same,image_catch_same,catch_different_resp.keys,catch_different_resp.rt,image_1_text_catch_different,image_2_text_catch_different,image_catch_different
space,4.49,space,10.656,3,8.118,0,0,0,564,1,woman clearing car with bluw shovel,women clearing car with green shovel,wolfe1,image-127,5,27,A2NAKIXS3DVGAA,2021-01-07_19h52.32.985,MetaAwareness,2020.1.2,Linux x86_64,60,3GONHBMNHW1U7D26XL4BJH3SBM1MZQ,A2NAKIXS3DVGAA,3KV0LJBBH3OOR6E9D6F0LXWHSFSMRV,BLVK2,BLVK2,3KV0LJBBH3OOR6E9D6F0LXWHSFSMRV,3KV0LJBBH3OOR6E9D6F0LXWHSFSMRV,267902,267902,,,,,,,,,,
,,,,3,6.041,0,1,1,264,1,there is one small thing in the yellow box,there is nothing in the yellow box,wolfe1,image-047,4,27,A2NAKIXS3DVGAA,2021-01-07_19h52.32.985,MetaAwareness,2020.1.2,Linux x86_64,60,3GONHBMNHW1U7D26XL4BJH3SBM1MZQ,A2NAKIXS3DVGAA,3KV0LJBBH3OOR6E9D6F0LXWHSFSMRV,BLVK2,BLVK2,3KV0LJBBH3OOR6E9D6F0LXWHSFSMRV,3KV0LJBBH3OOR6E9D6F0LXWHSFSMRV,267902,267902,,,,,,,,,,
,,,,3,4.728,0,2,2,153,1,people stand onthe street near benches that have drainage vents underneath.,people stand on the street near benches but the middle bench has no drainage vent.,wolfe1,image-027,4,27,A2NAKIXS3DVGAA,2021-01-07_19h52.32.985,MetaAwareness,2020.1.2,Linux x86_64,60,3GONHBMNHW1U7D26XL4BJH3SBM1MZQ,A2NAKIXS3DVGAA,3KV0LJBBH3OOR6E9D6F0LXWHSFSMRV,BLVK2,BLVK2,3KV0LJBBH3OOR6E9D6F0LXWHSFSMRV,3KV0LJBBH3OOR6E9D6F0LXWHSFSMRV,267902,267902,,,,,,,,,,
,,,,3,3.375,0,3,3,14,1,a presentation being held in a basement with one window,a presentation being held in a basement with no windows,wolfe1,image-003,4,27,A2NAKIXS3DVGAA,2021-01-07_19h52.32.985,MetaAwareness,2020.1.2,Linux x86_64,60,3GONHBMNHW1U7D26XL4BJH3SBM1MZQ,A2NAKIXS3DVGAA,3KV0LJBBH3OOR6E9D6F0LXWHSFSMRV,BLVK2,BLVK2,3KV0LJBBH3OOR6E9D6F0LXWHSFSMRV,3KV0LJBBH3OOR6E9D6F0LXWHSFSMRV,267902,267902,,,,,,,,,,
,,,,3,5.187,0,4,4,610,1,"a group of people on a sunny day walk along a boardwalk next to businesses, and there is a woman wearing a red shirt near the tropicana building","a group of people on a sunny day walk along a boardwalk next to businesses, and there is a woman wearing a blue shirt near the topicana building",wolfe1,image-134,5,27,A2NAKIXS3DVGAA,2021-01-07_19h52.32.985,MetaAwareness,2020.1.2,Linux x86_64,60,3GONHBMNHW1U7D26XL4BJH3SBM1MZQ,A2NAKIXS3DVGAA,3KV0LJBBH3OOR6E9D6F0LXWHSFSMRV,BLVK2,BLVK2,3KV0LJBBH3OOR6E9D6F0LXWHSFSMRV,3KV0LJBBH3OOR6E9D6F0LXWHSFSMRV,267902,267902,,,,,,,,,,
,,,,4,10.881,0,5,5,149,1,a living space that is open to the ocean with several pillows on the couch.,a living space that is open to the ocean with several pillows on a blue couch.,wolfe1,image-026,4,27,A2NAKIXS3DVGAA,2021-01-07_19h52.32.985,MetaAwareness,2020.1.2,Linux x86_64,60,3GONHBMNHW1U7D26XL4BJH3SBM1MZQ,A2NAKIXS3DVGAA,3KV0LJBBH3OOR6E9D6F0LXWHSFSMRV,BLVK2,BLVK2,3KV0LJBBH3OOR6E9D6F0LXWHSFSMRV,3KV0LJBBH3OOR6E9D6F0LXWHSFSMRV,267902,267902,,,,,,,,,,
,,,,3,3.816,0,6,6,327,1,one of eight adult hikers is fiddling with his red napsack as they all pause atop a hill,one of eight adult hikers is fiddling with his green napsack as they all pause atop a hill,wolfe1,image-084,1,27,A2NAKIXS3DVGAA,2021-01-07_19h52.32.985,MetaAwareness,2020.1.2,Linux x86_64,60,3GONHBMNHW1U7D26XL4BJH3SBM1MZQ,A2NAKIXS3DVGAA,3KV0LJBBH3OOR6E9D6F0LXWHSFSMRV,BLVK2,BLVK2,3KV0LJBBH3OOR6E9D6F0LXWHSFSMRV,3KV0LJBBH3OOR6E9D6F0LXWHSFSMRV,267902,267902,,,,,,,,,,
,,,,3,5.561,0,7,7,106,1,"there is a beach with people, tents, and kayaks all around. there is a blue chair facing the water.","there is a beach with people, tents, and kayaks all around. there is no blue chair facing the water.",wolfe1,image-018,3,27,A2NAKIXS3DVGAA,2021-01-07_19h52.32.985,MetaAwareness,2020.1.2,Linux x86_64,60,3GONHBMNHW1U7D26XL4BJH3SBM1MZQ,A2NAKIXS3DVGAA,3KV0LJBBH3OOR6E9D6F0LXWHSFSMRV,BLVK2,BLVK2,3KV0LJBBH3OOR6E9D6F0LXWHSFSMRV,3KV0LJBBH3OOR6E9D6F0LXWHSFSMRV,267902,267902,,,,,,,,,,
,,,,3,4.134,0,8,8,492,1,people walking infront of a store with pink decorations hanging off its roof.,people walking infront of a store with yellow decorations hanging off its roof.,wolfe1,image-113,7,27,A2NAKIXS3DVGAA,2021-01-07_19h52.32.985,MetaAwareness,2020.1.2,Linux x86_64,60,3GONHBMNHW1U7D26XL4BJH3SBM1MZQ,A2NAKIXS3DVGAA,3KV0LJBBH3OOR6E9D6F0LXWHSFSMRV,BLVK2,BLVK2,3KV0LJBBH3OOR6E9D6F0LXWHSFSMRV,3KV0LJBBH3OOR6E9D6F0LXWHSFSMRV,267902,267902,,,,,,,,,,
,,,,3,3.271,0,9,9,304,1,the inside of a mall with someone standing infront of a red banner.,the inside of a mall with someone standing infront of a purple banner.,wolfe1,image-079,5,27,A2NAKIXS3DVGAA,2021-01-07_19h52.32.985,MetaAwareness,2020.1.2,Linux x86_64,60,3GONHBMNHW1U7D26XL4BJH3SBM1MZQ,A2NAKIXS3DVGAA,3KV0LJBBH3OOR6E9D6F0LXWHSFSMRV,BLVK2,BLVK2,3KV0LJBBH3OOR6E9D6F0LXWHSFSMRV,3KV0LJBBH3OOR6E9D6F0LXWHSFSMRV,267902,267902,,,,,,,,,,
,,,,3,5.401,0,10,10,581,1,people loading supplies with an orange and blue case onto a helicopter in the snow.,people loading supplies with a blue case onto a helicopter in the snow.,wolfe1,image-130,2,27,A2NAKIXS3DVGAA,2021-01-07_19h52.32.985,MetaAwareness,2020.1.2,Linux x86_64,60,3GONHBMNHW1U7D26XL4BJH3SBM1MZQ,A2NAKIXS3DVGAA,3KV0LJBBH3OOR6E9D6F0LXWHSFSMRV,BLVK2,BLVK2,3KV0LJBBH3OOR6E9D6F0LXWHSFSMRV,3KV0LJBBH3OOR6E9D6F0LXWHSFSMRV,267902,267902,,,,,,,,,,
,,,,3,4.043,0,11,11,553,1,"two surveyors looking at their equipment, with a blue bag of it left on the streetside in case they need it.","two surveyors looking at their equipment, with a yellow bag of it left on the streetside in case they need it.",wolfe1,image-125,2,27,A2NAKIXS3DVGAA,2021-01-07_19h52.32.985,MetaAwareness,2020.1.2,Linux x86_64,60,3GONHBMNHW1U7D26XL4BJH3SBM1MZQ,A2NAKIXS3DVGAA,3KV0LJBBH3OOR6E9D6F0LXWHSFSMRV,BLVK2,BLVK2,3KV0LJBBH3OOR6E9D6F0LXWHSFSMRV,3KV0LJBBH3OOR6E9D6F0LXWHSFSMRV,267902,267902,,,,,,,,,,
,,,,3,4.873,0,12,12,419,1,children playing on a playground with the young girl on the far right wearing a pinkl shirt.,children playing on a playground with the young girl on the far right wearing a orange shirt.,wolfe1,image-101,4,27,A2NAKIXS3DVGAA,2021-01-07_19h52.32.985,MetaAwareness,2020.1.2,Linux x86_64,60,3GONHBMNHW1U7D26XL4BJH3SBM1MZQ,A2NAKIXS3DVGAA,3KV0LJBBH3OOR6E9D6F0LXWHSFSMRV,BLVK2,BLVK2,3KV0LJBBH3OOR6E9D6F0LXWHSFSMRV,3KV0LJBBH3OOR6E9D6F0LXWHSFSMRV,267902,267902,,,,,,,,,,
,,,,3,8.38,0,13,13,176,1,a man in a yellow sportscoat and two women and a child feeding pigeons infront of a castle. there are birds to the right of the boys feet,"a man , two women and a child feeding pigeons in front of a castle, there are no birds to the right of the boys feet.",wolfe1,image-032,2,27,A2NAKIXS3DVGAA,2021-01-07_19h52.32.985,MetaAwareness,2020.1.2,Linux x86_64,60,3GONHBMNHW1U7D26XL4BJH3SBM1MZQ,A2NAKIXS3DVGAA,3KV0LJBBH3OOR6E9D6F0LXWHSFSMRV,BLVK2,BLVK2,3KV0LJBBH3OOR6E9D6F0LXWHSFSMRV,3KV0LJBBH3OOR6E9D6F0LXWHSFSMRV,267902,267902,,,,,,,,,,
,,,,3,4.247,0,14,14,547,1,a pair of people standing and talking next to a body of water with a green pole standing next to them,a pair of people standing and talking next to a body of water with a brown pole standing next to them,wolfe1,image-124,3,27,A2NAKIXS3DVGAA,2021-01-07_19h52.32.985,MetaAwareness,2020.1.2,Linux x86_64,60,3GONHBMNHW1U7D26XL4BJH3SBM1MZQ,A2NAKIXS3DVGAA,3KV0LJBBH3OOR6E9D6F0LXWHSFSMRV,BLVK2,BLVK2,3KV0LJBBH3OOR6E9D6F0LXWHSFSMRV,3KV0LJBBH3OOR6E9D6F0LXWHSFSMRV,267902,267902,,,,,,,,,,
,,,,3,4.708,0,15,15,82,1,people at an outdoor concert venue waiting for the show to start. there is one empty blanket off to the left.,people at an outdoor concert venue waiting for the show to start. there is not an empty blanket anywhere.,wolfe1,image-014,6,27,A2NAKIXS3DVGAA,2021-01-07_19h52.32.985,MetaAwareness,2020.1.2,Linux x86_64,60,3GONHBMNHW1U7D26XL4BJH3SBM1MZQ,A2NAKIXS3DVGAA,3KV0LJBBH3OOR6E9D6F0LXWHSFSMRV,BLVK2,BLVK2,3KV0LJBBH3OOR6E9D6F0LXWHSFSMRV,3KV0LJBBH3OOR6E9D6F0LXWHSFSMRV,267902,267902,,,,,,,,,,
,,,,3,4.723,0,16,16,478,1,two airplanes at an airport with a yellow jet bus between them,two airplanes at an airport with a red jet bus between them,wolfe1,image-111,2,27,A2NAKIXS3DVGAA,2021-01-07_19h52.32.985,MetaAwareness,2020.1.2,Linux x86_64,60,3GONHBMNHW1U7D26XL4BJH3SBM1MZQ,A2NAKIXS3DVGAA,3KV0LJBBH3OOR6E9D6F0LXWHSFSMRV,BLVK2,BLVK2,3KV0LJBBH3OOR6E9D6F0LXWHSFSMRV,3KV0LJBBH3OOR6E9D6F0LXWHSFSMRV,267902,267902,,,,,,,,,,
,,,,3,5.311,0,17,17,615,1,"six people on three camels, the girl on the back of the front camel has a green and white hat","six people on three camels, the girl on the back of the front camel has a purple and white hat",wolfe1,image-135,5,27,A2NAKIXS3DVGAA,2021-01-07_19h52.32.985,MetaAwareness,2020.1.2,Linux x86_64,60,3GONHBMNHW1U7D26XL4BJH3SBM1MZQ,A2NAKIXS3DVGAA,3KV0LJBBH3OOR6E9D6F0LXWHSFSMRV,BLVK2,BLVK2,3KV0LJBBH3OOR6E9D6F0LXWHSFSMRV,3KV0LJBBH3OOR6E9D6F0LXWHSFSMRV,267902,267902,,,,,,,,,,
,,,,3,7.978,0,18,18,186,1,a basketball player gets ready to take a shot from under the eave of a nearby building,a player gets ready to take a shot during a basketball game in the mountains,wolfe1,image-033,5,27,A2NAKIXS3DVGAA,2021-01-07_19h52.32.985,MetaAwareness,2020.1.2,Linux x86_64,60,3GONHBMNHW1U7D26XL4BJH3SBM1MZQ,A2NAKIXS3DVGAA,3KV0LJBBH3OOR6E9D6F0LXWHSFSMRV,BLVK2,BLVK2,3KV0LJBBH3OOR6E9D6F0LXWHSFSMRV,3KV0LJBBH3OOR6E9D6F0LXWHSFSMRV,267902,267902,,,,,,,,,,
,,,,3,4.193,0,19,19,418,1,"a group of kids playing on a swingset, there is a girl in a pink shirt in the lower right","a group of kids playing on a swingset, there is a girl in an orange shirt in the lower right",wolfe1,image-101,3,27,A2NAKIXS3DVGAA,2021-01-07_19h52.32.985,MetaAwareness,2020.1.2,Linux x86_64,60,3GONHBMNHW1U7D26XL4BJH3SBM1MZQ,A2NAKIXS3DVGAA,3KV0LJBBH3OOR6E9D6F0LXWHSFSMRV,BLVK2,BLVK2,3KV0LJBBH3OOR6E9D6F0LXWHSFSMRV,3KV0LJBBH3OOR6E9D6F0LXWHSFSMRV,267902,267902,,,,,,,,,,
,,,,3,4.689,0,20,20,524,1,a pond with a yellow sign.,a pond with a dark orange sign.,wolfe1,image-119,5,27,A2NAKIXS3DVGAA,2021-01-07_19h52.32.985,MetaAwareness,2020.1.2,Linux x86_64,60,3GONHBMNHW1U7D26XL4BJH3SBM1MZQ,A2NAKIXS3DVGAA,3KV0LJBBH3OOR6E9D6F0LXWHSFSMRV,BLVK2,BLVK2,3KV0LJBBH3OOR6E9D6F0LXWHSFSMRV,3KV0LJBBH3OOR6E9D6F0LXWHSFSMRV,267902,267902,,,,,,,,,,
,,,,3,5.329,0,21,21,249,1,a field in front of a scene of hills and mountains with seven rolls of hay next to some trees,a field in front of a scene of hills and mountains with six rolls of hay next to some trees,wolfe1,image-045,3,27,A2NAKIXS3DVGAA,2021-01-07_19h52.32.985,MetaAwareness,2020.1.2,Linux x86_64,60,3GONHBMNHW1U7D26XL4BJH3SBM1MZQ,A2NAKIXS3DVGAA,3KV0LJBBH3OOR6E9D6F0LXWHSFSMRV,BLVK2,BLVK2,3KV0LJBBH3OOR6E9D6F0LXWHSFSMRV,3KV0LJBBH3OOR6E9D6F0LXWHSFSMRV,267902,267902,,,,,,,,,,
,,,,3,7.363,0,22,22,269,1,kids on the side of the house after playing in the standing water,kinds on the side of the house after playing in the grass,wolfe1,image-048,2,27,A2NAKIXS3DVGAA,2021-01-07_19h52.32.985,MetaAwareness,2020.1.2,Linux x86_64,60,3GONHBMNHW1U7D26XL4BJH3SBM1MZQ,A2NAKIXS3DVGAA,3KV0LJBBH3OOR6E9D6F0LXWHSFSMRV,BLVK2,BLVK2,3KV0LJBBH3OOR6E9D6F0LXWHSFSMRV,3KV0LJBBH3OOR6E9D6F0LXWHSFSMRV,267902,267902,,,,,,,,,,
,,,,3,7.863,0,23,23,218,1,boys playing basketball outside a garage with two wall lights visible on the building.,boys playing basketball outside a garage with one wall light visible on the building.,wolfe1,image-040,3,27,A2NAKIXS3DVGAA,2021-01-07_19h52.32.985,MetaAwareness,2020.1.2,Linux x86_64,60,3GONHBMNHW1U7D26XL4BJH3SBM1MZQ,A2NAKIXS3DVGAA,3KV0LJBBH3OOR6E9D6F0LXWHSFSMRV,BLVK2,BLVK2,3KV0LJBBH3OOR6E9D6F0LXWHSFSMRV,3KV0LJBBH3OOR6E9D6F0LXWHSFSMRV,267902,267902,,,,,,,,,,
,,,,3,7.268,0,24,24,221,1,kids playing basketball with an outdoor lamp on the wall behind the basketball goal,kids playing basketball with a red brick wall behind the basketball goal,wolfe1,image-040,6,27,A2NAKIXS3DVGAA,2021-01-07_19h52.32.985,MetaAwareness,2020.1.2,Linux x86_64,60,3GONHBMNHW1U7D26XL4BJH3SBM1MZQ,A2NAKIXS3DVGAA,3KV0LJBBH3OOR6E9D6F0LXWHSFSMRV,BLVK2,BLVK2,3KV0LJBBH3OOR6E9D6F0LXWHSFSMRV,3KV0LJBBH3OOR6E9D6F0LXWHSFSMRV,267902,267902,,,,,,,,,,
,,,,3,7.642,0,25,25,246,1,"seven small barns adorn a grassy countryside that rests near a lake, rolling hills, and a large mountain","six small barns adorn a grassy countryside that rests near a lake, rolling hills, and a large mountain",wolfe1,image-044,4,27,A2NAKIXS3DVGAA,2021-01-07_19h52.32.985,MetaAwareness,2020.1.2,Linux x86_64,60,3GONHBMNHW1U7D26XL4BJH3SBM1MZQ,A2NAKIXS3DVGAA,3KV0LJBBH3OOR6E9D6F0LXWHSFSMRV,BLVK2,BLVK2,3KV0LJBBH3OOR6E9D6F0LXWHSFSMRV,3KV0LJBBH3OOR6E9D6F0LXWHSFSMRV,267902,267902,,,,,,,,,,
,,,,3,6.526,0,26,26,507,1,"a man is receiving a medal for completing a run in front of a ballfield with a building with red shutters,",a man is receiving a medal for completing a run in front of a ballfield with a building with black shutters.,wolfe1,image-116,6,27,A2NAKIXS3DVGAA,2021-01-07_19h52.32.985,MetaAwareness,2020.1.2,Linux x86_64,60,3GONHBMNHW1U7D26XL4BJH3SBM1MZQ,A2NAKIXS3DVGAA,3KV0LJBBH3OOR6E9D6F0LXWHSFSMRV,BLVK2,BLVK2,3KV0LJBBH3OOR6E9D6F0LXWHSFSMRV,3KV0LJBBH3OOR6E9D6F0LXWHSFSMRV,267902,267902,,,,,,,,,,
,,,,4,8.886,0,27,27,468,1,sseveral people outdoors with backpacks,several people outdoors and a bman with a blue backpack,wolfe1,image-109,4,27,A2NAKIXS3DVGAA,2021-01-07_19h52.32.985,MetaAwareness,2020.1.2,Linux x86_64,60,3GONHBMNHW1U7D26XL4BJH3SBM1MZQ,A2NAKIXS3DVGAA,3KV0LJBBH3OOR6E9D6F0LXWHSFSMRV,BLVK2,BLVK2,3KV0LJBBH3OOR6E9D6F0LXWHSFSMRV,3KV0LJBBH3OOR6E9D6F0LXWHSFSMRV,267902,267902,,,,,,,,,,
,,,,3,5.922,0,28,28,356,1,"a busy street with people walking, including a woman with a red shirt","a busy street with people walking, including a woman with a green shirt",wolfe1,image-090,1,27,A2NAKIXS3DVGAA,2021-01-07_19h52.32.985,MetaAwareness,2020.1.2,Linux x86_64,60,3GONHBMNHW1U7D26XL4BJH3SBM1MZQ,A2NAKIXS3DVGAA,3KV0LJBBH3OOR6E9D6F0LXWHSFSMRV,BLVK2,BLVK2,3KV0LJBBH3OOR6E9D6F0LXWHSFSMRV,3KV0LJBBH3OOR6E9D6F0LXWHSFSMRV,267902,267902,,,,,,,,,,
,,,,3,3.479,0,29,29,187,1,people playing basketball outside with a blue awning,people playing basketball outside with a tree in the background,wolfe1,image-033,6,27,A2NAKIXS3DVGAA,2021-01-07_19h52.32.985,MetaAwareness,2020.1.2,Linux x86_64,60,3GONHBMNHW1U7D26XL4BJH3SBM1MZQ,A2NAKIXS3DVGAA,3KV0LJBBH3OOR6E9D6F0LXWHSFSMRV,BLVK2,BLVK2,3KV0LJBBH3OOR6E9D6F0LXWHSFSMRV,3KV0LJBBH3OOR6E9D6F0LXWHSFSMRV,267902,267902,,,,,,,,,,
,,,,,,,,,,,,,,,,27,A2NAKIXS3DVGAA,2021-01-07_19h52.32.985,MetaAwareness,2020.1.2,Linux x86_64,60,3GONHBMNHW1U7D26XL4BJH3SBM1MZQ,A2NAKIXS3DVGAA,3KV0LJBBH3OOR6E9D6F0LXWHSFSMRV,BLVK2,BLVK2,3KV0LJBBH3OOR6E9D6F0LXWHSFSMRV,3KV0LJBBH3OOR6E9D6F0LXWHSFSMRV,267902,267902,6,12.592,someone laying underneath a blue beach umbrella on a crowded beach,someone laying underneath a blue beach umbrella on a crowded beach,same,1,9.663,members of a marching band crossing a track that all have feather plumes at the front of their hats,a cluttered and rustic looking cafe with 10 hanging lights,different
