consent_response.keys,consent_response.rt,key_resp_2.keys,key_resp_2.rt,user_resp.keys,user_resp.rt,trials.thisRepN,trials.thisTrialN,trials.thisN,trials.thisIndex,trials.ran,image_1_text,image_2_text,database,image,number,age,worker_ID,date,expName,psychopyVersion,OS,frameRate,hitId,workerId,assignmentId,a,tp_a,b,tp_b,c,tp_c,catch_same_resp.keys,catch_same_resp.rt,image_1_text_catch_same,image_2_text_catch_same,image_catch_same,catch_different_resp.keys,catch_different_resp.rt,image_1_text_catch_different,image_2_text_catch_different,image_catch_different
space,7.806765,space,9.710775,5,15.484735,0,0,0,437,1,"a group of doctors and or nurses are in a meeting room having a discussion, and one of the men is wearing a light blue button-down dress shirt","a group of doctors and or nurses are in a meeting room having a discussion, and one of the men is wearing a light green button-down dress shirt",wolfe1,image-104,6,37,A3QSJY1FFN0N6V,2021-01-08_10h48.33.080,MetaAwareness,2020.1.2,Win32,60,3VEI3XUCZS0RQPDSFK2QEIVO7AFRPK,A3QSJY1FFN0N6V,36V4Q8R5ZL3OF5Z90RQ0G7MCWWFQMT,5QV62,5QV62,36V4Q8R5ZL3OF5Z90RQ0G7MCWWFQMT,36V4Q8R5ZL3OF5Z90RQ0G7MCWWFQMT,267902,267902,,,,,,,,,,
,,,,4,7.035635,0,1,1,405,1,people walking towards an ancient building with one man wearing green shorts,people walking towards an ancient building with one man wearing brown shorts,wolfe1,image-098,3,37,A3QSJY1FFN0N6V,2021-01-08_10h48.33.080,MetaAwareness,2020.1.2,Win32,60,3VEI3XUCZS0RQPDSFK2QEIVO7AFRPK,A3QSJY1FFN0N6V,36V4Q8R5ZL3OF5Z90RQ0G7MCWWFQMT,5QV62,5QV62,36V4Q8R5ZL3OF5Z90RQ0G7MCWWFQMT,36V4Q8R5ZL3OF5Z90RQ0G7MCWWFQMT,267902,267902,,,,,,,,,,
,,,,3,7.325,0,2,2,182,1,basketball game near a roofed building,basketball game in a park with trees,wolfe1,image-033,1,37,A3QSJY1FFN0N6V,2021-01-08_10h48.33.080,MetaAwareness,2020.1.2,Win32,60,3VEI3XUCZS0RQPDSFK2QEIVO7AFRPK,A3QSJY1FFN0N6V,36V4Q8R5ZL3OF5Z90RQ0G7MCWWFQMT,5QV62,5QV62,36V4Q8R5ZL3OF5Z90RQ0G7MCWWFQMT,36V4Q8R5ZL3OF5Z90RQ0G7MCWWFQMT,267902,267902,,,,,,,,,,
,,,,5,6.97845,0,3,3,167,1,a building front with some stores and a sign for a business.,a building front with some stores.,wolfe1,image-030,4,37,A3QSJY1FFN0N6V,2021-01-08_10h48.33.080,MetaAwareness,2020.1.2,Win32,60,3VEI3XUCZS0RQPDSFK2QEIVO7AFRPK,A3QSJY1FFN0N6V,36V4Q8R5ZL3OF5Z90RQ0G7MCWWFQMT,5QV62,5QV62,36V4Q8R5ZL3OF5Z90RQ0G7MCWWFQMT,36V4Q8R5ZL3OF5Z90RQ0G7MCWWFQMT,267902,267902,,,,,,,,,,
,,,,2,10.437675,0,4,4,281,1,"in the corner of the room beside the door, there is a stack of papers",in the corner of the room there is desk without anything on it,wolfe1,image-050,4,37,A3QSJY1FFN0N6V,2021-01-08_10h48.33.080,MetaAwareness,2020.1.2,Win32,60,3VEI3XUCZS0RQPDSFK2QEIVO7AFRPK,A3QSJY1FFN0N6V,36V4Q8R5ZL3OF5Z90RQ0G7MCWWFQMT,5QV62,5QV62,36V4Q8R5ZL3OF5Z90RQ0G7MCWWFQMT,36V4Q8R5ZL3OF5Z90RQ0G7MCWWFQMT,267902,267902,,,,,,,,,,
,,,,5,7.712965,0,5,5,132,1,3 people running in front of a park with a bench next to a fountain,3 people running in front of a park that has a view of a fountain.,wolfe1,image-022,6,37,A3QSJY1FFN0N6V,2021-01-08_10h48.33.080,MetaAwareness,2020.1.2,Win32,60,3VEI3XUCZS0RQPDSFK2QEIVO7AFRPK,A3QSJY1FFN0N6V,36V4Q8R5ZL3OF5Z90RQ0G7MCWWFQMT,5QV62,5QV62,36V4Q8R5ZL3OF5Z90RQ0G7MCWWFQMT,36V4Q8R5ZL3OF5Z90RQ0G7MCWWFQMT,267902,267902,,,,,,,,,,
,,,,5,5.699625,0,6,6,160,1,a small window panel on the roof af an old building,the roof of a historic old building,wolfe1,image-029,1,37,A3QSJY1FFN0N6V,2021-01-08_10h48.33.080,MetaAwareness,2020.1.2,Win32,60,3VEI3XUCZS0RQPDSFK2QEIVO7AFRPK,A3QSJY1FFN0N6V,36V4Q8R5ZL3OF5Z90RQ0G7MCWWFQMT,5QV62,5QV62,36V4Q8R5ZL3OF5Z90RQ0G7MCWWFQMT,36V4Q8R5ZL3OF5Z90RQ0G7MCWWFQMT,267902,267902,,,,,,,,,,
,,,,4,8.112435,0,7,7,239,1,a modern living room featuring a white vase on a table,a modern living room,wolfe1,image-043,2,37,A3QSJY1FFN0N6V,2021-01-08_10h48.33.080,MetaAwareness,2020.1.2,Win32,60,3VEI3XUCZS0RQPDSFK2QEIVO7AFRPK,A3QSJY1FFN0N6V,36V4Q8R5ZL3OF5Z90RQ0G7MCWWFQMT,5QV62,5QV62,36V4Q8R5ZL3OF5Z90RQ0G7MCWWFQMT,36V4Q8R5ZL3OF5Z90RQ0G7MCWWFQMT,267902,267902,,,,,,,,,,
,,,,4,7.64211,0,8,8,429,1,people walking down the street in the rain including a person wearing green shoes,people walking down the street in the rain including a person wearing red shoes,wolfe1,image-103,3,37,A3QSJY1FFN0N6V,2021-01-08_10h48.33.080,MetaAwareness,2020.1.2,Win32,60,3VEI3XUCZS0RQPDSFK2QEIVO7AFRPK,A3QSJY1FFN0N6V,36V4Q8R5ZL3OF5Z90RQ0G7MCWWFQMT,5QV62,5QV62,36V4Q8R5ZL3OF5Z90RQ0G7MCWWFQMT,36V4Q8R5ZL3OF5Z90RQ0G7MCWWFQMT,267902,267902,,,,,,,,,,
,,,,5,3.50388,0,9,9,440,1,a man attending a meeting wearing a light blue shirt.,a man attending a meeting wearing a green shirt.,wolfe1,image-104,9,37,A3QSJY1FFN0N6V,2021-01-08_10h48.33.080,MetaAwareness,2020.1.2,Win32,60,3VEI3XUCZS0RQPDSFK2QEIVO7AFRPK,A3QSJY1FFN0N6V,36V4Q8R5ZL3OF5Z90RQ0G7MCWWFQMT,5QV62,5QV62,36V4Q8R5ZL3OF5Z90RQ0G7MCWWFQMT,36V4Q8R5ZL3OF5Z90RQ0G7MCWWFQMT,267902,267902,,,,,,,,,,
,,,,6,13.35345,0,10,10,10,1,there are two houses. in the front of one of the houses there appears to be a garage sale. ther are clothes on the yard and hangin from a tree. a blue dress is hanging from the side,"there are two houses. in the front of one of the houses, there appears to be a garage sale. there are clothes on the yard and hanging from the tree.",wolfe1,image-002,5,37,A3QSJY1FFN0N6V,2021-01-08_10h48.33.080,MetaAwareness,2020.1.2,Win32,60,3VEI3XUCZS0RQPDSFK2QEIVO7AFRPK,A3QSJY1FFN0N6V,36V4Q8R5ZL3OF5Z90RQ0G7MCWWFQMT,5QV62,5QV62,36V4Q8R5ZL3OF5Z90RQ0G7MCWWFQMT,36V4Q8R5ZL3OF5Z90RQ0G7MCWWFQMT,267902,267902,,,,,,,,,,
,,,,3,5.544095,0,11,11,301,1,a red sign is displayed in a busy shopping mall,a purple sign is displayed in a busy shopping mall,wolfe1,image-079,2,37,A3QSJY1FFN0N6V,2021-01-08_10h48.33.080,MetaAwareness,2020.1.2,Win32,60,3VEI3XUCZS0RQPDSFK2QEIVO7AFRPK,A3QSJY1FFN0N6V,36V4Q8R5ZL3OF5Z90RQ0G7MCWWFQMT,5QV62,5QV62,36V4Q8R5ZL3OF5Z90RQ0G7MCWWFQMT,36V4Q8R5ZL3OF5Z90RQ0G7MCWWFQMT,267902,267902,,,,,,,,,,
,,,,3,5.784015,0,12,12,592,1,"a living room with two white sofas, a red pillow is used","a living room with two white sofas, a green pillow is used",wolfe1,image-132,1,37,A3QSJY1FFN0N6V,2021-01-08_10h48.33.080,MetaAwareness,2020.1.2,Win32,60,3VEI3XUCZS0RQPDSFK2QEIVO7AFRPK,A3QSJY1FFN0N6V,36V4Q8R5ZL3OF5Z90RQ0G7MCWWFQMT,5QV62,5QV62,36V4Q8R5ZL3OF5Z90RQ0G7MCWWFQMT,36V4Q8R5ZL3OF5Z90RQ0G7MCWWFQMT,267902,267902,,,,,,,,,,
,,,,3,8.727065,0,13,13,275,1,a beach scene with a palm tree. one of the palm fronds is highlighted.,a beach scene with a palm tree. one of the palm fronds is missing.,wolfe1,image-049,4,37,A3QSJY1FFN0N6V,2021-01-08_10h48.33.080,MetaAwareness,2020.1.2,Win32,60,3VEI3XUCZS0RQPDSFK2QEIVO7AFRPK,A3QSJY1FFN0N6V,36V4Q8R5ZL3OF5Z90RQ0G7MCWWFQMT,5QV62,5QV62,36V4Q8R5ZL3OF5Z90RQ0G7MCWWFQMT,36V4Q8R5ZL3OF5Z90RQ0G7MCWWFQMT,267902,267902,,,,,,,,,,
,,,,5,10.628065,0,14,14,2,1,salt and pepper shakers sit atop a wooden dining table of a restaurant outside on a beach overlooking the ocean,wooden dining tables sit atop a wooden floor outside on a beach overlooking the ocean; it is a restaurant with outdoor seating,wolfe1,image-001,3,37,A3QSJY1FFN0N6V,2021-01-08_10h48.33.080,MetaAwareness,2020.1.2,Win32,60,3VEI3XUCZS0RQPDSFK2QEIVO7AFRPK,A3QSJY1FFN0N6V,36V4Q8R5ZL3OF5Z90RQ0G7MCWWFQMT,5QV62,5QV62,36V4Q8R5ZL3OF5Z90RQ0G7MCWWFQMT,36V4Q8R5ZL3OF5Z90RQ0G7MCWWFQMT,267902,267902,,,,,,,,,,
,,,,5,6.821865,0,15,15,194,1,the backyard of a home with green grass and six stones to walk on in the grass.,the backyard of a home with green grass and five stones to walk on in the grass.,wolfe1,image-034,6,37,A3QSJY1FFN0N6V,2021-01-08_10h48.33.080,MetaAwareness,2020.1.2,Win32,60,3VEI3XUCZS0RQPDSFK2QEIVO7AFRPK,A3QSJY1FFN0N6V,36V4Q8R5ZL3OF5Z90RQ0G7MCWWFQMT,5QV62,5QV62,36V4Q8R5ZL3OF5Z90RQ0G7MCWWFQMT,36V4Q8R5ZL3OF5Z90RQ0G7MCWWFQMT,267902,267902,,,,,,,,,,
,,,,2,5.99251,0,16,16,363,1,a lady wearing a red dress enjoys lunch with her friend on a plaza.,a woman wearing a purple dress eats lunch with one of her friends.,wolfe1,image-091,4,37,A3QSJY1FFN0N6V,2021-01-08_10h48.33.080,MetaAwareness,2020.1.2,Win32,60,3VEI3XUCZS0RQPDSFK2QEIVO7AFRPK,A3QSJY1FFN0N6V,36V4Q8R5ZL3OF5Z90RQ0G7MCWWFQMT,5QV62,5QV62,36V4Q8R5ZL3OF5Z90RQ0G7MCWWFQMT,36V4Q8R5ZL3OF5Z90RQ0G7MCWWFQMT,267902,267902,,,,,,,,,,
,,,,5,8.978535,0,17,17,234,1,"a crowd of people walk in front of a fancy temple or church, the top decorated with statues and spires.","a crowd of people walk in front of a fancy temple or church, the top decorated with statues and spires, though one is missing",wolfe1,image-042,4,37,A3QSJY1FFN0N6V,2021-01-08_10h48.33.080,MetaAwareness,2020.1.2,Win32,60,3VEI3XUCZS0RQPDSFK2QEIVO7AFRPK,A3QSJY1FFN0N6V,36V4Q8R5ZL3OF5Z90RQ0G7MCWWFQMT,5QV62,5QV62,36V4Q8R5ZL3OF5Z90RQ0G7MCWWFQMT,36V4Q8R5ZL3OF5Z90RQ0G7MCWWFQMT,267902,267902,,,,,,,,,,
,,,,4,7.6355,0,18,18,449,1,a yellow pillow sits next to many other multi-colored pillows on a tiered area of a room,a light green pillow sits next to many other colored pillows on a tiered area of a room,wolfe1,image-106,4,37,A3QSJY1FFN0N6V,2021-01-08_10h48.33.080,MetaAwareness,2020.1.2,Win32,60,3VEI3XUCZS0RQPDSFK2QEIVO7AFRPK,A3QSJY1FFN0N6V,36V4Q8R5ZL3OF5Z90RQ0G7MCWWFQMT,5QV62,5QV62,36V4Q8R5ZL3OF5Z90RQ0G7MCWWFQMT,36V4Q8R5ZL3OF5Z90RQ0G7MCWWFQMT,267902,267902,,,,,,,,,,
,,,,2,4.990615,0,19,19,369,1,a woman in white sneakers exercises with other seniors,a woman in purple sneakers exercises with other seniors,wolfe1,image-092,6,37,A3QSJY1FFN0N6V,2021-01-08_10h48.33.080,MetaAwareness,2020.1.2,Win32,60,3VEI3XUCZS0RQPDSFK2QEIVO7AFRPK,A3QSJY1FFN0N6V,36V4Q8R5ZL3OF5Z90RQ0G7MCWWFQMT,5QV62,5QV62,36V4Q8R5ZL3OF5Z90RQ0G7MCWWFQMT,36V4Q8R5ZL3OF5Z90RQ0G7MCWWFQMT,267902,267902,,,,,,,,,,
,,,,5,7.497805,0,20,20,317,1,a soccer player with a blue left cleat chases another player for the ball,a soccer player with a green left cleat chases another player for the ball,wolfe1,image-082,2,37,A3QSJY1FFN0N6V,2021-01-08_10h48.33.080,MetaAwareness,2020.1.2,Win32,60,3VEI3XUCZS0RQPDSFK2QEIVO7AFRPK,A3QSJY1FFN0N6V,36V4Q8R5ZL3OF5Z90RQ0G7MCWWFQMT,5QV62,5QV62,36V4Q8R5ZL3OF5Z90RQ0G7MCWWFQMT,36V4Q8R5ZL3OF5Z90RQ0G7MCWWFQMT,267902,267902,,,,,,,,,,
,,,,5,5.739345,0,21,21,397,1,a man is leading a music class with a blue cooler bag underneath the table behind him,a man is leading a music class with a green cooler bag underneath the table behind him,wolfe1,image-096,5,37,A3QSJY1FFN0N6V,2021-01-08_10h48.33.080,MetaAwareness,2020.1.2,Win32,60,3VEI3XUCZS0RQPDSFK2QEIVO7AFRPK,A3QSJY1FFN0N6V,36V4Q8R5ZL3OF5Z90RQ0G7MCWWFQMT,5QV62,5QV62,36V4Q8R5ZL3OF5Z90RQ0G7MCWWFQMT,36V4Q8R5ZL3OF5Z90RQ0G7MCWWFQMT,267902,267902,,,,,,,,,,
,,,,3,7.46535,0,22,22,270,1,a group of african american kids with grass that has a tiny bit of water in it in the background,a group of african american kids with dry grass in the background,wolfe1,image-048,3,37,A3QSJY1FFN0N6V,2021-01-08_10h48.33.080,MetaAwareness,2020.1.2,Win32,60,3VEI3XUCZS0RQPDSFK2QEIVO7AFRPK,A3QSJY1FFN0N6V,36V4Q8R5ZL3OF5Z90RQ0G7MCWWFQMT,5QV62,5QV62,36V4Q8R5ZL3OF5Z90RQ0G7MCWWFQMT,36V4Q8R5ZL3OF5Z90RQ0G7MCWWFQMT,267902,267902,,,,,,,,,,
,,,,3,7.4666,0,23,23,305,1,a mall with storefronts with red in the windows,a mall with storefronts with purple in the windows,wolfe1,image-079,6,37,A3QSJY1FFN0N6V,2021-01-08_10h48.33.080,MetaAwareness,2020.1.2,Win32,60,3VEI3XUCZS0RQPDSFK2QEIVO7AFRPK,A3QSJY1FFN0N6V,36V4Q8R5ZL3OF5Z90RQ0G7MCWWFQMT,5QV62,5QV62,36V4Q8R5ZL3OF5Z90RQ0G7MCWWFQMT,36V4Q8R5ZL3OF5Z90RQ0G7MCWWFQMT,267902,267902,,,,,,,,,,
,,,,4,6.40998,0,24,24,12,1,some people sitting in a room with a curtain on a window,some people in a room with a white wall behind them,wolfe1,image-003,2,37,A3QSJY1FFN0N6V,2021-01-08_10h48.33.080,MetaAwareness,2020.1.2,Win32,60,3VEI3XUCZS0RQPDSFK2QEIVO7AFRPK,A3QSJY1FFN0N6V,36V4Q8R5ZL3OF5Z90RQ0G7MCWWFQMT,5QV62,5QV62,36V4Q8R5ZL3OF5Z90RQ0G7MCWWFQMT,36V4Q8R5ZL3OF5Z90RQ0G7MCWWFQMT,267902,267902,,,,,,,,,,
,,,,5,7.48541,0,25,25,543,1,a group of colorful buildings one with a sign in the window that is red and blue and says succo,a group of colorful buildings one with a sign in the window that is red and says succo,wolfe1,image-123,8,37,A3QSJY1FFN0N6V,2021-01-08_10h48.33.080,MetaAwareness,2020.1.2,Win32,60,3VEI3XUCZS0RQPDSFK2QEIVO7AFRPK,A3QSJY1FFN0N6V,36V4Q8R5ZL3OF5Z90RQ0G7MCWWFQMT,5QV62,5QV62,36V4Q8R5ZL3OF5Z90RQ0G7MCWWFQMT,36V4Q8R5ZL3OF5Z90RQ0G7MCWWFQMT,267902,267902,,,,,,,,,,
,,,,3,5.944025,0,26,26,497,1,"a group of people listening to a concert, with a woman sitting in a green chair.",a group of people listening to a concert and a woman sitting in a purple chair.,wolfe1,image-115,1,37,A3QSJY1FFN0N6V,2021-01-08_10h48.33.080,MetaAwareness,2020.1.2,Win32,60,3VEI3XUCZS0RQPDSFK2QEIVO7AFRPK,A3QSJY1FFN0N6V,36V4Q8R5ZL3OF5Z90RQ0G7MCWWFQMT,5QV62,5QV62,36V4Q8R5ZL3OF5Z90RQ0G7MCWWFQMT,36V4Q8R5ZL3OF5Z90RQ0G7MCWWFQMT,267902,267902,,,,,,,,,,
,,,,3,5.559645,0,27,27,133,1,a mother and child walking in to a glass building thats a clinic with two bushes outside,a mother and child walking in to a glass building thats a clinic that has only 1 bush,wolfe1,image-023,1,37,A3QSJY1FFN0N6V,2021-01-08_10h48.33.080,MetaAwareness,2020.1.2,Win32,60,3VEI3XUCZS0RQPDSFK2QEIVO7AFRPK,A3QSJY1FFN0N6V,36V4Q8R5ZL3OF5Z90RQ0G7MCWWFQMT,5QV62,5QV62,36V4Q8R5ZL3OF5Z90RQ0G7MCWWFQMT,36V4Q8R5ZL3OF5Z90RQ0G7MCWWFQMT,267902,267902,,,,,,,,,,
,,,,3,6.210315,0,28,28,362,1,people sitting at table in front of an office building outside and a woman with long curly hair and a red dress,people sitting at tables in front of an office building outside and a woman with long curly hair and a purple dress,wolfe1,image-091,3,37,A3QSJY1FFN0N6V,2021-01-08_10h48.33.080,MetaAwareness,2020.1.2,Win32,60,3VEI3XUCZS0RQPDSFK2QEIVO7AFRPK,A3QSJY1FFN0N6V,36V4Q8R5ZL3OF5Z90RQ0G7MCWWFQMT,5QV62,5QV62,36V4Q8R5ZL3OF5Z90RQ0G7MCWWFQMT,36V4Q8R5ZL3OF5Z90RQ0G7MCWWFQMT,267902,267902,,,,,,,,,,
,,,,4,7.643305,0,29,29,626,1,beach area with caddy' surfboard and 4 blue umbrellas and 3 yellow umbrellas,beach area with caddy's surfboard and 3 blue umbrellas and 4 yellow umbrellas,wolfe1,image-137,4,37,A3QSJY1FFN0N6V,2021-01-08_10h48.33.080,MetaAwareness,2020.1.2,Win32,60,3VEI3XUCZS0RQPDSFK2QEIVO7AFRPK,A3QSJY1FFN0N6V,36V4Q8R5ZL3OF5Z90RQ0G7MCWWFQMT,5QV62,5QV62,36V4Q8R5ZL3OF5Z90RQ0G7MCWWFQMT,36V4Q8R5ZL3OF5Z90RQ0G7MCWWFQMT,267902,267902,,,,,,,,,,
,,,,,,,,,,,,,,,,37,A3QSJY1FFN0N6V,2021-01-08_10h48.33.080,MetaAwareness,2020.1.2,Win32,60,3VEI3XUCZS0RQPDSFK2QEIVO7AFRPK,A3QSJY1FFN0N6V,36V4Q8R5ZL3OF5Z90RQ0G7MCWWFQMT,5QV62,5QV62,36V4Q8R5ZL3OF5Z90RQ0G7MCWWFQMT,36V4Q8R5ZL3OF5Z90RQ0G7MCWWFQMT,267902,267902,6,6.18827,someone laying underneath a blue beach umbrella on a crowded beach,someone laying underneath a blue beach umbrella on a crowded beach,same,1,5.99784,members of a marching band crossing a track that all have feather plumes at the front of their hats,a cluttered and rustic looking cafe with 10 hanging lights,different
