consent_response.keys,consent_response.rt,key_resp_2.keys,key_resp_2.rt,user_resp.keys,user_resp.rt,trials.thisRepN,trials.thisTrialN,trials.thisN,trials.thisIndex,trials.ran,image_1_text,image_2_text,database,image,number,age,worker_ID,date,expName,psychopyVersion,OS,frameRate,hitId,workerId,assignmentId,a,tp_a,b,tp_b,c,tp_c,catch_same_resp.keys,catch_same_resp.rt,image_1_text_catch_same,image_2_text_catch_same,image_catch_same,catch_different_resp.keys,catch_different_resp.rt,image_1_text_catch_different,image_2_text_catch_different,image_catch_different
space,28.661385,space,4.03477,6,26.87334,0,0,0,615,1,"six people on three camels, the girl on the back of the front camel has a green and white hat","six people on three camels, the girl on the back of the front camel has a purple and white hat",wolfe1,image-135,5,44,AIVH7XIK7SHL,2021-01-07_17h29.42.928,MetaAwareness,2020.1.2,Win32,60,3UOMW19E6E9JRD6QD83HRHRLG9R5CM,AIVH7XIK7SHL,3R5F3LQFV3NLT0LC03OQZ4NLWWVOZA,F35R2,F35R2,3R5F3LQFV3NLT0LC03OQZ4NLWWVOZA,3R5F3LQFV3NLT0LC03OQZ4NLWWVOZA,267902,267902,,,,,,,,,,
,,,,6,3.606415,0,1,1,189,1,a backyard with a patio and black chairs with red cushions and six stepping stones,a backyard with a patio and black chairs  with red cushions and five stepping stones,wolfe1,image-034,1,44,AIVH7XIK7SHL,2021-01-07_17h29.42.928,MetaAwareness,2020.1.2,Win32,60,3UOMW19E6E9JRD6QD83HRHRLG9R5CM,AIVH7XIK7SHL,3R5F3LQFV3NLT0LC03OQZ4NLWWVOZA,F35R2,F35R2,3R5F3LQFV3NLT0LC03OQZ4NLWWVOZA,3R5F3LQFV3NLT0LC03OQZ4NLWWVOZA,267902,267902,,,,,,,,,,
,,,,6,2.712535,0,2,2,105,1,"a beach scene with kayaks, a tent, and an empty blue chair in the foreground",a beach scene with kayaks and a tent in the foreground,wolfe1,image-018,2,44,AIVH7XIK7SHL,2021-01-07_17h29.42.928,MetaAwareness,2020.1.2,Win32,60,3UOMW19E6E9JRD6QD83HRHRLG9R5CM,AIVH7XIK7SHL,3R5F3LQFV3NLT0LC03OQZ4NLWWVOZA,F35R2,F35R2,3R5F3LQFV3NLT0LC03OQZ4NLWWVOZA,3R5F3LQFV3NLT0LC03OQZ4NLWWVOZA,267902,267902,,,,,,,,,,
,,,,6,4.207245,0,3,3,493,1,3 men are standing outside with a blue fence behind them,3 men are standing outside with a yellow fence behind them,wolfe1,image-114,1,44,AIVH7XIK7SHL,2021-01-07_17h29.42.928,MetaAwareness,2020.1.2,Win32,60,3UOMW19E6E9JRD6QD83HRHRLG9R5CM,AIVH7XIK7SHL,3R5F3LQFV3NLT0LC03OQZ4NLWWVOZA,F35R2,F35R2,3R5F3LQFV3NLT0LC03OQZ4NLWWVOZA,3R5F3LQFV3NLT0LC03OQZ4NLWWVOZA,267902,267902,,,,,,,,,,
,,,,4,3.22869,0,4,4,118,1,a man in a blue shirt sits next to a pink and white striped sack at an outdoor festival with many other people.,a  man in a blue shirt sits at an outdoor festival with many other people.,wolfe1,image-020,3,44,AIVH7XIK7SHL,2021-01-07_17h29.42.928,MetaAwareness,2020.1.2,Win32,60,3UOMW19E6E9JRD6QD83HRHRLG9R5CM,AIVH7XIK7SHL,3R5F3LQFV3NLT0LC03OQZ4NLWWVOZA,F35R2,F35R2,3R5F3LQFV3NLT0LC03OQZ4NLWWVOZA,3R5F3LQFV3NLT0LC03OQZ4NLWWVOZA,267902,267902,,,,,,,,,,
,,,,6,4.042055,0,5,5,292,1,"there are a group of people, including police officers, standing in front of a large brick mansion. a woman is holding a blue child's jacket.",there is a group of people standing in front of a large brick mansion. some  of the people are police officers. there is a woman holding a child' yellow jacket.,wolfe1,image-077,2,44,AIVH7XIK7SHL,2021-01-07_17h29.42.928,MetaAwareness,2020.1.2,Win32,60,3UOMW19E6E9JRD6QD83HRHRLG9R5CM,AIVH7XIK7SHL,3R5F3LQFV3NLT0LC03OQZ4NLWWVOZA,F35R2,F35R2,3R5F3LQFV3NLT0LC03OQZ4NLWWVOZA,3R5F3LQFV3NLT0LC03OQZ4NLWWVOZA,267902,267902,,,,,,,,,,
,,,,5,2.94579,0,6,6,390,1,a person hiking along a dirt trail through a green hillside with a red flowering plant to the right,a person hiking along a dirt trail through a green hillside with a yellow flowering plant to the left,wolfe1,image-095,6,44,AIVH7XIK7SHL,2021-01-07_17h29.42.928,MetaAwareness,2020.1.2,Win32,60,3UOMW19E6E9JRD6QD83HRHRLG9R5CM,AIVH7XIK7SHL,3R5F3LQFV3NLT0LC03OQZ4NLWWVOZA,F35R2,F35R2,3R5F3LQFV3NLT0LC03OQZ4NLWWVOZA,3R5F3LQFV3NLT0LC03OQZ4NLWWVOZA,267902,267902,,,,,,,,,,
,,,,4,2.624145,0,7,7,240,1,a minimalistic living room with a vase on the floor.,a minimalistic living room with a carpet and nothing on the floor.,wolfe1,image-043,3,44,AIVH7XIK7SHL,2021-01-07_17h29.42.928,MetaAwareness,2020.1.2,Win32,60,3UOMW19E6E9JRD6QD83HRHRLG9R5CM,AIVH7XIK7SHL,3R5F3LQFV3NLT0LC03OQZ4NLWWVOZA,F35R2,F35R2,3R5F3LQFV3NLT0LC03OQZ4NLWWVOZA,3R5F3LQFV3NLT0LC03OQZ4NLWWVOZA,267902,267902,,,,,,,,,,
,,,,6,2.810765,0,8,8,324,1,six students are in class and there is a red decoration over the right sholder of the second student.,six students are in class and there is a yellow decoration over the right sholder of the second student,wolfe1,image-083,5,44,AIVH7XIK7SHL,2021-01-07_17h29.42.928,MetaAwareness,2020.1.2,Win32,60,3UOMW19E6E9JRD6QD83HRHRLG9R5CM,AIVH7XIK7SHL,3R5F3LQFV3NLT0LC03OQZ4NLWWVOZA,F35R2,F35R2,3R5F3LQFV3NLT0LC03OQZ4NLWWVOZA,3R5F3LQFV3NLT0LC03OQZ4NLWWVOZA,267902,267902,,,,,,,,,,
,,,,4,3.07501,0,9,9,276,1,"a beach alongside a blue ocean where, in the sand, a hammock hands off of two palm trees, with the sn shine obscured by the leaves","a beach alongside a blue ocean where, in the sand, a hammock hangs off of two palm trees, and the sun shining brightly",wolfe1,image-049,5,44,AIVH7XIK7SHL,2021-01-07_17h29.42.928,MetaAwareness,2020.1.2,Win32,60,3UOMW19E6E9JRD6QD83HRHRLG9R5CM,AIVH7XIK7SHL,3R5F3LQFV3NLT0LC03OQZ4NLWWVOZA,F35R2,F35R2,3R5F3LQFV3NLT0LC03OQZ4NLWWVOZA,3R5F3LQFV3NLT0LC03OQZ4NLWWVOZA,267902,267902,,,,,,,,,,
,,,,4,2.41714,0,10,10,91,1,a black object sints on the ground in front of a woman in a brown skirt on a crowded playground,nothing sits on on the ground in front of a woman in a brown skirt on a crowded playground,wolfe1,image-016,2,44,AIVH7XIK7SHL,2021-01-07_17h29.42.928,MetaAwareness,2020.1.2,Win32,60,3UOMW19E6E9JRD6QD83HRHRLG9R5CM,AIVH7XIK7SHL,3R5F3LQFV3NLT0LC03OQZ4NLWWVOZA,F35R2,F35R2,3R5F3LQFV3NLT0LC03OQZ4NLWWVOZA,3R5F3LQFV3NLT0LC03OQZ4NLWWVOZA,267902,267902,,,,,,,,,,
,,,,6,3.324815,0,11,11,484,1,a man in a red shirt walks down a street with a crowd of many people.,a man in a blue shirt walks down a street with a crowd of many people.,wolfe1,image-112,3,44,AIVH7XIK7SHL,2021-01-07_17h29.42.928,MetaAwareness,2020.1.2,Win32,60,3UOMW19E6E9JRD6QD83HRHRLG9R5CM,AIVH7XIK7SHL,3R5F3LQFV3NLT0LC03OQZ4NLWWVOZA,F35R2,F35R2,3R5F3LQFV3NLT0LC03OQZ4NLWWVOZA,3R5F3LQFV3NLT0LC03OQZ4NLWWVOZA,267902,267902,,,,,,,,,,
,,,,4,2.493475,0,12,12,53,1,a person setting up camp in the snow with their supplies spread out and a yellow bucket laying on its side.,a person setting up camp in the snow with their supplies spread out.,wolfe1,image-010,3,44,AIVH7XIK7SHL,2021-01-07_17h29.42.928,MetaAwareness,2020.1.2,Win32,60,3UOMW19E6E9JRD6QD83HRHRLG9R5CM,AIVH7XIK7SHL,3R5F3LQFV3NLT0LC03OQZ4NLWWVOZA,F35R2,F35R2,3R5F3LQFV3NLT0LC03OQZ4NLWWVOZA,3R5F3LQFV3NLT0LC03OQZ4NLWWVOZA,267902,267902,,,,,,,,,,
,,,,4,1.75646,0,13,13,112,1,"a group of people rock climbing, one of the climbers is wearing red",a group of people rock cimbing,wolfe1,image-019,1,44,AIVH7XIK7SHL,2021-01-07_17h29.42.928,MetaAwareness,2020.1.2,Win32,60,3UOMW19E6E9JRD6QD83HRHRLG9R5CM,AIVH7XIK7SHL,3R5F3LQFV3NLT0LC03OQZ4NLWWVOZA,F35R2,F35R2,3R5F3LQFV3NLT0LC03OQZ4NLWWVOZA,3R5F3LQFV3NLT0LC03OQZ4NLWWVOZA,267902,267902,,,,,,,,,,
,,,,6,3.16545,0,14,14,206,1,table with dinner set and white drink holder,table with dinner set and no white drink holder,wolfe1,image-037,5,44,AIVH7XIK7SHL,2021-01-07_17h29.42.928,MetaAwareness,2020.1.2,Win32,60,3UOMW19E6E9JRD6QD83HRHRLG9R5CM,AIVH7XIK7SHL,3R5F3LQFV3NLT0LC03OQZ4NLWWVOZA,F35R2,F35R2,3R5F3LQFV3NLT0LC03OQZ4NLWWVOZA,3R5F3LQFV3NLT0LC03OQZ4NLWWVOZA,267902,267902,,,,,,,,,,
,,,,6,2.20769,0,15,15,311,1,two women wearing black shirts are sitting outside in white plastic chairs. there is a red magazine sitting on a table in front of them,"two women wearing black shirts are sitting outside in white plastic chairs, there is a blue magazine on a table in front of them",wolfe1,image-081,1,44,AIVH7XIK7SHL,2021-01-07_17h29.42.928,MetaAwareness,2020.1.2,Win32,60,3UOMW19E6E9JRD6QD83HRHRLG9R5CM,AIVH7XIK7SHL,3R5F3LQFV3NLT0LC03OQZ4NLWWVOZA,F35R2,F35R2,3R5F3LQFV3NLT0LC03OQZ4NLWWVOZA,3R5F3LQFV3NLT0LC03OQZ4NLWWVOZA,267902,267902,,,,,,,,,,
,,,,6,2.92423,0,16,16,622,1,a fancy rooftop view of a blue house on the streets below.,a fancy rooftop view of a pink house on the streets below.,wolfe1,image-136,7,44,AIVH7XIK7SHL,2021-01-07_17h29.42.928,MetaAwareness,2020.1.2,Win32,60,3UOMW19E6E9JRD6QD83HRHRLG9R5CM,AIVH7XIK7SHL,3R5F3LQFV3NLT0LC03OQZ4NLWWVOZA,F35R2,F35R2,3R5F3LQFV3NLT0LC03OQZ4NLWWVOZA,3R5F3LQFV3NLT0LC03OQZ4NLWWVOZA,267902,267902,,,,,,,,,,
,,,,6,2.233155,0,17,17,567,1,"several people lined up to cliff jump into the water, a boy being pulled out of the water has a purple life jacket on","several people lined up to clidd jump into the water, a boy being pulled out of the water has a green life jacket on",wolfe1,image-128,3,44,AIVH7XIK7SHL,2021-01-07_17h29.42.928,MetaAwareness,2020.1.2,Win32,60,3UOMW19E6E9JRD6QD83HRHRLG9R5CM,AIVH7XIK7SHL,3R5F3LQFV3NLT0LC03OQZ4NLWWVOZA,F35R2,F35R2,3R5F3LQFV3NLT0LC03OQZ4NLWWVOZA,3R5F3LQFV3NLT0LC03OQZ4NLWWVOZA,267902,267902,,,,,,,,,,
,,,,4,3.178235,0,18,18,36,1,maybe a bus stop with cameras light poles and an awning,maybe a bus stop with cameras light poles,wolfe1,image-007,1,44,AIVH7XIK7SHL,2021-01-07_17h29.42.928,MetaAwareness,2020.1.2,Win32,60,3UOMW19E6E9JRD6QD83HRHRLG9R5CM,AIVH7XIK7SHL,3R5F3LQFV3NLT0LC03OQZ4NLWWVOZA,F35R2,F35R2,3R5F3LQFV3NLT0LC03OQZ4NLWWVOZA,3R5F3LQFV3NLT0LC03OQZ4NLWWVOZA,267902,267902,,,,,,,,,,
,,,,5,4.04401,0,19,19,269,1,kids on the side of the house after playing in the standing water,kinds on the side of the house after playing in the grass,wolfe1,image-048,2,44,AIVH7XIK7SHL,2021-01-07_17h29.42.928,MetaAwareness,2020.1.2,Win32,60,3UOMW19E6E9JRD6QD83HRHRLG9R5CM,AIVH7XIK7SHL,3R5F3LQFV3NLT0LC03OQZ4NLWWVOZA,F35R2,F35R2,3R5F3LQFV3NLT0LC03OQZ4NLWWVOZA,3R5F3LQFV3NLT0LC03OQZ4NLWWVOZA,267902,267902,,,,,,,,,,
,,,,6,1.728305,0,20,20,405,1,people walking towards an ancient building with one man wearing green shorts,people walking towards an ancient building with one man wearing brown shorts,wolfe1,image-098,3,44,AIVH7XIK7SHL,2021-01-07_17h29.42.928,MetaAwareness,2020.1.2,Win32,60,3UOMW19E6E9JRD6QD83HRHRLG9R5CM,AIVH7XIK7SHL,3R5F3LQFV3NLT0LC03OQZ4NLWWVOZA,F35R2,F35R2,3R5F3LQFV3NLT0LC03OQZ4NLWWVOZA,3R5F3LQFV3NLT0LC03OQZ4NLWWVOZA,267902,267902,,,,,,,,,,
,,,,5,2.12425,0,21,21,5,1,a table is set at an outdoor cafe next to the sea. the table setting has service for eight and salt and pepper shakers.,a table is set at an outdoor cafe next to the sea. the table setting has service for eight.,wolfe1,image-001,6,44,AIVH7XIK7SHL,2021-01-07_17h29.42.928,MetaAwareness,2020.1.2,Win32,60,3UOMW19E6E9JRD6QD83HRHRLG9R5CM,AIVH7XIK7SHL,3R5F3LQFV3NLT0LC03OQZ4NLWWVOZA,F35R2,F35R2,3R5F3LQFV3NLT0LC03OQZ4NLWWVOZA,3R5F3LQFV3NLT0LC03OQZ4NLWWVOZA,267902,267902,,,,,,,,,,
,,,,4,2.987235,0,22,22,200,1,four sailboats and a lot of jetskees in a large body of water with a large animal i the water,four sailboats and several jetskees in a large body of water with no animal,wolfe1,image-035,3,44,AIVH7XIK7SHL,2021-01-07_17h29.42.928,MetaAwareness,2020.1.2,Win32,60,3UOMW19E6E9JRD6QD83HRHRLG9R5CM,AIVH7XIK7SHL,3R5F3LQFV3NLT0LC03OQZ4NLWWVOZA,F35R2,F35R2,3R5F3LQFV3NLT0LC03OQZ4NLWWVOZA,3R5F3LQFV3NLT0LC03OQZ4NLWWVOZA,267902,267902,,,,,,,,,,
,,,,6,2.5179,0,23,23,544,1,a storefront is next to an apartment building in a hispanic-themed part of a city. the door to the storefront is decorated with a blue sash.,a storefront is next to an apartment building in a hispanic-themed part of a city. the door to the storefront is decorated with a red and blue sash.,wolfe1,image-123,9,44,AIVH7XIK7SHL,2021-01-07_17h29.42.928,MetaAwareness,2020.1.2,Win32,60,3UOMW19E6E9JRD6QD83HRHRLG9R5CM,AIVH7XIK7SHL,3R5F3LQFV3NLT0LC03OQZ4NLWWVOZA,F35R2,F35R2,3R5F3LQFV3NLT0LC03OQZ4NLWWVOZA,3R5F3LQFV3NLT0LC03OQZ4NLWWVOZA,267902,267902,,,,,,,,,,
,,,,6,1.672115,0,24,24,102,1,"three men watching a fourth man at a golf course, where the fourth man is standing in front of a small tee flag and getting ready to hit the ball","three men watching a fourth man at a golf course, where the fourth man is getting ready to hit the ball",wolfe1,image-017,8,44,AIVH7XIK7SHL,2021-01-07_17h29.42.928,MetaAwareness,2020.1.2,Win32,60,3UOMW19E6E9JRD6QD83HRHRLG9R5CM,AIVH7XIK7SHL,3R5F3LQFV3NLT0LC03OQZ4NLWWVOZA,F35R2,F35R2,3R5F3LQFV3NLT0LC03OQZ4NLWWVOZA,3R5F3LQFV3NLT0LC03OQZ4NLWWVOZA,267902,267902,,,,,,,,,,
,,,,6,1.582495,0,25,25,245,1,a landscape with seven buildings on a lush green lawn with mountains in the background,a landscape with six buildings on a lush green lawn with mountains in the background,wolfe1,image-044,3,44,AIVH7XIK7SHL,2021-01-07_17h29.42.928,MetaAwareness,2020.1.2,Win32,60,3UOMW19E6E9JRD6QD83HRHRLG9R5CM,AIVH7XIK7SHL,3R5F3LQFV3NLT0LC03OQZ4NLWWVOZA,F35R2,F35R2,3R5F3LQFV3NLT0LC03OQZ4NLWWVOZA,3R5F3LQFV3NLT0LC03OQZ4NLWWVOZA,267902,267902,,,,,,,,,,
,,,,6,1.548525,0,26,26,109,1,a chair sitting in front of a tent and beside some canoes on the beach.,a sandy beach with a white and yellow tent and some canoes.,wolfe1,image-018,6,44,AIVH7XIK7SHL,2021-01-07_17h29.42.928,MetaAwareness,2020.1.2,Win32,60,3UOMW19E6E9JRD6QD83HRHRLG9R5CM,AIVH7XIK7SHL,3R5F3LQFV3NLT0LC03OQZ4NLWWVOZA,F35R2,F35R2,3R5F3LQFV3NLT0LC03OQZ4NLWWVOZA,3R5F3LQFV3NLT0LC03OQZ4NLWWVOZA,267902,267902,,,,,,,,,,
,,,,6,1.695195,0,27,27,140,1,people walking around a car show including a man in a white shirt passing a trash can in front of a red car,people walking around a car show including a man in a white shirt passing in front of a red car,wolfe1,image-024,4,44,AIVH7XIK7SHL,2021-01-07_17h29.42.928,MetaAwareness,2020.1.2,Win32,60,3UOMW19E6E9JRD6QD83HRHRLG9R5CM,AIVH7XIK7SHL,3R5F3LQFV3NLT0LC03OQZ4NLWWVOZA,F35R2,F35R2,3R5F3LQFV3NLT0LC03OQZ4NLWWVOZA,3R5F3LQFV3NLT0LC03OQZ4NLWWVOZA,267902,267902,,,,,,,,,,
,,,,5,2.20178,0,28,28,24,1,five students in graduate outfits standing and celebrating in front of a bench,five students in graduate outfits standing and celebrating in front of a patch of grass,wolfe1,image-005,3,44,AIVH7XIK7SHL,2021-01-07_17h29.42.928,MetaAwareness,2020.1.2,Win32,60,3UOMW19E6E9JRD6QD83HRHRLG9R5CM,AIVH7XIK7SHL,3R5F3LQFV3NLT0LC03OQZ4NLWWVOZA,F35R2,F35R2,3R5F3LQFV3NLT0LC03OQZ4NLWWVOZA,3R5F3LQFV3NLT0LC03OQZ4NLWWVOZA,267902,267902,,,,,,,,,,
,,,,6,2.154735,0,29,29,508,1,a woman looking at products under a blue tent in a large street farmers market with many other people.,a woman looking at products under a red tent in a large street farmers market with many other people.,wolfe1,image-117,1,44,AIVH7XIK7SHL,2021-01-07_17h29.42.928,MetaAwareness,2020.1.2,Win32,60,3UOMW19E6E9JRD6QD83HRHRLG9R5CM,AIVH7XIK7SHL,3R5F3LQFV3NLT0LC03OQZ4NLWWVOZA,F35R2,F35R2,3R5F3LQFV3NLT0LC03OQZ4NLWWVOZA,3R5F3LQFV3NLT0LC03OQZ4NLWWVOZA,267902,267902,,,,,,,,,,
,,,,,,,,,,,,,,,,44,AIVH7XIK7SHL,2021-01-07_17h29.42.928,MetaAwareness,2020.1.2,Win32,60,3UOMW19E6E9JRD6QD83HRHRLG9R5CM,AIVH7XIK7SHL,3R5F3LQFV3NLT0LC03OQZ4NLWWVOZA,F35R2,F35R2,3R5F3LQFV3NLT0LC03OQZ4NLWWVOZA,3R5F3LQFV3NLT0LC03OQZ4NLWWVOZA,267902,267902,6,1.999285,someone laying underneath a blue beach umbrella on a crowded beach,someone laying underneath a blue beach umbrella on a crowded beach,same,1,5.20716,members of a marching band crossing a track that all have feather plumes at the front of their hats,a cluttered and rustic looking cafe with 10 hanging lights,different
