consent_response.keys,consent_response.rt,key_resp_2.keys,key_resp_2.rt,user_resp.keys,user_resp.rt,trials.thisRepN,trials.thisTrialN,trials.thisN,trials.thisIndex,trials.ran,image_1_text,image_2_text,database,image,number,age,worker_ID,date,expName,psychopyVersion,OS,frameRate,hitId,workerId,assignmentId,a,tp_a,b,tp_b,c,tp_c,catch_same_resp.keys,catch_same_resp.rt,image_1_text_catch_same,image_2_text_catch_same,image_catch_same,catch_different_resp.keys,catch_different_resp.rt,image_1_text_catch_different,image_2_text_catch_different,image_catch_different
space,4.78856,space,14.56231,5,32.107575,0,0,0,374,1,a girl in white shorts is next to a girl with bare legs doing exercises in a gymnasium,a girl wearing white shorts stands to a girl wearing a green sock in a gym where they are all exercising,wolfe1,image-093,5,33,AKZ8SFOAI4RZN,2021-01-07_18h49.38.209,MetaAwareness,2020.1.2,Win32,60,3EGKVCRQFXVYJWO4AACJRUJWTTTBYZ,AKZ8SFOAI4RZN,3UJ1CZ6IZIS2KETG0WYJU5QRSMFS5T,ICJU2,ICJU2,3UJ1CZ6IZIS2KETG0WYJU5QRSMFS5T,3UJ1CZ6IZIS2KETG0WYJU5QRSMFS5T,267902,267902,,,,,,,,,,
,,,,3,9.86322,0,1,1,522,1,people hang out at a park along the water with a yellow flag nearby,people hang out at a park along the water with a red flag nearby,wolfe1,image-119,3,33,AKZ8SFOAI4RZN,2021-01-07_18h49.38.209,MetaAwareness,2020.1.2,Win32,60,3EGKVCRQFXVYJWO4AACJRUJWTTTBYZ,AKZ8SFOAI4RZN,3UJ1CZ6IZIS2KETG0WYJU5QRSMFS5T,ICJU2,ICJU2,3UJ1CZ6IZIS2KETG0WYJU5QRSMFS5T,3UJ1CZ6IZIS2KETG0WYJU5QRSMFS5T,267902,267902,,,,,,,,,,
,,,,3,15.600625,0,2,2,174,1,a scout troop marches in a parade. one of the scouts in front has badges on both sides of her uniform.,a scout troop marches in a parade. one of the scouts in front has badges on one side of her uniform.,wolfe1,image-031,7,33,AKZ8SFOAI4RZN,2021-01-07_18h49.38.209,MetaAwareness,2020.1.2,Win32,60,3EGKVCRQFXVYJWO4AACJRUJWTTTBYZ,AKZ8SFOAI4RZN,3UJ1CZ6IZIS2KETG0WYJU5QRSMFS5T,ICJU2,ICJU2,3UJ1CZ6IZIS2KETG0WYJU5QRSMFS5T,3UJ1CZ6IZIS2KETG0WYJU5QRSMFS5T,267902,267902,,,,,,,,,,
,,,,3,13.4942,0,3,3,540,1,three buildings on a street with a shop that has a green window above a sign,three buildings on a street with a shop that has a red window above a sign,wolfe1,image-123,4,33,AKZ8SFOAI4RZN,2021-01-07_18h49.38.209,MetaAwareness,2020.1.2,Win32,60,3EGKVCRQFXVYJWO4AACJRUJWTTTBYZ,AKZ8SFOAI4RZN,3UJ1CZ6IZIS2KETG0WYJU5QRSMFS5T,ICJU2,ICJU2,3UJ1CZ6IZIS2KETG0WYJU5QRSMFS5T,3UJ1CZ6IZIS2KETG0WYJU5QRSMFS5T,267902,267902,,,,,,,,,,
,,,,3,16.85226,0,4,4,553,1,"two surveyors looking at their equipment, with a blue bag of it left on the streetside in case they need it.","two surveyors looking at their equipment, with a yellow bag of it left on the streetside in case they need it.",wolfe1,image-125,2,33,AKZ8SFOAI4RZN,2021-01-07_18h49.38.209,MetaAwareness,2020.1.2,Win32,60,3EGKVCRQFXVYJWO4AACJRUJWTTTBYZ,AKZ8SFOAI4RZN,3UJ1CZ6IZIS2KETG0WYJU5QRSMFS5T,ICJU2,ICJU2,3UJ1CZ6IZIS2KETG0WYJU5QRSMFS5T,3UJ1CZ6IZIS2KETG0WYJU5QRSMFS5T,267902,267902,,,,,,,,,,
,,,,4,12.137415,0,5,5,465,1,"a group of hikers, with one man wearing a red backpack.",a group of hikers with one man wearing a blue backpack.,wolfe1,image-109,1,33,AKZ8SFOAI4RZN,2021-01-07_18h49.38.209,MetaAwareness,2020.1.2,Win32,60,3EGKVCRQFXVYJWO4AACJRUJWTTTBYZ,AKZ8SFOAI4RZN,3UJ1CZ6IZIS2KETG0WYJU5QRSMFS5T,ICJU2,ICJU2,3UJ1CZ6IZIS2KETG0WYJU5QRSMFS5T,3UJ1CZ6IZIS2KETG0WYJU5QRSMFS5T,267902,267902,,,,,,,,,,
,,,,4,23.79065,0,6,6,325,1,students work at a table in front of a bulletin board with a red decoration,students work at a table in front of a bulletin board with a yellow decoration,wolfe1,image-083,6,33,AKZ8SFOAI4RZN,2021-01-07_18h49.38.209,MetaAwareness,2020.1.2,Win32,60,3EGKVCRQFXVYJWO4AACJRUJWTTTBYZ,AKZ8SFOAI4RZN,3UJ1CZ6IZIS2KETG0WYJU5QRSMFS5T,ICJU2,ICJU2,3UJ1CZ6IZIS2KETG0WYJU5QRSMFS5T,3UJ1CZ6IZIS2KETG0WYJU5QRSMFS5T,267902,267902,,,,,,,,,,
,,,,2,10.08069,0,7,7,43,1,"a woman petting a deer in an outdoor setting, in the background is a man dressed in black clothing",a woman petting a deer in an outdoor setting,wolfe1,image-008,2,33,AKZ8SFOAI4RZN,2021-01-07_18h49.38.209,MetaAwareness,2020.1.2,Win32,60,3EGKVCRQFXVYJWO4AACJRUJWTTTBYZ,AKZ8SFOAI4RZN,3UJ1CZ6IZIS2KETG0WYJU5QRSMFS5T,ICJU2,ICJU2,3UJ1CZ6IZIS2KETG0WYJU5QRSMFS5T,3UJ1CZ6IZIS2KETG0WYJU5QRSMFS5T,267902,267902,,,,,,,,,,
,,,,5,16.163555,0,8,8,11,1,"a group of people are having a discussion in a classroom, there is a curtain over the window in the room.",a group of people are sitting in a classroom having a discussion.,wolfe1,image-003,1,33,AKZ8SFOAI4RZN,2021-01-07_18h49.38.209,MetaAwareness,2020.1.2,Win32,60,3EGKVCRQFXVYJWO4AACJRUJWTTTBYZ,AKZ8SFOAI4RZN,3UJ1CZ6IZIS2KETG0WYJU5QRSMFS5T,ICJU2,ICJU2,3UJ1CZ6IZIS2KETG0WYJU5QRSMFS5T,3UJ1CZ6IZIS2KETG0WYJU5QRSMFS5T,267902,267902,,,,,,,,,,
,,,,2,12.98005,0,9,9,52,1,there was one yellow cloth in the yellow box,there was not placed yellow cloth in the yellow box,wolfe1,image-010,2,33,AKZ8SFOAI4RZN,2021-01-07_18h49.38.209,MetaAwareness,2020.1.2,Win32,60,3EGKVCRQFXVYJWO4AACJRUJWTTTBYZ,AKZ8SFOAI4RZN,3UJ1CZ6IZIS2KETG0WYJU5QRSMFS5T,ICJU2,ICJU2,3UJ1CZ6IZIS2KETG0WYJU5QRSMFS5T,3UJ1CZ6IZIS2KETG0WYJU5QRSMFS5T,267902,267902,,,,,,,,,,
,,,,3,15.35064,0,10,10,306,1,people outdoors with green umbrella,people outdoors with red umbrella,wolfe1,image-080,1,33,AKZ8SFOAI4RZN,2021-01-07_18h49.38.209,MetaAwareness,2020.1.2,Win32,60,3EGKVCRQFXVYJWO4AACJRUJWTTTBYZ,AKZ8SFOAI4RZN,3UJ1CZ6IZIS2KETG0WYJU5QRSMFS5T,ICJU2,ICJU2,3UJ1CZ6IZIS2KETG0WYJU5QRSMFS5T,3UJ1CZ6IZIS2KETG0WYJU5QRSMFS5T,267902,267902,,,,,,,,,,
,,,,4,10.953575,0,11,11,581,1,people loading supplies with an orange and blue case onto a helicopter in the snow.,people loading supplies with a blue case onto a helicopter in the snow.,wolfe1,image-130,2,33,AKZ8SFOAI4RZN,2021-01-07_18h49.38.209,MetaAwareness,2020.1.2,Win32,60,3EGKVCRQFXVYJWO4AACJRUJWTTTBYZ,AKZ8SFOAI4RZN,3UJ1CZ6IZIS2KETG0WYJU5QRSMFS5T,ICJU2,ICJU2,3UJ1CZ6IZIS2KETG0WYJU5QRSMFS5T,3UJ1CZ6IZIS2KETG0WYJU5QRSMFS5T,267902,267902,,,,,,,,,,
,,,,4,11.913505,0,12,12,470,1,a city street with multicolored buildings and a red billboard next to one another.,a city street with multicolored buildings and a blue billboard next to one another.,wolfe1,image-110,2,33,AKZ8SFOAI4RZN,2021-01-07_18h49.38.209,MetaAwareness,2020.1.2,Win32,60,3EGKVCRQFXVYJWO4AACJRUJWTTTBYZ,AKZ8SFOAI4RZN,3UJ1CZ6IZIS2KETG0WYJU5QRSMFS5T,ICJU2,ICJU2,3UJ1CZ6IZIS2KETG0WYJU5QRSMFS5T,3UJ1CZ6IZIS2KETG0WYJU5QRSMFS5T,267902,267902,,,,,,,,,,
,,,,2,11.449825,0,13,13,89,1,two friends with a cardboard cut out posing infront of a garbage can.,two friends posing with a cardboard cutout of a person in a bird suit.,wolfe1,image-015,5,33,AKZ8SFOAI4RZN,2021-01-07_18h49.38.209,MetaAwareness,2020.1.2,Win32,60,3EGKVCRQFXVYJWO4AACJRUJWTTTBYZ,AKZ8SFOAI4RZN,3UJ1CZ6IZIS2KETG0WYJU5QRSMFS5T,ICJU2,ICJU2,3UJ1CZ6IZIS2KETG0WYJU5QRSMFS5T,3UJ1CZ6IZIS2KETG0WYJU5QRSMFS5T,267902,267902,,,,,,,,,,
,,,,5,16.44341,0,14,14,317,1,a soccer player with a blue left cleat chases another player for the ball,a soccer player with a green left cleat chases another player for the ball,wolfe1,image-082,2,33,AKZ8SFOAI4RZN,2021-01-07_18h49.38.209,MetaAwareness,2020.1.2,Win32,60,3EGKVCRQFXVYJWO4AACJRUJWTTTBYZ,AKZ8SFOAI4RZN,3UJ1CZ6IZIS2KETG0WYJU5QRSMFS5T,ICJU2,ICJU2,3UJ1CZ6IZIS2KETG0WYJU5QRSMFS5T,3UJ1CZ6IZIS2KETG0WYJU5QRSMFS5T,267902,267902,,,,,,,,,,
,,,,6,84.24753,0,15,15,224,1,"a mossy, marsh like scene with mountains and blue sky in the background as well as a red, farmlike facility, with one of the marsh rocks in the foreground","a marshlike, rocky setting with water and moutains and a red, farmlike facility in the background and a swatch of lake and plant growth in the foreground",wolfe1,image-041,2,33,AKZ8SFOAI4RZN,2021-01-07_18h49.38.209,MetaAwareness,2020.1.2,Win32,60,3EGKVCRQFXVYJWO4AACJRUJWTTTBYZ,AKZ8SFOAI4RZN,3UJ1CZ6IZIS2KETG0WYJU5QRSMFS5T,ICJU2,ICJU2,3UJ1CZ6IZIS2KETG0WYJU5QRSMFS5T,3UJ1CZ6IZIS2KETG0WYJU5QRSMFS5T,267902,267902,,,,,,,,,,
,,,,5,7.235825,0,16,16,586,1,the instructor shows the children dance moves. one of the children wears a pink skirt.,the instructor shows the children dance moves. one of the children wears a purple skirt.,wolfe1,image-131,1,33,AKZ8SFOAI4RZN,2021-01-07_18h49.38.209,MetaAwareness,2020.1.2,Win32,60,3EGKVCRQFXVYJWO4AACJRUJWTTTBYZ,AKZ8SFOAI4RZN,3UJ1CZ6IZIS2KETG0WYJU5QRSMFS5T,ICJU2,ICJU2,3UJ1CZ6IZIS2KETG0WYJU5QRSMFS5T,3UJ1CZ6IZIS2KETG0WYJU5QRSMFS5T,267902,267902,,,,,,,,,,
,,,,2,12.428575,0,17,17,166,1,there is a somewhat empty sidewalk along a street with shops and a sandwhich board in front of the jewelry shop,there is a somewhat empty sidewalk along a street with shops and no sandwhich boards on the sidewalk,wolfe1,image-030,3,33,AKZ8SFOAI4RZN,2021-01-07_18h49.38.209,MetaAwareness,2020.1.2,Win32,60,3EGKVCRQFXVYJWO4AACJRUJWTTTBYZ,AKZ8SFOAI4RZN,3UJ1CZ6IZIS2KETG0WYJU5QRSMFS5T,ICJU2,ICJU2,3UJ1CZ6IZIS2KETG0WYJU5QRSMFS5T,3UJ1CZ6IZIS2KETG0WYJU5QRSMFS5T,267902,267902,,,,,,,,,,
,,,,3,9.06656,0,18,18,321,1,students using computers with a red object in the background,students using computers with a yellow object in the nbackground,wolfe1,image-083,2,33,AKZ8SFOAI4RZN,2021-01-07_18h49.38.209,MetaAwareness,2020.1.2,Win32,60,3EGKVCRQFXVYJWO4AACJRUJWTTTBYZ,AKZ8SFOAI4RZN,3UJ1CZ6IZIS2KETG0WYJU5QRSMFS5T,ICJU2,ICJU2,3UJ1CZ6IZIS2KETG0WYJU5QRSMFS5T,3UJ1CZ6IZIS2KETG0WYJU5QRSMFS5T,267902,267902,,,,,,,,,,
,,,,3,13.17766,0,19,19,332,1,hikers climbing a mountain and a hiker with a yellow shirt is opening a red backpack.,hikers climbing a mountain and a hiker with a yellow shirt opening a green backpack,wolfe1,image-084,6,33,AKZ8SFOAI4RZN,2021-01-07_18h49.38.209,MetaAwareness,2020.1.2,Win32,60,3EGKVCRQFXVYJWO4AACJRUJWTTTBYZ,AKZ8SFOAI4RZN,3UJ1CZ6IZIS2KETG0WYJU5QRSMFS5T,ICJU2,ICJU2,3UJ1CZ6IZIS2KETG0WYJU5QRSMFS5T,3UJ1CZ6IZIS2KETG0WYJU5QRSMFS5T,267902,267902,,,,,,,,,,
,,,,2,6.292035,0,20,20,14,1,a presentation being held in a basement with one window,a presentation being held in a basement with no windows,wolfe1,image-003,4,33,AKZ8SFOAI4RZN,2021-01-07_18h49.38.209,MetaAwareness,2020.1.2,Win32,60,3EGKVCRQFXVYJWO4AACJRUJWTTTBYZ,AKZ8SFOAI4RZN,3UJ1CZ6IZIS2KETG0WYJU5QRSMFS5T,ICJU2,ICJU2,3UJ1CZ6IZIS2KETG0WYJU5QRSMFS5T,3UJ1CZ6IZIS2KETG0WYJU5QRSMFS5T,267902,267902,,,,,,,,,,
,,,,4,19.361075,0,21,21,246,1,"seven small barns adorn a grassy countryside that rests near a lake, rolling hills, and a large mountain","six small barns adorn a grassy countryside that rests near a lake, rolling hills, and a large mountain",wolfe1,image-044,4,33,AKZ8SFOAI4RZN,2021-01-07_18h49.38.209,MetaAwareness,2020.1.2,Win32,60,3EGKVCRQFXVYJWO4AACJRUJWTTTBYZ,AKZ8SFOAI4RZN,3UJ1CZ6IZIS2KETG0WYJU5QRSMFS5T,ICJU2,ICJU2,3UJ1CZ6IZIS2KETG0WYJU5QRSMFS5T,3UJ1CZ6IZIS2KETG0WYJU5QRSMFS5T,267902,267902,,,,,,,,,,
,,,,4,20.84224,0,22,22,475,1,"a downtown city street with shops and stores, one of which is under a red awning","a downtown city street with shops and stores, one of which is under a blue awning",wolfe1,image-110,7,33,AKZ8SFOAI4RZN,2021-01-07_18h49.38.209,MetaAwareness,2020.1.2,Win32,60,3EGKVCRQFXVYJWO4AACJRUJWTTTBYZ,AKZ8SFOAI4RZN,3UJ1CZ6IZIS2KETG0WYJU5QRSMFS5T,ICJU2,ICJU2,3UJ1CZ6IZIS2KETG0WYJU5QRSMFS5T,3UJ1CZ6IZIS2KETG0WYJU5QRSMFS5T,267902,267902,,,,,,,,,,
,,,,5,10.69991,0,23,23,395,1,a blue cooler sits under a table at a computer room,a green cooler sits under a table at a computer room,wolfe1,image-096,3,33,AKZ8SFOAI4RZN,2021-01-07_18h49.38.209,MetaAwareness,2020.1.2,Win32,60,3EGKVCRQFXVYJWO4AACJRUJWTTTBYZ,AKZ8SFOAI4RZN,3UJ1CZ6IZIS2KETG0WYJU5QRSMFS5T,ICJU2,ICJU2,3UJ1CZ6IZIS2KETG0WYJU5QRSMFS5T,3UJ1CZ6IZIS2KETG0WYJU5QRSMFS5T,267902,267902,,,,,,,,,,
,,,,5,11.936155,0,24,24,124,1,four people and 1 watching shoot bow and arrow  there are 3 extra arrows,four people and 1 watching shoot bow and arrow there are 2 extra arrows,wolfe1,image-021,2,33,AKZ8SFOAI4RZN,2021-01-07_18h49.38.209,MetaAwareness,2020.1.2,Win32,60,3EGKVCRQFXVYJWO4AACJRUJWTTTBYZ,AKZ8SFOAI4RZN,3UJ1CZ6IZIS2KETG0WYJU5QRSMFS5T,ICJU2,ICJU2,3UJ1CZ6IZIS2KETG0WYJU5QRSMFS5T,3UJ1CZ6IZIS2KETG0WYJU5QRSMFS5T,267902,267902,,,,,,,,,,
,,,,3,9.249755,0,25,25,265,1,people are shoveling dirt in a yard with a single flower in it,people are shoveling dirt a yard made of only dirt,wolfe1,image-047,5,33,AKZ8SFOAI4RZN,2021-01-07_18h49.38.209,MetaAwareness,2020.1.2,Win32,60,3EGKVCRQFXVYJWO4AACJRUJWTTTBYZ,AKZ8SFOAI4RZN,3UJ1CZ6IZIS2KETG0WYJU5QRSMFS5T,ICJU2,ICJU2,3UJ1CZ6IZIS2KETG0WYJU5QRSMFS5T,3UJ1CZ6IZIS2KETG0WYJU5QRSMFS5T,267902,267902,,,,,,,,,,
,,,,2,4.802645,0,26,26,229,1,a factory near a lake with rocks,a factory near a lake with no rocks in it,wolfe1,image-041,7,33,AKZ8SFOAI4RZN,2021-01-07_18h49.38.209,MetaAwareness,2020.1.2,Win32,60,3EGKVCRQFXVYJWO4AACJRUJWTTTBYZ,AKZ8SFOAI4RZN,3UJ1CZ6IZIS2KETG0WYJU5QRSMFS5T,ICJU2,ICJU2,3UJ1CZ6IZIS2KETG0WYJU5QRSMFS5T,3UJ1CZ6IZIS2KETG0WYJU5QRSMFS5T,267902,267902,,,,,,,,,,
,,,,3,15.222105,0,27,27,135,1,an adult and a child are walking into a clinic that has shrubs on both sides of the entrance,an adult and child are walking into a clinic that has a shrub on one side of the entrance,wolfe1,image-023,3,33,AKZ8SFOAI4RZN,2021-01-07_18h49.38.209,MetaAwareness,2020.1.2,Win32,60,3EGKVCRQFXVYJWO4AACJRUJWTTTBYZ,AKZ8SFOAI4RZN,3UJ1CZ6IZIS2KETG0WYJU5QRSMFS5T,ICJU2,ICJU2,3UJ1CZ6IZIS2KETG0WYJU5QRSMFS5T,3UJ1CZ6IZIS2KETG0WYJU5QRSMFS5T,267902,267902,,,,,,,,,,
,,,,4,8.23874,0,28,28,365,1,a group exercise event where one of the participants is wearing white shoes,a group exercise event where one of the participants is wearing purple shoes,wolfe1,image-092,2,33,AKZ8SFOAI4RZN,2021-01-07_18h49.38.209,MetaAwareness,2020.1.2,Win32,60,3EGKVCRQFXVYJWO4AACJRUJWTTTBYZ,AKZ8SFOAI4RZN,3UJ1CZ6IZIS2KETG0WYJU5QRSMFS5T,ICJU2,ICJU2,3UJ1CZ6IZIS2KETG0WYJU5QRSMFS5T,3UJ1CZ6IZIS2KETG0WYJU5QRSMFS5T,267902,267902,,,,,,,,,,
,,,,4,8.98868,0,29,29,579,1,a woman standing on the sidewalk wearing a pair of blue jeans.,a woman standing on the sidewalk wearing a pair of grey jeans.,wolfe1,image-129,10,33,AKZ8SFOAI4RZN,2021-01-07_18h49.38.209,MetaAwareness,2020.1.2,Win32,60,3EGKVCRQFXVYJWO4AACJRUJWTTTBYZ,AKZ8SFOAI4RZN,3UJ1CZ6IZIS2KETG0WYJU5QRSMFS5T,ICJU2,ICJU2,3UJ1CZ6IZIS2KETG0WYJU5QRSMFS5T,3UJ1CZ6IZIS2KETG0WYJU5QRSMFS5T,267902,267902,,,,,,,,,,
,,,,,,,,,,,,,,,,33,AKZ8SFOAI4RZN,2021-01-07_18h49.38.209,MetaAwareness,2020.1.2,Win32,60,3EGKVCRQFXVYJWO4AACJRUJWTTTBYZ,AKZ8SFOAI4RZN,3UJ1CZ6IZIS2KETG0WYJU5QRSMFS5T,ICJU2,ICJU2,3UJ1CZ6IZIS2KETG0WYJU5QRSMFS5T,3UJ1CZ6IZIS2KETG0WYJU5QRSMFS5T,267902,267902,6,17.786445,someone laying underneath a blue beach umbrella on a crowded beach,someone laying underneath a blue beach umbrella on a crowded beach,same,1,11.766885,members of a marching band crossing a track that all have feather plumes at the front of their hats,a cluttered and rustic looking cafe with 10 hanging lights,different
