consent_response.keys,consent_response.rt,key_resp_2.keys,key_resp_2.rt,user_resp.keys,user_resp.rt,trials.thisRepN,trials.thisTrialN,trials.thisN,trials.thisIndex,trials.ran,image_1_text,image_2_text,database,image,number,age,worker_ID,date,expName,psychopyVersion,OS,frameRate,hitId,workerId,assignmentId,a,tp_a,b,tp_b,c,tp_c,catch_same_resp.keys,catch_same_resp.rt,image_1_text_catch_same,image_2_text_catch_same,image_catch_same,catch_different_resp.keys,catch_different_resp.rt,image_1_text_catch_different,image_2_text_catch_different,image_catch_different
space,11.33194,space,15.531515,6,15.275175,0,0,0,388,1,a hiker on a dusty mountain trail passes red wildflowers on his left,a hiker on a dusty mauntain trail passes yellow wildflowers on his left.,wolfe1,image-095,4,34,AW0MG225VXWCN,2021-01-07_18h43.16.806,MetaAwareness,2020.1.2,Win32,60,3GONHBMNHW1U7D26XL4BJH3SBM1MZQ,AW0MG225VXWCN,3S3AMIZX3V8HHAJDIGQ2DCA1J0XCDX,XM3S2,XM3S2,3S3AMIZX3V8HHAJDIGQ2DCA1J0XCDX,3S3AMIZX3V8HHAJDIGQ2DCA1J0XCDX,267902,267902,,,,,,,,,,
,,,,5,11.02212,0,1,1,410,1,men in pink robes are performing a ritual while a group including a man in an orange jacket watch,men in pink robes are performing a ritaul while a group including a man in a green jacket watch,wolfe1,image-099,3,34,AW0MG225VXWCN,2021-01-07_18h43.16.806,MetaAwareness,2020.1.2,Win32,60,3GONHBMNHW1U7D26XL4BJH3SBM1MZQ,AW0MG225VXWCN,3S3AMIZX3V8HHAJDIGQ2DCA1J0XCDX,XM3S2,XM3S2,3S3AMIZX3V8HHAJDIGQ2DCA1J0XCDX,3S3AMIZX3V8HHAJDIGQ2DCA1J0XCDX,267902,267902,,,,,,,,,,
,,,,5,7.64996,0,2,2,530,1,"a boat on a lake, with mountains visible in the background, with red devices on the side of the boat","a boat on a lake, with mountains visible in the background, with red and green devices on the side of the boat",wolfe1,image-121,2,34,AW0MG225VXWCN,2021-01-07_18h43.16.806,MetaAwareness,2020.1.2,Win32,60,3GONHBMNHW1U7D26XL4BJH3SBM1MZQ,AW0MG225VXWCN,3S3AMIZX3V8HHAJDIGQ2DCA1J0XCDX,XM3S2,XM3S2,3S3AMIZX3V8HHAJDIGQ2DCA1J0XCDX,3S3AMIZX3V8HHAJDIGQ2DCA1J0XCDX,267902,267902,,,,,,,,,,
,,,,5,8.252625,0,3,3,163,1,"a university building with seven windows on the roof, a person walking a path, and many bikes in the foreground.","a university building with six windows on the roof, a person walking a path, and many bikes in the foreground.",wolfe1,image-029,4,34,AW0MG225VXWCN,2021-01-07_18h43.16.806,MetaAwareness,2020.1.2,Win32,60,3GONHBMNHW1U7D26XL4BJH3SBM1MZQ,AW0MG225VXWCN,3S3AMIZX3V8HHAJDIGQ2DCA1J0XCDX,XM3S2,XM3S2,3S3AMIZX3V8HHAJDIGQ2DCA1J0XCDX,3S3AMIZX3V8HHAJDIGQ2DCA1J0XCDX,267902,267902,,,,,,,,,,
,,,,5,4.45293,0,4,4,150,1,each bench in the park has a plaquard.,"each bench in the park has a plaquard, except one.",wolfe1,image-027,1,34,AW0MG225VXWCN,2021-01-07_18h43.16.806,MetaAwareness,2020.1.2,Win32,60,3GONHBMNHW1U7D26XL4BJH3SBM1MZQ,AW0MG225VXWCN,3S3AMIZX3V8HHAJDIGQ2DCA1J0XCDX,XM3S2,XM3S2,3S3AMIZX3V8HHAJDIGQ2DCA1J0XCDX,3S3AMIZX3V8HHAJDIGQ2DCA1J0XCDX,267902,267902,,,,,,,,,,
,,,,2,24.5485,0,5,5,27,1,a group of graduates celebrate in front of a bench.,a group of grdsuates celebrate the abscence of a bench.,wolfe1,image-005,6,34,AW0MG225VXWCN,2021-01-07_18h43.16.806,MetaAwareness,2020.1.2,Win32,60,3GONHBMNHW1U7D26XL4BJH3SBM1MZQ,AW0MG225VXWCN,3S3AMIZX3V8HHAJDIGQ2DCA1J0XCDX,XM3S2,XM3S2,3S3AMIZX3V8HHAJDIGQ2DCA1J0XCDX,3S3AMIZX3V8HHAJDIGQ2DCA1J0XCDX,267902,267902,,,,,,,,,,
,,,,4,9.101675,0,6,6,408,1,a group of people wearing red robes while a man in an orange jacket watches,a group of people wearing red robes while a man in a green jacket watches,wolfe1,image-099,1,34,AW0MG225VXWCN,2021-01-07_18h43.16.806,MetaAwareness,2020.1.2,Win32,60,3GONHBMNHW1U7D26XL4BJH3SBM1MZQ,AW0MG225VXWCN,3S3AMIZX3V8HHAJDIGQ2DCA1J0XCDX,XM3S2,XM3S2,3S3AMIZX3V8HHAJDIGQ2DCA1J0XCDX,3S3AMIZX3V8HHAJDIGQ2DCA1J0XCDX,267902,267902,,,,,,,,,,
,,,,4,13.15703,0,7,7,370,1,several students in a school gym taking part in an exercise class. one student is wearing pink pants.,"several students in a school gym taking part in an exercise class, one student is wearing blue pants.",wolfe1,image-093,1,34,AW0MG225VXWCN,2021-01-07_18h43.16.806,MetaAwareness,2020.1.2,Win32,60,3GONHBMNHW1U7D26XL4BJH3SBM1MZQ,AW0MG225VXWCN,3S3AMIZX3V8HHAJDIGQ2DCA1J0XCDX,XM3S2,XM3S2,3S3AMIZX3V8HHAJDIGQ2DCA1J0XCDX,3S3AMIZX3V8HHAJDIGQ2DCA1J0XCDX,267902,267902,,,,,,,,,,
,,,,4,7.805585,0,8,8,317,1,a soccer player with a blue left cleat chases another player for the ball,a soccer player with a green left cleat chases another player for the ball,wolfe1,image-082,2,34,AW0MG225VXWCN,2021-01-07_18h43.16.806,MetaAwareness,2020.1.2,Win32,60,3GONHBMNHW1U7D26XL4BJH3SBM1MZQ,AW0MG225VXWCN,3S3AMIZX3V8HHAJDIGQ2DCA1J0XCDX,XM3S2,XM3S2,3S3AMIZX3V8HHAJDIGQ2DCA1J0XCDX,3S3AMIZX3V8HHAJDIGQ2DCA1J0XCDX,267902,267902,,,,,,,,,,
,,,,5,4.497645,0,9,9,208,1,quiet street with a few traditional style buildings with a sign on the yellow building,quiet street with a few traditional style buildings,wolfe1,image-038,2,34,AW0MG225VXWCN,2021-01-07_18h43.16.806,MetaAwareness,2020.1.2,Win32,60,3GONHBMNHW1U7D26XL4BJH3SBM1MZQ,AW0MG225VXWCN,3S3AMIZX3V8HHAJDIGQ2DCA1J0XCDX,XM3S2,XM3S2,3S3AMIZX3V8HHAJDIGQ2DCA1J0XCDX,3S3AMIZX3V8HHAJDIGQ2DCA1J0XCDX,267902,267902,,,,,,,,,,
,,,,3,5.390035,0,10,10,584,1,a helicopter with a group of people getting supplies with yellow boxes,a helicopter with a group of people getting supplies with blue boxes,wolfe1,image-130,5,34,AW0MG225VXWCN,2021-01-07_18h43.16.806,MetaAwareness,2020.1.2,Win32,60,3GONHBMNHW1U7D26XL4BJH3SBM1MZQ,AW0MG225VXWCN,3S3AMIZX3V8HHAJDIGQ2DCA1J0XCDX,XM3S2,XM3S2,3S3AMIZX3V8HHAJDIGQ2DCA1J0XCDX,3S3AMIZX3V8HHAJDIGQ2DCA1J0XCDX,267902,267902,,,,,,,,,,
,,,,3,3.450695,0,11,11,373,1,a girl with pink pants exercises with other kids in a gymnasium,a girl with green pants exercises with other kids in a gymnasium,wolfe1,image-093,4,34,AW0MG225VXWCN,2021-01-07_18h43.16.806,MetaAwareness,2020.1.2,Win32,60,3GONHBMNHW1U7D26XL4BJH3SBM1MZQ,AW0MG225VXWCN,3S3AMIZX3V8HHAJDIGQ2DCA1J0XCDX,XM3S2,XM3S2,3S3AMIZX3V8HHAJDIGQ2DCA1J0XCDX,3S3AMIZX3V8HHAJDIGQ2DCA1J0XCDX,267902,267902,,,,,,,,,,
,,,,3,2.50479,0,12,12,479,1,airplanes next to yellow truck,airplanes next to red truck,wolfe1,image-111,3,34,AW0MG225VXWCN,2021-01-07_18h43.16.806,MetaAwareness,2020.1.2,Win32,60,3GONHBMNHW1U7D26XL4BJH3SBM1MZQ,AW0MG225VXWCN,3S3AMIZX3V8HHAJDIGQ2DCA1J0XCDX,XM3S2,XM3S2,3S3AMIZX3V8HHAJDIGQ2DCA1J0XCDX,3S3AMIZX3V8HHAJDIGQ2DCA1J0XCDX,267902,267902,,,,,,,,,,
,,,,3,4.462055,0,13,13,425,1,a group of men in formal attire. one of the men has a red tie.,a group of men in formal attire. one of the men is wearing  a brown tie.,wolfe1,image-102,6,34,AW0MG225VXWCN,2021-01-07_18h43.16.806,MetaAwareness,2020.1.2,Win32,60,3GONHBMNHW1U7D26XL4BJH3SBM1MZQ,AW0MG225VXWCN,3S3AMIZX3V8HHAJDIGQ2DCA1J0XCDX,XM3S2,XM3S2,3S3AMIZX3V8HHAJDIGQ2DCA1J0XCDX,3S3AMIZX3V8HHAJDIGQ2DCA1J0XCDX,267902,267902,,,,,,,,,,
,,,,2,5.804185,0,14,14,237,1,people in front of a temple with several spires,people in front of a temple with a missing spire,wolfe1,image-042,7,34,AW0MG225VXWCN,2021-01-07_18h43.16.806,MetaAwareness,2020.1.2,Win32,60,3GONHBMNHW1U7D26XL4BJH3SBM1MZQ,AW0MG225VXWCN,3S3AMIZX3V8HHAJDIGQ2DCA1J0XCDX,XM3S2,XM3S2,3S3AMIZX3V8HHAJDIGQ2DCA1J0XCDX,3S3AMIZX3V8HHAJDIGQ2DCA1J0XCDX,267902,267902,,,,,,,,,,
,,,,3,2.946395,0,15,15,305,1,a mall with storefronts with red in the windows,a mall with storefronts with purple in the windows,wolfe1,image-079,6,34,AW0MG225VXWCN,2021-01-07_18h43.16.806,MetaAwareness,2020.1.2,Win32,60,3GONHBMNHW1U7D26XL4BJH3SBM1MZQ,AW0MG225VXWCN,3S3AMIZX3V8HHAJDIGQ2DCA1J0XCDX,XM3S2,XM3S2,3S3AMIZX3V8HHAJDIGQ2DCA1J0XCDX,3S3AMIZX3V8HHAJDIGQ2DCA1J0XCDX,267902,267902,,,,,,,,,,
,,,,4,7.07635,0,16,16,544,1,a storefront is next to an apartment building in a hispanic-themed part of a city. the door to the storefront is decorated with a blue sash.,a storefront is next to an apartment building in a hispanic-themed part of a city. the door to the storefront is decorated with a red and blue sash.,wolfe1,image-123,9,34,AW0MG225VXWCN,2021-01-07_18h43.16.806,MetaAwareness,2020.1.2,Win32,60,3GONHBMNHW1U7D26XL4BJH3SBM1MZQ,AW0MG225VXWCN,3S3AMIZX3V8HHAJDIGQ2DCA1J0XCDX,XM3S2,XM3S2,3S3AMIZX3V8HHAJDIGQ2DCA1J0XCDX,3S3AMIZX3V8HHAJDIGQ2DCA1J0XCDX,267902,267902,,,,,,,,,,
,,,,3,5.335875,0,17,17,547,1,a pair of people standing and talking next to a body of water with a green pole standing next to them,a pair of people standing and talking next to a body of water with a brown pole standing next to them,wolfe1,image-124,3,34,AW0MG225VXWCN,2021-01-07_18h43.16.806,MetaAwareness,2020.1.2,Win32,60,3GONHBMNHW1U7D26XL4BJH3SBM1MZQ,AW0MG225VXWCN,3S3AMIZX3V8HHAJDIGQ2DCA1J0XCDX,XM3S2,XM3S2,3S3AMIZX3V8HHAJDIGQ2DCA1J0XCDX,3S3AMIZX3V8HHAJDIGQ2DCA1J0XCDX,267902,267902,,,,,,,,,,
,,,,3,8.41076,0,18,18,590,1,children in a large room learning how to dance and be active. a girl in the front row with red shorts follows the dance instructor's moves closely.,children in a large room learning how to dance and be active. a girl in the front row with purple shorts follows the dance instructor's moves closely.,wolfe1,image-131,5,34,AW0MG225VXWCN,2021-01-07_18h43.16.806,MetaAwareness,2020.1.2,Win32,60,3GONHBMNHW1U7D26XL4BJH3SBM1MZQ,AW0MG225VXWCN,3S3AMIZX3V8HHAJDIGQ2DCA1J0XCDX,XM3S2,XM3S2,3S3AMIZX3V8HHAJDIGQ2DCA1J0XCDX,3S3AMIZX3V8HHAJDIGQ2DCA1J0XCDX,267902,267902,,,,,,,,,,
,,,,3,5.968865,0,19,19,362,1,people sitting at table in front of an office building outside and a woman with long curly hair and a red dress,people sitting at tables in front of an office building outside and a woman with long curly hair and a purple dress,wolfe1,image-091,3,34,AW0MG225VXWCN,2021-01-07_18h43.16.806,MetaAwareness,2020.1.2,Win32,60,3GONHBMNHW1U7D26XL4BJH3SBM1MZQ,AW0MG225VXWCN,3S3AMIZX3V8HHAJDIGQ2DCA1J0XCDX,XM3S2,XM3S2,3S3AMIZX3V8HHAJDIGQ2DCA1J0XCDX,3S3AMIZX3V8HHAJDIGQ2DCA1J0XCDX,267902,267902,,,,,,,,,,
,,,,5,12.10097,0,20,20,10,1,there are two houses. in the front of one of the houses there appears to be a garage sale. ther are clothes on the yard and hangin from a tree. a blue dress is hanging from the side,"there are two houses. in the front of one of the houses, there appears to be a garage sale. there are clothes on the yard and hanging from the tree.",wolfe1,image-002,5,34,AW0MG225VXWCN,2021-01-07_18h43.16.806,MetaAwareness,2020.1.2,Win32,60,3GONHBMNHW1U7D26XL4BJH3SBM1MZQ,AW0MG225VXWCN,3S3AMIZX3V8HHAJDIGQ2DCA1J0XCDX,XM3S2,XM3S2,3S3AMIZX3V8HHAJDIGQ2DCA1J0XCDX,3S3AMIZX3V8HHAJDIGQ2DCA1J0XCDX,267902,267902,,,,,,,,,,
,,,,5,11.93161,0,21,21,355,1,"there is an orange room with black seats. in the seats are 5 young men. one of the people in the photo is wearing a blue, grey, and white t-shirt","there is an orange room with black seats. in teh seats are 5 young men. one of men in the photo is wearing a purple, grey, and white t-shirt.",wolfe1,image-089,6,34,AW0MG225VXWCN,2021-01-07_18h43.16.806,MetaAwareness,2020.1.2,Win32,60,3GONHBMNHW1U7D26XL4BJH3SBM1MZQ,AW0MG225VXWCN,3S3AMIZX3V8HHAJDIGQ2DCA1J0XCDX,XM3S2,XM3S2,3S3AMIZX3V8HHAJDIGQ2DCA1J0XCDX,3S3AMIZX3V8HHAJDIGQ2DCA1J0XCDX,267902,267902,,,,,,,,,,
,,,,3,7.757075,0,22,22,401,1,"a man stands at a food stall, his blue pants contrasting against the white side of it.","a man stands at a food stall, his green pants contrasting against the blue side of it",wolfe1,image-097,3,34,AW0MG225VXWCN,2021-01-07_18h43.16.806,MetaAwareness,2020.1.2,Win32,60,3GONHBMNHW1U7D26XL4BJH3SBM1MZQ,AW0MG225VXWCN,3S3AMIZX3V8HHAJDIGQ2DCA1J0XCDX,XM3S2,XM3S2,3S3AMIZX3V8HHAJDIGQ2DCA1J0XCDX,3S3AMIZX3V8HHAJDIGQ2DCA1J0XCDX,267902,267902,,,,,,,,,,
,,,,3,5.39688,0,23,23,400,1,six people one wearing blue pants at  some kind of stand that has a pretty painting on it,six people one wearing green pants at some kind of stand that has a pretty painting on it,wolfe1,image-097,2,34,AW0MG225VXWCN,2021-01-07_18h43.16.806,MetaAwareness,2020.1.2,Win32,60,3GONHBMNHW1U7D26XL4BJH3SBM1MZQ,AW0MG225VXWCN,3S3AMIZX3V8HHAJDIGQ2DCA1J0XCDX,XM3S2,XM3S2,3S3AMIZX3V8HHAJDIGQ2DCA1J0XCDX,3S3AMIZX3V8HHAJDIGQ2DCA1J0XCDX,267902,267902,,,,,,,,,,
,,,,4,10.57355,0,24,24,415,1,"there is a pop up gazebo in the middle of a camping area. in the background, there are large trees, a camper, and red and blue towels hanging on a line attached to the trees.","there is a pop up gazebo in the middle of a camping area. in the background, there are large trees, a camper, and red towels that are hanging from a line attached to the trees.",wolfe1,image-100,4,34,AW0MG225VXWCN,2021-01-07_18h43.16.806,MetaAwareness,2020.1.2,Win32,60,3GONHBMNHW1U7D26XL4BJH3SBM1MZQ,AW0MG225VXWCN,3S3AMIZX3V8HHAJDIGQ2DCA1J0XCDX,XM3S2,XM3S2,3S3AMIZX3V8HHAJDIGQ2DCA1J0XCDX,3S3AMIZX3V8HHAJDIGQ2DCA1J0XCDX,267902,267902,,,,,,,,,,
,,,,5,11.420155,0,25,25,172,1,"a group of adult cub- boy- and girl scout leaders with one female leader sporting a large multi-colored badge near her right shoulder with a smaller, darker badge below that badge","a group of adult cub- boy- and girl scout leaders with one femaile leader sporting a small, dark badge on the right side of her shirt",wolfe1,image-031,5,34,AW0MG225VXWCN,2021-01-07_18h43.16.806,MetaAwareness,2020.1.2,Win32,60,3GONHBMNHW1U7D26XL4BJH3SBM1MZQ,AW0MG225VXWCN,3S3AMIZX3V8HHAJDIGQ2DCA1J0XCDX,XM3S2,XM3S2,3S3AMIZX3V8HHAJDIGQ2DCA1J0XCDX,3S3AMIZX3V8HHAJDIGQ2DCA1J0XCDX,267902,267902,,,,,,,,,,
,,,,3,6.897835,0,26,26,513,1,people shopping at a market with a man standing next to a tent with a blue top,people shopping at a market with a man standing next to a tent with a red top,wolfe1,image-117,6,34,AW0MG225VXWCN,2021-01-07_18h43.16.806,MetaAwareness,2020.1.2,Win32,60,3GONHBMNHW1U7D26XL4BJH3SBM1MZQ,AW0MG225VXWCN,3S3AMIZX3V8HHAJDIGQ2DCA1J0XCDX,XM3S2,XM3S2,3S3AMIZX3V8HHAJDIGQ2DCA1J0XCDX,3S3AMIZX3V8HHAJDIGQ2DCA1J0XCDX,267902,267902,,,,,,,,,,
,,,,3,10.869985,0,27,27,626,1,beach area with caddy' surfboard and 4 blue umbrellas and 3 yellow umbrellas,beach area with caddy's surfboard and 3 blue umbrellas and 4 yellow umbrellas,wolfe1,image-137,4,34,AW0MG225VXWCN,2021-01-07_18h43.16.806,MetaAwareness,2020.1.2,Win32,60,3GONHBMNHW1U7D26XL4BJH3SBM1MZQ,AW0MG225VXWCN,3S3AMIZX3V8HHAJDIGQ2DCA1J0XCDX,XM3S2,XM3S2,3S3AMIZX3V8HHAJDIGQ2DCA1J0XCDX,3S3AMIZX3V8HHAJDIGQ2DCA1J0XCDX,267902,267902,,,,,,,,,,
,,,,2,9.8173,0,28,28,429,1,people walking down the street in the rain including a person wearing green shoes,people walking down the street in the rain including a person wearing red shoes,wolfe1,image-103,3,34,AW0MG225VXWCN,2021-01-07_18h43.16.806,MetaAwareness,2020.1.2,Win32,60,3GONHBMNHW1U7D26XL4BJH3SBM1MZQ,AW0MG225VXWCN,3S3AMIZX3V8HHAJDIGQ2DCA1J0XCDX,XM3S2,XM3S2,3S3AMIZX3V8HHAJDIGQ2DCA1J0XCDX,3S3AMIZX3V8HHAJDIGQ2DCA1J0XCDX,267902,267902,,,,,,,,,,
,,,,2,11.016505,0,29,29,351,1,"a group of young boys, maybe teens and one young brown boy is wearing a striped t-shirt with blue, white and gray stripes","a group of young, teen boys, 5 sitting together and one of them is wearing a striped t-shirt with purple, whie and gray colors",wolfe1,image-089,2,34,AW0MG225VXWCN,2021-01-07_18h43.16.806,MetaAwareness,2020.1.2,Win32,60,3GONHBMNHW1U7D26XL4BJH3SBM1MZQ,AW0MG225VXWCN,3S3AMIZX3V8HHAJDIGQ2DCA1J0XCDX,XM3S2,XM3S2,3S3AMIZX3V8HHAJDIGQ2DCA1J0XCDX,3S3AMIZX3V8HHAJDIGQ2DCA1J0XCDX,267902,267902,,,,,,,,,,
,,,,,,,,,,,,,,,,34,AW0MG225VXWCN,2021-01-07_18h43.16.806,MetaAwareness,2020.1.2,Win32,60,3GONHBMNHW1U7D26XL4BJH3SBM1MZQ,AW0MG225VXWCN,3S3AMIZX3V8HHAJDIGQ2DCA1J0XCDX,XM3S2,XM3S2,3S3AMIZX3V8HHAJDIGQ2DCA1J0XCDX,3S3AMIZX3V8HHAJDIGQ2DCA1J0XCDX,267902,267902,6,5.90114,someone laying underneath a blue beach umbrella on a crowded beach,someone laying underneath a blue beach umbrella on a crowded beach,same,1,6.547305,members of a marching band crossing a track that all have feather plumes at the front of their hats,a cluttered and rustic looking cafe with 10 hanging lights,different
