consent_response.keys,consent_response.rt,key_resp_2.keys,key_resp_2.rt,user_resp.keys,user_resp.rt,trials.thisRepN,trials.thisTrialN,trials.thisN,trials.thisIndex,trials.ran,image_1_text,image_2_text,database,image,number,age,worker_ID,date,expName,psychopyVersion,OS,frameRate,hitId,workerId,assignmentId,a,tp_a,b,tp_b,c,tp_c,catch_same_resp.keys,catch_same_resp.rt,image_1_text_catch_same,image_2_text_catch_same,image_catch_same,catch_different_resp.keys,catch_different_resp.rt,image_1_text_catch_different,image_2_text_catch_different,image_catch_different
space,12.991295,space,17.694835,5,12.679695,0,0,0,109,1,a desk with a computer and display. there is a dark reflection in the box,a desk with a computer and display. there is an even larger dark reflection in the box,ma,31236119,4,75,A1RYZBXR1TYIXU,2021-01-08_16h06.33.020,MetaAwareness,2020.1.2,MacIntel,60,3ECKRY5B1RZ8BUCFC66JROWBUEDZIL,A1RYZBXR1TYIXU,3PZDLQMM0UOUE0LXLR6LHTJXMD32CH,MLZP0,MLZP0,3PZDLQMM0UOUE0LXLR6LHTJXMD32CH,3PZDLQMM0UOUE0LXLR6LHTJXMD32CH,268040,268040,,,,,,,,,,
,,,,4,8.027055,0,1,1,411,1,an organized desk with a decoration standing next to it.,an organized desk with a decoration hanging next to it.,ma,98156944,3,75,A1RYZBXR1TYIXU,2021-01-08_16h06.33.020,MetaAwareness,2020.1.2,MacIntel,60,3ECKRY5B1RZ8BUCFC66JROWBUEDZIL,A1RYZBXR1TYIXU,3PZDLQMM0UOUE0LXLR6LHTJXMD32CH,MLZP0,MLZP0,3PZDLQMM0UOUE0LXLR6LHTJXMD32CH,3PZDLQMM0UOUE0LXLR6LHTJXMD32CH,268040,268040,,,,,,,,,,
,,,,4,12.9593,0,2,2,10,1,a night set dintertable wih lit candles,a nice set dinner table with lit candles,ma,10810329,6,75,A1RYZBXR1TYIXU,2021-01-08_16h06.33.020,MetaAwareness,2020.1.2,MacIntel,60,3ECKRY5B1RZ8BUCFC66JROWBUEDZIL,A1RYZBXR1TYIXU,3PZDLQMM0UOUE0LXLR6LHTJXMD32CH,MLZP0,MLZP0,3PZDLQMM0UOUE0LXLR6LHTJXMD32CH,3PZDLQMM0UOUE0LXLR6LHTJXMD32CH,268040,268040,,,,,,,,,,
,,,,6,8.563685,0,3,3,79,1,a display of wooden objects with a quilted picture in the background showing a house in the middle with a large window,a display of wooden objects with a quilted picture in the background showing a house in the center with a small window.,ma,23024660,10,75,A1RYZBXR1TYIXU,2021-01-08_16h06.33.020,MetaAwareness,2020.1.2,MacIntel,60,3ECKRY5B1RZ8BUCFC66JROWBUEDZIL,A1RYZBXR1TYIXU,3PZDLQMM0UOUE0LXLR6LHTJXMD32CH,MLZP0,MLZP0,3PZDLQMM0UOUE0LXLR6LHTJXMD32CH,3PZDLQMM0UOUE0LXLR6LHTJXMD32CH,268040,268040,,,,,,,,,,
,,,,4,8.37235,0,4,4,5,1,a decorated room with a colorful lamp and a painting of a coffee on the wall,a decorated room with a colorful lamp and a painting of a coffee mug on the wall,ma,10504629,7,75,A1RYZBXR1TYIXU,2021-01-08_16h06.33.020,MetaAwareness,2020.1.2,MacIntel,60,3ECKRY5B1RZ8BUCFC66JROWBUEDZIL,A1RYZBXR1TYIXU,3PZDLQMM0UOUE0LXLR6LHTJXMD32CH,MLZP0,MLZP0,3PZDLQMM0UOUE0LXLR6LHTJXMD32CH,3PZDLQMM0UOUE0LXLR6LHTJXMD32CH,268040,268040,,,,,,,,,,
,,,,6,10.553155,0,5,5,138,1,a wood carving of an abstract tree with 11 squiggly branches,a wood carving of an abstract tree with 10 squiggly branches,ma,42429798,7,75,A1RYZBXR1TYIXU,2021-01-08_16h06.33.020,MetaAwareness,2020.1.2,MacIntel,60,3ECKRY5B1RZ8BUCFC66JROWBUEDZIL,A1RYZBXR1TYIXU,3PZDLQMM0UOUE0LXLR6LHTJXMD32CH,MLZP0,MLZP0,3PZDLQMM0UOUE0LXLR6LHTJXMD32CH,3PZDLQMM0UOUE0LXLR6LHTJXMD32CH,268040,268040,,,,,,,,,,
,,,,2,14.257665,0,6,6,256,1,a hallowween cake with a kitty and a yellow bat on its hip,a halloween cake with a kitty and a yellow bat on the middle right of outfit,ma,72488522,10,75,A1RYZBXR1TYIXU,2021-01-08_16h06.33.020,MetaAwareness,2020.1.2,MacIntel,60,3ECKRY5B1RZ8BUCFC66JROWBUEDZIL,A1RYZBXR1TYIXU,3PZDLQMM0UOUE0LXLR6LHTJXMD32CH,MLZP0,MLZP0,3PZDLQMM0UOUE0LXLR6LHTJXMD32CH,3PZDLQMM0UOUE0LXLR6LHTJXMD32CH,268040,268040,,,,,,,,,,
,,,,2,9.73877,0,7,7,193,1,there are a pile of rocks to the right of the flowers and the rock to the rightmost of the picture is grey,there are a pile of rocks to the right of the flowers and the rocks to the rightmost of the picture are sandy or brown.,ma,56835136,1,75,A1RYZBXR1TYIXU,2021-01-08_16h06.33.020,MetaAwareness,2020.1.2,MacIntel,60,3ECKRY5B1RZ8BUCFC66JROWBUEDZIL,A1RYZBXR1TYIXU,3PZDLQMM0UOUE0LXLR6LHTJXMD32CH,MLZP0,MLZP0,3PZDLQMM0UOUE0LXLR6LHTJXMD32CH,3PZDLQMM0UOUE0LXLR6LHTJXMD32CH,268040,268040,,,,,,,,,,
,,,,5,15.947675,0,8,8,247,1,"a quilt with green, grey and red checks that repeat on the fourth row as light, dark, medium, and dark","a quilt with green, grey, and red checks that repeat on the fourth row as light, dark, light, dark",ma,70687495,9,75,A1RYZBXR1TYIXU,2021-01-08_16h06.33.020,MetaAwareness,2020.1.2,MacIntel,60,3ECKRY5B1RZ8BUCFC66JROWBUEDZIL,A1RYZBXR1TYIXU,3PZDLQMM0UOUE0LXLR6LHTJXMD32CH,MLZP0,MLZP0,3PZDLQMM0UOUE0LXLR6LHTJXMD32CH,3PZDLQMM0UOUE0LXLR6LHTJXMD32CH,268040,268040,,,,,,,,,,
,,,,2,8.64238,0,9,9,130,1,a wooden picture frame with a dot on the bottom,a wooden picture frame without a dot on the bottom,ma,38546029,8,75,A1RYZBXR1TYIXU,2021-01-08_16h06.33.020,MetaAwareness,2020.1.2,MacIntel,60,3ECKRY5B1RZ8BUCFC66JROWBUEDZIL,A1RYZBXR1TYIXU,3PZDLQMM0UOUE0LXLR6LHTJXMD32CH,MLZP0,MLZP0,3PZDLQMM0UOUE0LXLR6LHTJXMD32CH,3PZDLQMM0UOUE0LXLR6LHTJXMD32CH,268040,268040,,,,,,,,,,
,,,,2,4.542665,0,10,10,379,1,stamp upside down on mail,stamp right side up on mail,ma,8974554,2,75,A1RYZBXR1TYIXU,2021-01-08_16h06.33.020,MetaAwareness,2020.1.2,MacIntel,60,3ECKRY5B1RZ8BUCFC66JROWBUEDZIL,A1RYZBXR1TYIXU,3PZDLQMM0UOUE0LXLR6LHTJXMD32CH,MLZP0,MLZP0,3PZDLQMM0UOUE0LXLR6LHTJXMD32CH,3PZDLQMM0UOUE0LXLR6LHTJXMD32CH,268040,268040,,,,,,,,,,
,,,,4,12.94225,0,11,11,417,1,an office with a desk and two monitors and various office supplies with a sword half pulled out of a scabbard taking up a large portion of the wall,an office with a desk and two monitors and various office supplies with a sword slightly pulled out of the scabbard in the left corner,ma,98156944,9,75,A1RYZBXR1TYIXU,2021-01-08_16h06.33.020,MetaAwareness,2020.1.2,MacIntel,60,3ECKRY5B1RZ8BUCFC66JROWBUEDZIL,A1RYZBXR1TYIXU,3PZDLQMM0UOUE0LXLR6LHTJXMD32CH,MLZP0,MLZP0,3PZDLQMM0UOUE0LXLR6LHTJXMD32CH,3PZDLQMM0UOUE0LXLR6LHTJXMD32CH,268040,268040,,,,,,,,,,
,,,,4,9.861715,0,12,12,281,1,a collection of heart shaped trinkets with an orange heart turned to the left.,a collection of heart shaped trinkets with an orange heart turned at 45 degree angle to the left,ma,75958241,5,75,A1RYZBXR1TYIXU,2021-01-08_16h06.33.020,MetaAwareness,2020.1.2,MacIntel,60,3ECKRY5B1RZ8BUCFC66JROWBUEDZIL,A1RYZBXR1TYIXU,3PZDLQMM0UOUE0LXLR6LHTJXMD32CH,MLZP0,MLZP0,3PZDLQMM0UOUE0LXLR6LHTJXMD32CH,3PZDLQMM0UOUE0LXLR6LHTJXMD32CH,268040,268040,,,,,,,,,,
,,,,3,10.9218,0,13,13,128,1,a decorated shelf including a brown board with a circle on the top and bottom,a decorated shelf including a brown board with a circle on the top,ma,38546029,6,75,A1RYZBXR1TYIXU,2021-01-08_16h06.33.020,MetaAwareness,2020.1.2,MacIntel,60,3ECKRY5B1RZ8BUCFC66JROWBUEDZIL,A1RYZBXR1TYIXU,3PZDLQMM0UOUE0LXLR6LHTJXMD32CH,MLZP0,MLZP0,3PZDLQMM0UOUE0LXLR6LHTJXMD32CH,3PZDLQMM0UOUE0LXLR6LHTJXMD32CH,268040,268040,,,,,,,,,,
,,,,4,23.399845,0,14,14,147,1,beautifully decorated cookies laying in a platter on a table clothed table.  one of the cookies in the yellow box has a print of a snowflake and it is angled to the side.it is also red.,beautifully decorated cookies laying on a platter on a table clothed table.  one of the cookies in the yellow box has a print of a snowflake and is centered on the red cookie.,ma,44993860,2,75,A1RYZBXR1TYIXU,2021-01-08_16h06.33.020,MetaAwareness,2020.1.2,MacIntel,60,3ECKRY5B1RZ8BUCFC66JROWBUEDZIL,A1RYZBXR1TYIXU,3PZDLQMM0UOUE0LXLR6LHTJXMD32CH,MLZP0,MLZP0,3PZDLQMM0UOUE0LXLR6LHTJXMD32CH,3PZDLQMM0UOUE0LXLR6LHTJXMD32CH,268040,268040,,,,,,,,,,
,,,,3,12.41439,0,15,15,106,1,a blanket with children's handprints and a fruit tile including a green apple,a blanket with chiden's handprints and fruit tile including and orange apple,ma,3099758,3,75,A1RYZBXR1TYIXU,2021-01-08_16h06.33.020,MetaAwareness,2020.1.2,MacIntel,60,3ECKRY5B1RZ8BUCFC66JROWBUEDZIL,A1RYZBXR1TYIXU,3PZDLQMM0UOUE0LXLR6LHTJXMD32CH,MLZP0,MLZP0,3PZDLQMM0UOUE0LXLR6LHTJXMD32CH,3PZDLQMM0UOUE0LXLR6LHTJXMD32CH,268040,268040,,,,,,,,,,
,,,,2,7.63362,0,16,16,241,1,a green white and red checkered quilt with a pink patch in the yellow box.,a green white and red checkerd quilt with a white patch in the yellow box.,ma,70687495,2,75,A1RYZBXR1TYIXU,2021-01-08_16h06.33.020,MetaAwareness,2020.1.2,MacIntel,60,3ECKRY5B1RZ8BUCFC66JROWBUEDZIL,A1RYZBXR1TYIXU,3PZDLQMM0UOUE0LXLR6LHTJXMD32CH,MLZP0,MLZP0,3PZDLQMM0UOUE0LXLR6LHTJXMD32CH,3PZDLQMM0UOUE0LXLR6LHTJXMD32CH,268040,268040,,,,,,,,,,
,,,,2,8.272345,0,17,17,301,1,"a bakery display of cakes and treats, with a small white birthday cake with a green bow",a bakery display of cakes and treats with a small white birthday cake with a brown bow,ma,77793328,4,75,A1RYZBXR1TYIXU,2021-01-08_16h06.33.020,MetaAwareness,2020.1.2,MacIntel,60,3ECKRY5B1RZ8BUCFC66JROWBUEDZIL,A1RYZBXR1TYIXU,3PZDLQMM0UOUE0LXLR6LHTJXMD32CH,MLZP0,MLZP0,3PZDLQMM0UOUE0LXLR6LHTJXMD32CH,3PZDLQMM0UOUE0LXLR6LHTJXMD32CH,268040,268040,,,,,,,,,,
,,,,3,7.5336,0,18,18,222,1,various ceramic items on a wood tabletop. the pan in the box has a green interior,various ceramic items on a wood tabletop. the pan in the box has a pink interior.,ma,62224663,8,75,A1RYZBXR1TYIXU,2021-01-08_16h06.33.020,MetaAwareness,2020.1.2,MacIntel,60,3ECKRY5B1RZ8BUCFC66JROWBUEDZIL,A1RYZBXR1TYIXU,3PZDLQMM0UOUE0LXLR6LHTJXMD32CH,MLZP0,MLZP0,3PZDLQMM0UOUE0LXLR6LHTJXMD32CH,3PZDLQMM0UOUE0LXLR6LHTJXMD32CH,268040,268040,,,,,,,,,,
,,,,2,8.962145,0,19,19,378,1,green bean bags the postal stamp in the yellow box is opposite than the other picture.,green bean bags the postal stamp in the yellow box is facing up in this picture.,ma,8974554,1,75,A1RYZBXR1TYIXU,2021-01-08_16h06.33.020,MetaAwareness,2020.1.2,MacIntel,60,3ECKRY5B1RZ8BUCFC66JROWBUEDZIL,A1RYZBXR1TYIXU,3PZDLQMM0UOUE0LXLR6LHTJXMD32CH,MLZP0,MLZP0,3PZDLQMM0UOUE0LXLR6LHTJXMD32CH,3PZDLQMM0UOUE0LXLR6LHTJXMD32CH,268040,268040,,,,,,,,,,
,,,,3,8.500535,0,20,20,114,1,a children's toy set including a set of different toys in a wooden box with a five pointed star that is pointed down,a children's toy set including a set of different toys in a wooden box with a five pointed star that is pointed up,ma,32289063,6,75,A1RYZBXR1TYIXU,2021-01-08_16h06.33.020,MetaAwareness,2020.1.2,MacIntel,60,3ECKRY5B1RZ8BUCFC66JROWBUEDZIL,A1RYZBXR1TYIXU,3PZDLQMM0UOUE0LXLR6LHTJXMD32CH,MLZP0,MLZP0,3PZDLQMM0UOUE0LXLR6LHTJXMD32CH,3PZDLQMM0UOUE0LXLR6LHTJXMD32CH,268040,268040,,,,,,,,,,
,,,,3,9.336875,0,21,21,283,1,a collection of valentine sweets including a yellow heart with its top to the left,a collection of valentine sweets including a yellow heart tilted slightly to the left.,ma,75958241,7,75,A1RYZBXR1TYIXU,2021-01-08_16h06.33.020,MetaAwareness,2020.1.2,MacIntel,60,3ECKRY5B1RZ8BUCFC66JROWBUEDZIL,A1RYZBXR1TYIXU,3PZDLQMM0UOUE0LXLR6LHTJXMD32CH,MLZP0,MLZP0,3PZDLQMM0UOUE0LXLR6LHTJXMD32CH,3PZDLQMM0UOUE0LXLR6LHTJXMD32CH,268040,268040,,,,,,,,,,
,,,,2,6.951495,0,22,22,108,1,a desk with a computer whose monitor displays a wide band graphic at the top.,a desk with a computer whose monitor displays a graphic at the top that stretches about seventy five percent of the width of the screen.,ma,31236119,3,75,A1RYZBXR1TYIXU,2021-01-08_16h06.33.020,MetaAwareness,2020.1.2,MacIntel,60,3ECKRY5B1RZ8BUCFC66JROWBUEDZIL,A1RYZBXR1TYIXU,3PZDLQMM0UOUE0LXLR6LHTJXMD32CH,MLZP0,MLZP0,3PZDLQMM0UOUE0LXLR6LHTJXMD32CH,3PZDLQMM0UOUE0LXLR6LHTJXMD32CH,268040,268040,,,,,,,,,,
,,,,2,3.362015,0,23,23,269,1,a clock pointing at 11 o clock,a clock pointing at 2 o clock,ma,74173745,4,75,A1RYZBXR1TYIXU,2021-01-08_16h06.33.020,MetaAwareness,2020.1.2,MacIntel,60,3ECKRY5B1RZ8BUCFC66JROWBUEDZIL,A1RYZBXR1TYIXU,3PZDLQMM0UOUE0LXLR6LHTJXMD32CH,MLZP0,MLZP0,3PZDLQMM0UOUE0LXLR6LHTJXMD32CH,3PZDLQMM0UOUE0LXLR6LHTJXMD32CH,268040,268040,,,,,,,,,,
,,,,2,9.813475,0,24,24,215,1,"a table with three cups and plates, a candle holder, and two containers, and two bowls with handles.","a table with three cups and plates with a spoon, a candle holder, two containers and two bowls with handles.",ma,62224663,1,75,A1RYZBXR1TYIXU,2021-01-08_16h06.33.020,MetaAwareness,2020.1.2,MacIntel,60,3ECKRY5B1RZ8BUCFC66JROWBUEDZIL,A1RYZBXR1TYIXU,3PZDLQMM0UOUE0LXLR6LHTJXMD32CH,MLZP0,MLZP0,3PZDLQMM0UOUE0LXLR6LHTJXMD32CH,3PZDLQMM0UOUE0LXLR6LHTJXMD32CH,268040,268040,,,,,,,,,,
,,,,2,4.4375,0,25,25,365,1,a table cover with an orange flower,a table cover with all red flowers,ma,87983207,6,75,A1RYZBXR1TYIXU,2021-01-08_16h06.33.020,MetaAwareness,2020.1.2,MacIntel,60,3ECKRY5B1RZ8BUCFC66JROWBUEDZIL,A1RYZBXR1TYIXU,3PZDLQMM0UOUE0LXLR6LHTJXMD32CH,MLZP0,MLZP0,3PZDLQMM0UOUE0LXLR6LHTJXMD32CH,3PZDLQMM0UOUE0LXLR6LHTJXMD32CH,268040,268040,,,,,,,,,,
,,,,2,8.05191,0,26,26,325,1,"a bedroom, with a multi-colored bedspread, and posters hanging on the wall","a bedroom, with a multi-colored bedspread, and posters hanging on the wall. the poster in the center is shorter than the one on the left image.",ma,79573638,5,75,A1RYZBXR1TYIXU,2021-01-08_16h06.33.020,MetaAwareness,2020.1.2,MacIntel,60,3ECKRY5B1RZ8BUCFC66JROWBUEDZIL,A1RYZBXR1TYIXU,3PZDLQMM0UOUE0LXLR6LHTJXMD32CH,MLZP0,MLZP0,3PZDLQMM0UOUE0LXLR6LHTJXMD32CH,3PZDLQMM0UOUE0LXLR6LHTJXMD32CH,268040,268040,,,,,,,,,,
,,,,4,10.435185,0,27,27,61,1,"decorative material with patterened pears, one is yellow with orange polk adots","decorative material with patterened pears, one is yellow with tiny orange dots",ma,18169626,4,75,A1RYZBXR1TYIXU,2021-01-08_16h06.33.020,MetaAwareness,2020.1.2,MacIntel,60,3ECKRY5B1RZ8BUCFC66JROWBUEDZIL,A1RYZBXR1TYIXU,3PZDLQMM0UOUE0LXLR6LHTJXMD32CH,MLZP0,MLZP0,3PZDLQMM0UOUE0LXLR6LHTJXMD32CH,3PZDLQMM0UOUE0LXLR6LHTJXMD32CH,268040,268040,,,,,,,,,,
,,,,2,6.36895,0,28,28,90,1,a blue bedroom with blue stars and a large moon lamp.,a blue bedroom with blue stars and a small yellow moon lamp.,ma,24383097,2,75,A1RYZBXR1TYIXU,2021-01-08_16h06.33.020,MetaAwareness,2020.1.2,MacIntel,60,3ECKRY5B1RZ8BUCFC66JROWBUEDZIL,A1RYZBXR1TYIXU,3PZDLQMM0UOUE0LXLR6LHTJXMD32CH,MLZP0,MLZP0,3PZDLQMM0UOUE0LXLR6LHTJXMD32CH,3PZDLQMM0UOUE0LXLR6LHTJXMD32CH,268040,268040,,,,,,,,,,
,,,,4,6.219655,0,29,29,172,1,a beautiful rabbit doll with purple legs and bunch of toys.,a beautiful rabbit doll with blue legs and bunch of toys.,ma,48384711,12,75,A1RYZBXR1TYIXU,2021-01-08_16h06.33.020,MetaAwareness,2020.1.2,MacIntel,60,3ECKRY5B1RZ8BUCFC66JROWBUEDZIL,A1RYZBXR1TYIXU,3PZDLQMM0UOUE0LXLR6LHTJXMD32CH,MLZP0,MLZP0,3PZDLQMM0UOUE0LXLR6LHTJXMD32CH,3PZDLQMM0UOUE0LXLR6LHTJXMD32CH,268040,268040,,,,,,,,,,
,,,,,,,,,,,,,,,,75,A1RYZBXR1TYIXU,2021-01-08_16h06.33.020,MetaAwareness,2020.1.2,MacIntel,60,3ECKRY5B1RZ8BUCFC66JROWBUEDZIL,A1RYZBXR1TYIXU,3PZDLQMM0UOUE0LXLR6LHTJXMD32CH,MLZP0,MLZP0,3PZDLQMM0UOUE0LXLR6LHTJXMD32CH,3PZDLQMM0UOUE0LXLR6LHTJXMD32CH,268040,268040,6,10.27024,someone laying underneath a blue beach umbrella on a crowded beach,someone laying underneath a blue beach umbrella on a crowded beach,same,1,6.13612,members of a marching band crossing a track that all have feather plumes at the front of their hats,a cluttered and rustic looking cafe with 10 hanging lights,different
