consent_response.keys,consent_response.rt,key_resp_2.keys,key_resp_2.rt,user_resp.keys,user_resp.rt,trials.thisRepN,trials.thisTrialN,trials.thisN,trials.thisIndex,trials.ran,image_1_text,image_2_text,database,image,number,age,worker_ID,date,expName,psychopyVersion,OS,frameRate,hitId,workerId,assignmentId,a,tp_a,b,tp_b,c,tp_c,catch_same_resp.keys,catch_same_resp.rt,image_1_text_catch_same,image_2_text_catch_same,image_catch_same,catch_different_resp.keys,catch_different_resp.rt,image_1_text_catch_different,image_2_text_catch_different,image_catch_different
space,0.241,space,0.218,2,2.982,0,0,0,223,1,a bunch of old cups and fancy china with a green bowl.,a bunch of old cups and fancy china with a yellow bowl,ma,62224663,9,29,A25L49JWMXDWCJ,2021-01-08_12h42.53.279,MetaAwareness,2020.1.2,Win32,60,3511RHPADWH1Z4YUNS9JX1M421LRLV,A25L49JWMXDWCJ,33M4IA01QH4ZLIDDRDH9WECFZNRRX7,1IM30,1IM30,33M4IA01QH4ZLIDDRDH9WECFZNRRX7,33M4IA01QH4ZLIDDRDH9WECFZNRRX7,268040,268040,,,,,,,,,,
,,,,1,0.072,0,1,1,342,1,picture gallery on wall with all pictures straight up,picture gallery on wall with one picture upside down,ma,83691215,2,29,A25L49JWMXDWCJ,2021-01-08_12h42.53.279,MetaAwareness,2020.1.2,Win32,60,3511RHPADWH1Z4YUNS9JX1M421LRLV,A25L49JWMXDWCJ,33M4IA01QH4ZLIDDRDH9WECFZNRRX7,1IM30,1IM30,33M4IA01QH4ZLIDDRDH9WECFZNRRX7,33M4IA01QH4ZLIDDRDH9WECFZNRRX7,268040,268040,,,,,,,,,,
,,,,3,0.126,0,2,2,103,1,a game room with a long tufted red couch and a table and a wooden stool,a game room with a long tufted red couch and a table and a dart board on the wall and a wooden stool,ma,27857618,6,29,A25L49JWMXDWCJ,2021-01-08_12h42.53.279,MetaAwareness,2020.1.2,Win32,60,3511RHPADWH1Z4YUNS9JX1M421LRLV,A25L49JWMXDWCJ,33M4IA01QH4ZLIDDRDH9WECFZNRRX7,1IM30,1IM30,33M4IA01QH4ZLIDDRDH9WECFZNRRX7,33M4IA01QH4ZLIDDRDH9WECFZNRRX7,268040,268040,,,,,,,,,,
,,,,2,0.401,0,3,3,200,1,"a black lamp sits in the middle of a room on a table, while 6 musical instruments sit above it.","a black lamp sits in the middle of a room on a table, while 5 musical instruments sit above it.",ma,57861456,2,29,A25L49JWMXDWCJ,2021-01-08_12h42.53.279,MetaAwareness,2020.1.2,Win32,60,3511RHPADWH1Z4YUNS9JX1M421LRLV,A25L49JWMXDWCJ,33M4IA01QH4ZLIDDRDH9WECFZNRRX7,1IM30,1IM30,33M4IA01QH4ZLIDDRDH9WECFZNRRX7,33M4IA01QH4ZLIDDRDH9WECFZNRRX7,268040,268040,,,,,,,,,,
,,,,1,0.019,0,4,4,117,1,an overflowing toybox with a name on the front and a tilted yellow star underneath.,an overflowing toybox with a name on the front and a centered yellow star underneath.,ma,32289063,9,29,A25L49JWMXDWCJ,2021-01-08_12h42.53.279,MetaAwareness,2020.1.2,Win32,60,3511RHPADWH1Z4YUNS9JX1M421LRLV,A25L49JWMXDWCJ,33M4IA01QH4ZLIDDRDH9WECFZNRRX7,1IM30,1IM30,33M4IA01QH4ZLIDDRDH9WECFZNRRX7,33M4IA01QH4ZLIDDRDH9WECFZNRRX7,268040,268040,,,,,,,,,,
,,,,3,0.022,0,5,5,194,1,a picture of a desk with flowers and a pile of stones that stick out a little.,a picture of a desk with flowers and a pile of stones.,ma,56835136,2,29,A25L49JWMXDWCJ,2021-01-08_12h42.53.279,MetaAwareness,2020.1.2,Win32,60,3511RHPADWH1Z4YUNS9JX1M421LRLV,A25L49JWMXDWCJ,33M4IA01QH4ZLIDDRDH9WECFZNRRX7,1IM30,1IM30,33M4IA01QH4ZLIDDRDH9WECFZNRRX7,33M4IA01QH4ZLIDDRDH9WECFZNRRX7,268040,268040,,,,,,,,,,
,,,,3,5.985,0,6,6,77,1,a wooden framed quilt with houses one is a purple house with a square window in the middle there is also houses besides the frame,a wooden framed quilt with houss one is a purple house with a rectangular window near the top of the side of the house there is also houses besides the frame,ma,23024660,7,29,A25L49JWMXDWCJ,2021-01-08_12h42.53.279,MetaAwareness,2020.1.2,Win32,60,3511RHPADWH1Z4YUNS9JX1M421LRLV,A25L49JWMXDWCJ,33M4IA01QH4ZLIDDRDH9WECFZNRRX7,1IM30,1IM30,33M4IA01QH4ZLIDDRDH9WECFZNRRX7,33M4IA01QH4ZLIDDRDH9WECFZNRRX7,268040,268040,,,,,,,,,,
,,,,5,1.367,0,7,7,356,1,an array of led type lights and one with a green color lid,an array of led type lights and one with a white color lid,ma,85741618,5,29,A25L49JWMXDWCJ,2021-01-08_12h42.53.279,MetaAwareness,2020.1.2,Win32,60,3511RHPADWH1Z4YUNS9JX1M421LRLV,A25L49JWMXDWCJ,33M4IA01QH4ZLIDDRDH9WECFZNRRX7,1IM30,1IM30,33M4IA01QH4ZLIDDRDH9WECFZNRRX7,33M4IA01QH4ZLIDDRDH9WECFZNRRX7,268040,268040,,,,,,,,,,
,,,,2,1.483,0,8,8,40,1,the color here is orange,the color here is red,ma,13141692,5,29,A25L49JWMXDWCJ,2021-01-08_12h42.53.279,MetaAwareness,2020.1.2,Win32,60,3511RHPADWH1Z4YUNS9JX1M421LRLV,A25L49JWMXDWCJ,33M4IA01QH4ZLIDDRDH9WECFZNRRX7,1IM30,1IM30,33M4IA01QH4ZLIDDRDH9WECFZNRRX7,33M4IA01QH4ZLIDDRDH9WECFZNRRX7,268040,268040,,,,,,,,,,
,,,,5,1.674,0,9,9,394,1,a two story red brick building with white trim. there are six windows on the second floor and three windows on the first floord,a two story red brick building with white trim there are six windows on the second floor and three windows on the first floor.,ma,95091295,1,29,A25L49JWMXDWCJ,2021-01-08_12h42.53.279,MetaAwareness,2020.1.2,Win32,60,3511RHPADWH1Z4YUNS9JX1M421LRLV,A25L49JWMXDWCJ,33M4IA01QH4ZLIDDRDH9WECFZNRRX7,1IM30,1IM30,33M4IA01QH4ZLIDDRDH9WECFZNRRX7,33M4IA01QH4ZLIDDRDH9WECFZNRRX7,268040,268040,,,,,,,,,,
,,,,2,2.131,0,10,10,355,1,a selection of various lights in different colors and shapes with a green light that has a cut out on a white base.,a selection of various lights in different colors and shapes with a white light that has a cut out on a white base.,ma,85741618,2,29,A25L49JWMXDWCJ,2021-01-08_12h42.53.279,MetaAwareness,2020.1.2,Win32,60,3511RHPADWH1Z4YUNS9JX1M421LRLV,A25L49JWMXDWCJ,33M4IA01QH4ZLIDDRDH9WECFZNRRX7,1IM30,1IM30,33M4IA01QH4ZLIDDRDH9WECFZNRRX7,33M4IA01QH4ZLIDDRDH9WECFZNRRX7,268040,268040,,,,,,,,,,
,,,,3,1.396,0,11,11,139,1,an ornately decorated wooden design that has a squiggly line carved in it in one place,an ornately decorated wooden design that has plain wood in one place amongst squiggly carved lines,ma,42429798,8,29,A25L49JWMXDWCJ,2021-01-08_12h42.53.279,MetaAwareness,2020.1.2,Win32,60,3511RHPADWH1Z4YUNS9JX1M421LRLV,A25L49JWMXDWCJ,33M4IA01QH4ZLIDDRDH9WECFZNRRX7,1IM30,1IM30,33M4IA01QH4ZLIDDRDH9WECFZNRRX7,33M4IA01QH4ZLIDDRDH9WECFZNRRX7,268040,268040,,,,,,,,,,
,,,,5,1.423,0,12,12,287,1,cupcakes with the word 'gughlhof' on a ribbon,cupcakes with the word 'gugelhof' on a ribbon,ma,77345858,4,29,A25L49JWMXDWCJ,2021-01-08_12h42.53.279,MetaAwareness,2020.1.2,Win32,60,3511RHPADWH1Z4YUNS9JX1M421LRLV,A25L49JWMXDWCJ,33M4IA01QH4ZLIDDRDH9WECFZNRRX7,1IM30,1IM30,33M4IA01QH4ZLIDDRDH9WECFZNRRX7,33M4IA01QH4ZLIDDRDH9WECFZNRRX7,268040,268040,,,,,,,,,,
,,,,3,1.578,0,13,13,284,1,"assortment of heart themed objects, including a yellow heart with pink spots laying horizontally, sitting on a wooden board","assortment of heart themed objects, including a yellow heart with pink spots laying diagonally, sitting on a wooden board",ma,75958241,8,29,A25L49JWMXDWCJ,2021-01-08_12h42.53.279,MetaAwareness,2020.1.2,Win32,60,3511RHPADWH1Z4YUNS9JX1M421LRLV,A25L49JWMXDWCJ,33M4IA01QH4ZLIDDRDH9WECFZNRRX7,1IM30,1IM30,33M4IA01QH4ZLIDDRDH9WECFZNRRX7,33M4IA01QH4ZLIDDRDH9WECFZNRRX7,268040,268040,,,,,,,,,,
,,,,2,0.934,0,14,14,170,1,a group of six toys where the one in the front has pink legs,a group of six toys where the one in the front has purple legs,ma,48384711,10,29,A25L49JWMXDWCJ,2021-01-08_12h42.53.279,MetaAwareness,2020.1.2,Win32,60,3511RHPADWH1Z4YUNS9JX1M421LRLV,A25L49JWMXDWCJ,33M4IA01QH4ZLIDDRDH9WECFZNRRX7,1IM30,1IM30,33M4IA01QH4ZLIDDRDH9WECFZNRRX7,33M4IA01QH4ZLIDDRDH9WECFZNRRX7,268040,268040,,,,,,,,,,
,,,,5,1.359,0,15,15,219,1,"a tea set with multiple cups, including a yellow cup with green interior","a tea set with multiple cups, including a yellow cup with a tan interior",ma,62224663,5,29,A25L49JWMXDWCJ,2021-01-08_12h42.53.279,MetaAwareness,2020.1.2,Win32,60,3511RHPADWH1Z4YUNS9JX1M421LRLV,A25L49JWMXDWCJ,33M4IA01QH4ZLIDDRDH9WECFZNRRX7,1IM30,1IM30,33M4IA01QH4ZLIDDRDH9WECFZNRRX7,33M4IA01QH4ZLIDDRDH9WECFZNRRX7,268040,268040,,,,,,,,,,
,,,,6,1.638,0,16,16,277,1,a set of christmas figures made of fondant on a plate with one reindeer pointing towards the left,a set of christmas figures made of fondant on a plate with one reindeer pointing towards the bottom of the image,ma,75081153,4,29,A25L49JWMXDWCJ,2021-01-08_12h42.53.279,MetaAwareness,2020.1.2,Win32,60,3511RHPADWH1Z4YUNS9JX1M421LRLV,A25L49JWMXDWCJ,33M4IA01QH4ZLIDDRDH9WECFZNRRX7,1IM30,1IM30,33M4IA01QH4ZLIDDRDH9WECFZNRRX7,33M4IA01QH4ZLIDDRDH9WECFZNRRX7,268040,268040,,,,,,,,,,
,,,,2,1.442,0,17,17,82,1,"a picture of a crowded room with lots of stationary scattered throughout, including a yellow notebook in the upper right corner.","a picutre of a messy room with lots of stationary scattered throughout, including a red notebook in the upper right corner.",ma,23199105,2,29,A25L49JWMXDWCJ,2021-01-08_12h42.53.279,MetaAwareness,2020.1.2,Win32,60,3511RHPADWH1Z4YUNS9JX1M421LRLV,A25L49JWMXDWCJ,33M4IA01QH4ZLIDDRDH9WECFZNRRX7,1IM30,1IM30,33M4IA01QH4ZLIDDRDH9WECFZNRRX7,33M4IA01QH4ZLIDDRDH9WECFZNRRX7,268040,268040,,,,,,,,,,
,,,,2,1.333,0,18,18,158,1,a chocolate cake with a brown smiley face.,a chocolate cake with a red smiley face.,ma,46635293,2,29,A25L49JWMXDWCJ,2021-01-08_12h42.53.279,MetaAwareness,2020.1.2,Win32,60,3511RHPADWH1Z4YUNS9JX1M421LRLV,A25L49JWMXDWCJ,33M4IA01QH4ZLIDDRDH9WECFZNRRX7,1IM30,1IM30,33M4IA01QH4ZLIDDRDH9WECFZNRRX7,33M4IA01QH4ZLIDDRDH9WECFZNRRX7,268040,268040,,,,,,,,,,
,,,,1,0.919,0,19,19,30,1,presumably a colorful hot air balloon with one section being miscolored as purple.,presumably a colorful hot air balloon with one section matching the rest as yellow.,ma,12178414,5,29,A25L49JWMXDWCJ,2021-01-08_12h42.53.279,MetaAwareness,2020.1.2,Win32,60,3511RHPADWH1Z4YUNS9JX1M421LRLV,A25L49JWMXDWCJ,33M4IA01QH4ZLIDDRDH9WECFZNRRX7,1IM30,1IM30,33M4IA01QH4ZLIDDRDH9WECFZNRRX7,33M4IA01QH4ZLIDDRDH9WECFZNRRX7,268040,268040,,,,,,,,,,
,,,,5,0.943,0,20,20,48,1,brown pillow on brown patterned chair,brown pillow on brown patterned chair,ma,13873251,5,29,A25L49JWMXDWCJ,2021-01-08_12h42.53.279,MetaAwareness,2020.1.2,Win32,60,3511RHPADWH1Z4YUNS9JX1M421LRLV,A25L49JWMXDWCJ,33M4IA01QH4ZLIDDRDH9WECFZNRRX7,1IM30,1IM30,33M4IA01QH4ZLIDDRDH9WECFZNRRX7,33M4IA01QH4ZLIDDRDH9WECFZNRRX7,268040,268040,,,,,,,,,,
,,,,6,1.257,0,21,21,112,1,a birthday cake with a toybox and toys in it. the star is upside down .,a birthday cake with a toybox and toys in it. the star is rightside up,ma,32289063,4,29,A25L49JWMXDWCJ,2021-01-08_12h42.53.279,MetaAwareness,2020.1.2,Win32,60,3511RHPADWH1Z4YUNS9JX1M421LRLV,A25L49JWMXDWCJ,33M4IA01QH4ZLIDDRDH9WECFZNRRX7,1IM30,1IM30,33M4IA01QH4ZLIDDRDH9WECFZNRRX7,33M4IA01QH4ZLIDDRDH9WECFZNRRX7,268040,268040,,,,,,,,,,
,,,,6,0.639,0,22,22,220,1,a pile of decorative dishes. a blue bowl rests at the bottom while a yellow bowl with a green interior sits in top,a pile of decorative dishes. a blue bowl rests at the bottom while a yellow bowl with and white interior sits on top,ma,62224663,6,29,A25L49JWMXDWCJ,2021-01-08_12h42.53.279,MetaAwareness,2020.1.2,Win32,60,3511RHPADWH1Z4YUNS9JX1M421LRLV,A25L49JWMXDWCJ,33M4IA01QH4ZLIDDRDH9WECFZNRRX7,1IM30,1IM30,33M4IA01QH4ZLIDDRDH9WECFZNRRX7,33M4IA01QH4ZLIDDRDH9WECFZNRRX7,268040,268040,,,,,,,,,,
,,,,3,0.548,0,23,23,229,1,"a bunch of pink napkins in cups, and plates with forks next to it, except one","a bunch of pink napkins in cups, and plates that all have forks next to them",ma,67862299,6,29,A25L49JWMXDWCJ,2021-01-08_12h42.53.279,MetaAwareness,2020.1.2,Win32,60,3511RHPADWH1Z4YUNS9JX1M421LRLV,A25L49JWMXDWCJ,33M4IA01QH4ZLIDDRDH9WECFZNRRX7,1IM30,1IM30,33M4IA01QH4ZLIDDRDH9WECFZNRRX7,33M4IA01QH4ZLIDDRDH9WECFZNRRX7,268040,268040,,,,,,,,,,
,,,,5,0.279,0,24,24,193,1,there are a pile of rocks to the right of the flowers and the rock to the rightmost of the picture is grey,there are a pile of rocks to the right of the flowers and the rocks to the rightmost of the picture are sandy or brown.,ma,56835136,1,29,A25L49JWMXDWCJ,2021-01-08_12h42.53.279,MetaAwareness,2020.1.2,Win32,60,3511RHPADWH1Z4YUNS9JX1M421LRLV,A25L49JWMXDWCJ,33M4IA01QH4ZLIDDRDH9WECFZNRRX7,1IM30,1IM30,33M4IA01QH4ZLIDDRDH9WECFZNRRX7,33M4IA01QH4ZLIDDRDH9WECFZNRRX7,268040,268040,,,,,,,,,,
,,,,3,1.631,0,25,25,327,1,a circuit board with various ciruits and a light up board in the back  with a long metal circuit in the front of the board.,a circuit board with various circuits and a light up board in the back with a short metal circuit in the front of the board.,ma,8197559,2,29,A25L49JWMXDWCJ,2021-01-08_12h42.53.279,MetaAwareness,2020.1.2,Win32,60,3511RHPADWH1Z4YUNS9JX1M421LRLV,A25L49JWMXDWCJ,33M4IA01QH4ZLIDDRDH9WECFZNRRX7,1IM30,1IM30,33M4IA01QH4ZLIDDRDH9WECFZNRRX7,33M4IA01QH4ZLIDDRDH9WECFZNRRX7,268040,268040,,,,,,,,,,
,,,,5,1.09,0,26,26,237,1,a wooden piece of art of squares with a business address and phone number,a wooden piece of art that has squares with address and phone numbers in them,ma,69128765,8,29,A25L49JWMXDWCJ,2021-01-08_12h42.53.279,MetaAwareness,2020.1.2,Win32,60,3511RHPADWH1Z4YUNS9JX1M421LRLV,A25L49JWMXDWCJ,33M4IA01QH4ZLIDDRDH9WECFZNRRX7,1IM30,1IM30,33M4IA01QH4ZLIDDRDH9WECFZNRRX7,33M4IA01QH4ZLIDDRDH9WECFZNRRX7,268040,268040,,,,,,,,,,
,,,,6,1.137,0,27,27,218,1,a yellow color  bowl with green shaded are available inside.,a yellow color bowl with cream chaded are available inside,ma,62224663,4,29,A25L49JWMXDWCJ,2021-01-08_12h42.53.279,MetaAwareness,2020.1.2,Win32,60,3511RHPADWH1Z4YUNS9JX1M421LRLV,A25L49JWMXDWCJ,33M4IA01QH4ZLIDDRDH9WECFZNRRX7,1IM30,1IM30,33M4IA01QH4ZLIDDRDH9WECFZNRRX7,33M4IA01QH4ZLIDDRDH9WECFZNRRX7,268040,268040,,,,,,,,,,
,,,,6,1.403,0,28,28,105,1,"a quilt with handprint designs on it lays on a wooden background, with a golden apple in the bottom middle square.","a quilt with handprint designs on it lays on a wooden background, with an orange apple in the bottom middle square.",ma,3099758,2,29,A25L49JWMXDWCJ,2021-01-08_12h42.53.279,MetaAwareness,2020.1.2,Win32,60,3511RHPADWH1Z4YUNS9JX1M421LRLV,A25L49JWMXDWCJ,33M4IA01QH4ZLIDDRDH9WECFZNRRX7,1IM30,1IM30,33M4IA01QH4ZLIDDRDH9WECFZNRRX7,33M4IA01QH4ZLIDDRDH9WECFZNRRX7,268040,268040,,,,,,,,,,
,,,,3,0.095,0,29,29,74,1,"a bunch of embroidered houses, one of which has a square window",a bunchof embroidered houses one of which has a rectangular window,ma,23024660,4,29,A25L49JWMXDWCJ,2021-01-08_12h42.53.279,MetaAwareness,2020.1.2,Win32,60,3511RHPADWH1Z4YUNS9JX1M421LRLV,A25L49JWMXDWCJ,33M4IA01QH4ZLIDDRDH9WECFZNRRX7,1IM30,1IM30,33M4IA01QH4ZLIDDRDH9WECFZNRRX7,33M4IA01QH4ZLIDDRDH9WECFZNRRX7,268040,268040,,,,,,,,,,
,,,,,,,,,,,,,,,,29,A25L49JWMXDWCJ,2021-01-08_12h42.53.279,MetaAwareness,2020.1.2,Win32,60,3511RHPADWH1Z4YUNS9JX1M421LRLV,A25L49JWMXDWCJ,33M4IA01QH4ZLIDDRDH9WECFZNRRX7,1IM30,1IM30,33M4IA01QH4ZLIDDRDH9WECFZNRRX7,33M4IA01QH4ZLIDDRDH9WECFZNRRX7,268040,268040,6,0.181,someone laying underneath a blue beach umbrella on a crowded beach,someone laying underneath a blue beach umbrella on a crowded beach,same,5,1.408,members of a marching band crossing a track that all have feather plumes at the front of their hats,a cluttered and rustic looking cafe with 10 hanging lights,different
