consent_response.keys,consent_response.rt,key_resp_2.keys,key_resp_2.rt,user_resp.keys,user_resp.rt,trials.thisRepN,trials.thisTrialN,trials.thisN,trials.thisIndex,trials.ran,image_1_text,image_2_text,database,image,number,age,worker_ID,date,expName,psychopyVersion,OS,frameRate,hitId,workerId,assignmentId,a,tp_a,b,tp_b,c,tp_c,catch_same_resp.keys,catch_same_resp.rt,image_1_text_catch_same,image_2_text_catch_same,image_catch_same,catch_different_resp.keys,catch_different_resp.rt,image_1_text_catch_different,image_2_text_catch_different,image_catch_different
space,1.98406,space,4.12324,2,10.823125,0,0,0,311,1,there's a green bag in the yellow box,there's a black bag in the yellow box,ma,79191795,3,43,A2S64AUN7JI7ZS,2021-01-08_11h06.19.398,MetaAwareness,2020.1.2,Win32,60,3511RHPADWH1Z4YUNS9JX1M421LRLV,A2S64AUN7JI7ZS,3ZDAD0O1T2GC1XQ5V2M4WTDXN8OTXM,1DDZ0,1DDZ0,3ZDAD0O1T2GC1XQ5V2M4WTDXN8OTXM,3ZDAD0O1T2GC1XQ5V2M4WTDXN8OTXM,268040,268040,,,,,,,,,,
,,,,1,7.708545,0,1,1,261,1,the picture contain the butterfly,in the pillow the picture is strawberry,ma,73637203,3,43,A2S64AUN7JI7ZS,2021-01-08_11h06.19.398,MetaAwareness,2020.1.2,Win32,60,3511RHPADWH1Z4YUNS9JX1M421LRLV,A2S64AUN7JI7ZS,3ZDAD0O1T2GC1XQ5V2M4WTDXN8OTXM,1DDZ0,1DDZ0,3ZDAD0O1T2GC1XQ5V2M4WTDXN8OTXM,3ZDAD0O1T2GC1XQ5V2M4WTDXN8OTXM,268040,268040,,,,,,,,,,
,,,,4,8.810085,0,2,2,360,1,a picture of a table set up for dinner. the table is covered with a table cloth that has printings of red and yellow flowers.,a picture of a table set up for dinner. the table is covered with a table cloth that has printings of red flowers.,ma,87983207,1,43,A2S64AUN7JI7ZS,2021-01-08_11h06.19.398,MetaAwareness,2020.1.2,Win32,60,3511RHPADWH1Z4YUNS9JX1M421LRLV,A2S64AUN7JI7ZS,3ZDAD0O1T2GC1XQ5V2M4WTDXN8OTXM,1DDZ0,1DDZ0,3ZDAD0O1T2GC1XQ5V2M4WTDXN8OTXM,3ZDAD0O1T2GC1XQ5V2M4WTDXN8OTXM,268040,268040,,,,,,,,,,
,,,,3,8.99415,0,3,3,398,1,a brick building that houses total a-v systems inc. the second of 6 windows on the second story has a screen in the top half of the window,a brick building that houses a total a-v systems inc. the second of 6 windows on the second story has a screen in the middle of the window,ma,95091295,6,43,A2S64AUN7JI7ZS,2021-01-08_11h06.19.398,MetaAwareness,2020.1.2,Win32,60,3511RHPADWH1Z4YUNS9JX1M421LRLV,A2S64AUN7JI7ZS,3ZDAD0O1T2GC1XQ5V2M4WTDXN8OTXM,1DDZ0,1DDZ0,3ZDAD0O1T2GC1XQ5V2M4WTDXN8OTXM,3ZDAD0O1T2GC1XQ5V2M4WTDXN8OTXM,268040,268040,,,,,,,,,,
,,,,4,9.023515,0,4,4,395,1,a exterior of the buildin with all windows open on top floor,an exterior of the building with one window partially closed.,ma,95091295,2,43,A2S64AUN7JI7ZS,2021-01-08_11h06.19.398,MetaAwareness,2020.1.2,Win32,60,3511RHPADWH1Z4YUNS9JX1M421LRLV,A2S64AUN7JI7ZS,3ZDAD0O1T2GC1XQ5V2M4WTDXN8OTXM,1DDZ0,1DDZ0,3ZDAD0O1T2GC1XQ5V2M4WTDXN8OTXM,3ZDAD0O1T2GC1XQ5V2M4WTDXN8OTXM,268040,268040,,,,,,,,,,
,,,,3,5.263725,0,5,5,26,1,a robot shaped cake with red detailing on the side,a robot shaped cake with yellow detaining on the side,ma,12115280,7,43,A2S64AUN7JI7ZS,2021-01-08_11h06.19.398,MetaAwareness,2020.1.2,Win32,60,3511RHPADWH1Z4YUNS9JX1M421LRLV,A2S64AUN7JI7ZS,3ZDAD0O1T2GC1XQ5V2M4WTDXN8OTXM,1DDZ0,1DDZ0,3ZDAD0O1T2GC1XQ5V2M4WTDXN8OTXM,3ZDAD0O1T2GC1XQ5V2M4WTDXN8OTXM,268040,268040,,,,,,,,,,
,,,,2,14.261105,0,6,6,69,1,a group of photos are surrounded by flowers and decorative objects. there is nothing in the middle right side on the yellow blanket below the white photo.,a group of photos are surrounded by flowers and decorative objects. there is a group of purple flower pettles on the yellow blanket below the white photo.,ma,22020472,4,43,A2S64AUN7JI7ZS,2021-01-08_11h06.19.398,MetaAwareness,2020.1.2,Win32,60,3511RHPADWH1Z4YUNS9JX1M421LRLV,A2S64AUN7JI7ZS,3ZDAD0O1T2GC1XQ5V2M4WTDXN8OTXM,1DDZ0,1DDZ0,3ZDAD0O1T2GC1XQ5V2M4WTDXN8OTXM,3ZDAD0O1T2GC1XQ5V2M4WTDXN8OTXM,268040,268040,,,,,,,,,,
,,,,5,10.45281,0,7,7,74,1,"a bunch of embroidered houses, one of which has a square window",a bunchof embroidered houses one of which has a rectangular window,ma,23024660,4,43,A2S64AUN7JI7ZS,2021-01-08_11h06.19.398,MetaAwareness,2020.1.2,Win32,60,3511RHPADWH1Z4YUNS9JX1M421LRLV,A2S64AUN7JI7ZS,3ZDAD0O1T2GC1XQ5V2M4WTDXN8OTXM,1DDZ0,1DDZ0,3ZDAD0O1T2GC1XQ5V2M4WTDXN8OTXM,3ZDAD0O1T2GC1XQ5V2M4WTDXN8OTXM,268040,268040,,,,,,,,,,
,,,,6,18.958975,0,8,8,419,1,"a checkered cloth table with small books and pamphlets, including a black book with a white sillouette of a man on the right side of the cover","a checkered cloth table with small books and pamphlets, including a blackbook with a white sillouette of a man on the right side of the cover",ma,98265889,1,43,A2S64AUN7JI7ZS,2021-01-08_11h06.19.398,MetaAwareness,2020.1.2,Win32,60,3511RHPADWH1Z4YUNS9JX1M421LRLV,A2S64AUN7JI7ZS,3ZDAD0O1T2GC1XQ5V2M4WTDXN8OTXM,1DDZ0,1DDZ0,3ZDAD0O1T2GC1XQ5V2M4WTDXN8OTXM,3ZDAD0O1T2GC1XQ5V2M4WTDXN8OTXM,268040,268040,,,,,,,,,,
,,,,3,8.53738,0,9,9,233,1,business cards with a website on it,business cards without a website on them,ma,69128765,4,43,A2S64AUN7JI7ZS,2021-01-08_11h06.19.398,MetaAwareness,2020.1.2,Win32,60,3511RHPADWH1Z4YUNS9JX1M421LRLV,A2S64AUN7JI7ZS,3ZDAD0O1T2GC1XQ5V2M4WTDXN8OTXM,1DDZ0,1DDZ0,3ZDAD0O1T2GC1XQ5V2M4WTDXN8OTXM,3ZDAD0O1T2GC1XQ5V2M4WTDXN8OTXM,268040,268040,,,,,,,,,,
,,,,6,11.71659,0,10,10,423,1,a table with phamplets and business cards and passports,a table with business cards and pamphlets with passports,ma,98265889,5,43,A2S64AUN7JI7ZS,2021-01-08_11h06.19.398,MetaAwareness,2020.1.2,Win32,60,3511RHPADWH1Z4YUNS9JX1M421LRLV,A2S64AUN7JI7ZS,3ZDAD0O1T2GC1XQ5V2M4WTDXN8OTXM,1DDZ0,1DDZ0,3ZDAD0O1T2GC1XQ5V2M4WTDXN8OTXM,3ZDAD0O1T2GC1XQ5V2M4WTDXN8OTXM,268040,268040,,,,,,,,,,
,,,,6,9.4851,0,11,11,394,1,a two story red brick building with white trim. there are six windows on the second floor and three windows on the first floord,a two story red brick building with white trim there are six windows on the second floor and three windows on the first floor.,ma,95091295,1,43,A2S64AUN7JI7ZS,2021-01-08_11h06.19.398,MetaAwareness,2020.1.2,Win32,60,3511RHPADWH1Z4YUNS9JX1M421LRLV,A2S64AUN7JI7ZS,3ZDAD0O1T2GC1XQ5V2M4WTDXN8OTXM,1DDZ0,1DDZ0,3ZDAD0O1T2GC1XQ5V2M4WTDXN8OTXM,3ZDAD0O1T2GC1XQ5V2M4WTDXN8OTXM,268040,268040,,,,,,,,,,
,,,,3,13.650435,0,12,12,424,1,a table holds an assortment of pamphlets. one is black with a figure on the right.,a table holds an assortment of pamphlets. one is black with a figure on the left.,ma,98265889,6,43,A2S64AUN7JI7ZS,2021-01-08_11h06.19.398,MetaAwareness,2020.1.2,Win32,60,3511RHPADWH1Z4YUNS9JX1M421LRLV,A2S64AUN7JI7ZS,3ZDAD0O1T2GC1XQ5V2M4WTDXN8OTXM,1DDZ0,1DDZ0,3ZDAD0O1T2GC1XQ5V2M4WTDXN8OTXM,3ZDAD0O1T2GC1XQ5V2M4WTDXN8OTXM,268040,268040,,,,,,,,,,
,,,,3,7.65512,0,13,13,339,1,a stone mansion with six windows on the top row.,a stone mansion with seven windows on the top row.,ma,83536470,3,43,A2S64AUN7JI7ZS,2021-01-08_11h06.19.398,MetaAwareness,2020.1.2,Win32,60,3511RHPADWH1Z4YUNS9JX1M421LRLV,A2S64AUN7JI7ZS,3ZDAD0O1T2GC1XQ5V2M4WTDXN8OTXM,1DDZ0,1DDZ0,3ZDAD0O1T2GC1XQ5V2M4WTDXN8OTXM,3ZDAD0O1T2GC1XQ5V2M4WTDXN8OTXM,268040,268040,,,,,,,,,,
,,,,3,11.502845,0,14,14,417,1,an office with a desk and two monitors and various office supplies with a sword half pulled out of a scabbard taking up a large portion of the wall,an office with a desk and two monitors and various office supplies with a sword slightly pulled out of the scabbard in the left corner,ma,98156944,9,43,A2S64AUN7JI7ZS,2021-01-08_11h06.19.398,MetaAwareness,2020.1.2,Win32,60,3511RHPADWH1Z4YUNS9JX1M421LRLV,A2S64AUN7JI7ZS,3ZDAD0O1T2GC1XQ5V2M4WTDXN8OTXM,1DDZ0,1DDZ0,3ZDAD0O1T2GC1XQ5V2M4WTDXN8OTXM,3ZDAD0O1T2GC1XQ5V2M4WTDXN8OTXM,268040,268040,,,,,,,,,,
,,,,4,17.064975,0,15,15,296,1,"a table with small glasses, a bowl of pears and flowers in the vase. the flowers in the box are green.","a table with small glasses, a bowl full of pears and flowers in the vase. the flowers in the box are purple.",ma,77574131,3,43,A2S64AUN7JI7ZS,2021-01-08_11h06.19.398,MetaAwareness,2020.1.2,Win32,60,3511RHPADWH1Z4YUNS9JX1M421LRLV,A2S64AUN7JI7ZS,3ZDAD0O1T2GC1XQ5V2M4WTDXN8OTXM,1DDZ0,1DDZ0,3ZDAD0O1T2GC1XQ5V2M4WTDXN8OTXM,3ZDAD0O1T2GC1XQ5V2M4WTDXN8OTXM,268040,268040,,,,,,,,,,
,,,,4,7.984465,0,16,16,156,1,"jars filled with seasonings and other kitchen goods sits on a shelf, while one in the bottom center has a red label.","jars filled with seasonings and other kitchen goods sits on a shelf, while one in the bottom center has a green label.",ma,46475259,5,43,A2S64AUN7JI7ZS,2021-01-08_11h06.19.398,MetaAwareness,2020.1.2,Win32,60,3511RHPADWH1Z4YUNS9JX1M421LRLV,A2S64AUN7JI7ZS,3ZDAD0O1T2GC1XQ5V2M4WTDXN8OTXM,1DDZ0,1DDZ0,3ZDAD0O1T2GC1XQ5V2M4WTDXN8OTXM,3ZDAD0O1T2GC1XQ5V2M4WTDXN8OTXM,268040,268040,,,,,,,,,,
,,,,4,13.51067,0,17,17,309,1,"there are two rows of backpacks on a shelf with the eighth one on the top row being green, and a bicycle in front of them","there are two rows of backpacks on a shelf with the eighth one on the top row being black, and a bicycle in front of them",ma,79191795,1,43,A2S64AUN7JI7ZS,2021-01-08_11h06.19.398,MetaAwareness,2020.1.2,Win32,60,3511RHPADWH1Z4YUNS9JX1M421LRLV,A2S64AUN7JI7ZS,3ZDAD0O1T2GC1XQ5V2M4WTDXN8OTXM,1DDZ0,1DDZ0,3ZDAD0O1T2GC1XQ5V2M4WTDXN8OTXM,3ZDAD0O1T2GC1XQ5V2M4WTDXN8OTXM,268040,268040,,,,,,,,,,
,,,,3,11.639485,0,18,18,214,1,a wooden calendar with numbers drawn on. the six is crooked slightly drawn to the left,a woode calendar with numbers drawn on. the six is straight like the other numbers,ma,62096551,6,43,A2S64AUN7JI7ZS,2021-01-08_11h06.19.398,MetaAwareness,2020.1.2,Win32,60,3511RHPADWH1Z4YUNS9JX1M421LRLV,A2S64AUN7JI7ZS,3ZDAD0O1T2GC1XQ5V2M4WTDXN8OTXM,1DDZ0,1DDZ0,3ZDAD0O1T2GC1XQ5V2M4WTDXN8OTXM,3ZDAD0O1T2GC1XQ5V2M4WTDXN8OTXM,268040,268040,,,,,,,,,,
,,,,3,15.15614,0,19,19,115,1,a toy box cake with toys on top with a lid and the name rolly with a sideways star below the name,a toy box cake with toys on top with a lid and the name rolly with a straight facing star below the name,ma,32289063,7,43,A2S64AUN7JI7ZS,2021-01-08_11h06.19.398,MetaAwareness,2020.1.2,Win32,60,3511RHPADWH1Z4YUNS9JX1M421LRLV,A2S64AUN7JI7ZS,3ZDAD0O1T2GC1XQ5V2M4WTDXN8OTXM,1DDZ0,1DDZ0,3ZDAD0O1T2GC1XQ5V2M4WTDXN8OTXM,3ZDAD0O1T2GC1XQ5V2M4WTDXN8OTXM,268040,268040,,,,,,,,,,
,,,,2,17.12026,0,20,20,42,1,a halloween themed quilt with little craft pumpkins,pictures of small fall trees on a halloween themed quilt,ma,1383096,2,43,A2S64AUN7JI7ZS,2021-01-08_11h06.19.398,MetaAwareness,2020.1.2,Win32,60,3511RHPADWH1Z4YUNS9JX1M421LRLV,A2S64AUN7JI7ZS,3ZDAD0O1T2GC1XQ5V2M4WTDXN8OTXM,1DDZ0,1DDZ0,3ZDAD0O1T2GC1XQ5V2M4WTDXN8OTXM,3ZDAD0O1T2GC1XQ5V2M4WTDXN8OTXM,268040,268040,,,,,,,,,,
,,,,4,9.93779,0,21,21,144,1,a computer desk with a computer a tablet office supplies and a bin with a label in the middle of the front of the bin,a computer desk with a computer a tablet office supplies and a bin with a label on the top of the front of the bin,ma,4247084,6,43,A2S64AUN7JI7ZS,2021-01-08_11h06.19.398,MetaAwareness,2020.1.2,Win32,60,3511RHPADWH1Z4YUNS9JX1M421LRLV,A2S64AUN7JI7ZS,3ZDAD0O1T2GC1XQ5V2M4WTDXN8OTXM,1DDZ0,1DDZ0,3ZDAD0O1T2GC1XQ5V2M4WTDXN8OTXM,3ZDAD0O1T2GC1XQ5V2M4WTDXN8OTXM,268040,268040,,,,,,,,,,
,,,,4,83.669345,0,22,22,277,1,a set of christmas figures made of fondant on a plate with one reindeer pointing towards the left,a set of christmas figures made of fondant on a plate with one reindeer pointing towards the bottom of the image,ma,75081153,4,43,A2S64AUN7JI7ZS,2021-01-08_11h06.19.398,MetaAwareness,2020.1.2,Win32,60,3511RHPADWH1Z4YUNS9JX1M421LRLV,A2S64AUN7JI7ZS,3ZDAD0O1T2GC1XQ5V2M4WTDXN8OTXM,1DDZ0,1DDZ0,3ZDAD0O1T2GC1XQ5V2M4WTDXN8OTXM,3ZDAD0O1T2GC1XQ5V2M4WTDXN8OTXM,268040,268040,,,,,,,,,,
,,,,6,6.750905,0,23,23,47,1,a waiting area with a comfortable looking chair and black pillow,a waiting area with a comfortable looking chair and black pillow,ma,13873251,4,43,A2S64AUN7JI7ZS,2021-01-08_11h06.19.398,MetaAwareness,2020.1.2,Win32,60,3511RHPADWH1Z4YUNS9JX1M421LRLV,A2S64AUN7JI7ZS,3ZDAD0O1T2GC1XQ5V2M4WTDXN8OTXM,1DDZ0,1DDZ0,3ZDAD0O1T2GC1XQ5V2M4WTDXN8OTXM,3ZDAD0O1T2GC1XQ5V2M4WTDXN8OTXM,268040,268040,,,,,,,,,,
,,,,4,6.303255,0,24,24,270,1,a wooden shelf with a variety of books and objects and a glass clock at 11 oclock,a wooden shelf with a variety of books and objects and a glass clock at 2 oclock,ma,74173745,5,43,A2S64AUN7JI7ZS,2021-01-08_11h06.19.398,MetaAwareness,2020.1.2,Win32,60,3511RHPADWH1Z4YUNS9JX1M421LRLV,A2S64AUN7JI7ZS,3ZDAD0O1T2GC1XQ5V2M4WTDXN8OTXM,1DDZ0,1DDZ0,3ZDAD0O1T2GC1XQ5V2M4WTDXN8OTXM,3ZDAD0O1T2GC1XQ5V2M4WTDXN8OTXM,268040,268040,,,,,,,,,,
,,,,5,9.76765,0,25,25,247,1,"a quilt with green, grey and red checks that repeat on the fourth row as light, dark, medium, and dark","a quilt with green, grey, and red checks that repeat on the fourth row as light, dark, light, dark",ma,70687495,9,43,A2S64AUN7JI7ZS,2021-01-08_11h06.19.398,MetaAwareness,2020.1.2,Win32,60,3511RHPADWH1Z4YUNS9JX1M421LRLV,A2S64AUN7JI7ZS,3ZDAD0O1T2GC1XQ5V2M4WTDXN8OTXM,1DDZ0,1DDZ0,3ZDAD0O1T2GC1XQ5V2M4WTDXN8OTXM,3ZDAD0O1T2GC1XQ5V2M4WTDXN8OTXM,268040,268040,,,,,,,,,,
,,,,4,4.173635,0,26,26,363,1,a set table with a table cloth that has orange flowers,a set table with a table cloth that has red flowers,ma,87983207,4,43,A2S64AUN7JI7ZS,2021-01-08_11h06.19.398,MetaAwareness,2020.1.2,Win32,60,3511RHPADWH1Z4YUNS9JX1M421LRLV,A2S64AUN7JI7ZS,3ZDAD0O1T2GC1XQ5V2M4WTDXN8OTXM,1DDZ0,1DDZ0,3ZDAD0O1T2GC1XQ5V2M4WTDXN8OTXM,3ZDAD0O1T2GC1XQ5V2M4WTDXN8OTXM,268040,268040,,,,,,,,,,
,,,,3,4.617675,0,27,27,231,1,the writing is at the bottom,the writing is at the top,ma,69128765,2,43,A2S64AUN7JI7ZS,2021-01-08_11h06.19.398,MetaAwareness,2020.1.2,Win32,60,3511RHPADWH1Z4YUNS9JX1M421LRLV,A2S64AUN7JI7ZS,3ZDAD0O1T2GC1XQ5V2M4WTDXN8OTXM,1DDZ0,1DDZ0,3ZDAD0O1T2GC1XQ5V2M4WTDXN8OTXM,3ZDAD0O1T2GC1XQ5V2M4WTDXN8OTXM,268040,268040,,,,,,,,,,
,,,,3,14.70079,0,28,28,118,1,a small display piece in the form of a toybox with an askew star on the front,a small display piece in the form of a toybox with a traditionally formed star on the front,ma,32289063,10,43,A2S64AUN7JI7ZS,2021-01-08_11h06.19.398,MetaAwareness,2020.1.2,Win32,60,3511RHPADWH1Z4YUNS9JX1M421LRLV,A2S64AUN7JI7ZS,3ZDAD0O1T2GC1XQ5V2M4WTDXN8OTXM,1DDZ0,1DDZ0,3ZDAD0O1T2GC1XQ5V2M4WTDXN8OTXM,3ZDAD0O1T2GC1XQ5V2M4WTDXN8OTXM,268040,268040,,,,,,,,,,
,,,,4,11.207235,0,29,29,381,1,a set of green fabric pillows with gift tags and a stack of orange envelopes with an upside down gnome stamp on the top one,a set of green fabric pillows with gift tags and a stack of orange envelopes with a gnome stamp on the top one,ma,8974554,4,43,A2S64AUN7JI7ZS,2021-01-08_11h06.19.398,MetaAwareness,2020.1.2,Win32,60,3511RHPADWH1Z4YUNS9JX1M421LRLV,A2S64AUN7JI7ZS,3ZDAD0O1T2GC1XQ5V2M4WTDXN8OTXM,1DDZ0,1DDZ0,3ZDAD0O1T2GC1XQ5V2M4WTDXN8OTXM,3ZDAD0O1T2GC1XQ5V2M4WTDXN8OTXM,268040,268040,,,,,,,,,,
,,,,,,,,,,,,,,,,43,A2S64AUN7JI7ZS,2021-01-08_11h06.19.398,MetaAwareness,2020.1.2,Win32,60,3511RHPADWH1Z4YUNS9JX1M421LRLV,A2S64AUN7JI7ZS,3ZDAD0O1T2GC1XQ5V2M4WTDXN8OTXM,1DDZ0,1DDZ0,3ZDAD0O1T2GC1XQ5V2M4WTDXN8OTXM,3ZDAD0O1T2GC1XQ5V2M4WTDXN8OTXM,268040,268040,6,8.678615,someone laying underneath a blue beach umbrella on a crowded beach,someone laying underneath a blue beach umbrella on a crowded beach,same,1,5.551495,members of a marching band crossing a track that all have feather plumes at the front of their hats,a cluttered and rustic looking cafe with 10 hanging lights,different
