consent_response.keys,consent_response.rt,key_resp_2.keys,key_resp_2.rt,user_resp.keys,user_resp.rt,trials.thisRepN,trials.thisTrialN,trials.thisN,trials.thisIndex,trials.ran,image_1_text,image_2_text,database,image,number,age,worker_ID,date,expName,psychopyVersion,OS,frameRate,hitId,workerId,assignmentId,a,tp_a,b,tp_b,c,tp_c,catch_same_resp.keys,catch_same_resp.rt,image_1_text_catch_same,image_2_text_catch_same,image_catch_same,catch_different_resp.keys,catch_different_resp.rt,image_1_text_catch_different,image_2_text_catch_different,image_catch_different
space,25.94152,space,24.886365,5,46.178195,0,0,0,296,1,"a table with small glasses, a bowl of pears and flowers in the vase. the flowers in the box are green.","a table with small glasses, a bowl full of pears and flowers in the vase. the flowers in the box are purple.",ma,77574131,3,45,A2VLTSW6CXIUMR,2021-01-08_13h38.05.296,MetaAwareness,2020.1.2,Win32,60,3511RHPADWH1Z4YUNS9JX1M421LRLV,A2VLTSW6CXIUMR,3U5JL4WY5LCSKCBFG1LWOL15797X4U,YL5U0,YL5U0,3U5JL4WY5LCSKCBFG1LWOL15797X4U,3U5JL4WY5LCSKCBFG1LWOL15797X4U,268040,268040,,,,,,,,,,
,,,,4,33.31555,0,1,1,387,1,six fabric quilt stars with the blue one has no center button,six fabric quilt stars with the blue one having a hear shaped center button,ma,90405028,1,45,A2VLTSW6CXIUMR,2021-01-08_13h38.05.296,MetaAwareness,2020.1.2,Win32,60,3511RHPADWH1Z4YUNS9JX1M421LRLV,A2VLTSW6CXIUMR,3U5JL4WY5LCSKCBFG1LWOL15797X4U,YL5U0,YL5U0,3U5JL4WY5LCSKCBFG1LWOL15797X4U,3U5JL4WY5LCSKCBFG1LWOL15797X4U,268040,268040,,,,,,,,,,
,,,,6,52.524645,0,2,2,294,1,a table with a white table cloth 4 pears in a white bowl 2 candles and two containers a white ve with blue and white flowers are on the table,"a table with a white table cloth, four pears in a white bowl, two candles,  two containers and a white vase with blue and white flowers in it.",ma,77574131,1,45,A2VLTSW6CXIUMR,2021-01-08_13h38.05.296,MetaAwareness,2020.1.2,Win32,60,3511RHPADWH1Z4YUNS9JX1M421LRLV,A2VLTSW6CXIUMR,3U5JL4WY5LCSKCBFG1LWOL15797X4U,YL5U0,YL5U0,3U5JL4WY5LCSKCBFG1LWOL15797X4U,3U5JL4WY5LCSKCBFG1LWOL15797X4U,268040,268040,,,,,,,,,,
,,,,4,19.834775,0,3,3,421,1,"a table full of booklets and cards, one with a man appearing on the right side of the booklet.","a table full of booklets and cards, one with man appearing on the left side of the booklet.",ma,98265889,3,45,A2VLTSW6CXIUMR,2021-01-08_13h38.05.296,MetaAwareness,2020.1.2,Win32,60,3511RHPADWH1Z4YUNS9JX1M421LRLV,A2VLTSW6CXIUMR,3U5JL4WY5LCSKCBFG1LWOL15797X4U,YL5U0,YL5U0,3U5JL4WY5LCSKCBFG1LWOL15797X4U,3U5JL4WY5LCSKCBFG1LWOL15797X4U,268040,268040,,,,,,,,,,
,,,,3,21.00743,0,4,4,362,1,a tablecloth with one orange flower and the rest are red.,a tablecloth with red flowers,ma,87983207,3,45,A2VLTSW6CXIUMR,2021-01-08_13h38.05.296,MetaAwareness,2020.1.2,Win32,60,3511RHPADWH1Z4YUNS9JX1M421LRLV,A2VLTSW6CXIUMR,3U5JL4WY5LCSKCBFG1LWOL15797X4U,YL5U0,YL5U0,3U5JL4WY5LCSKCBFG1LWOL15797X4U,3U5JL4WY5LCSKCBFG1LWOL15797X4U,268040,268040,,,,,,,,,,
,,,,4,26.966385,0,5,5,272,1,a shelf which displays objects including two instruments with their needles pointing upward,"a shelf which displays objects including two instruments, one with its needle pointing up and the other with its needle pointing slightly to the right.",ma,74173745,7,45,A2VLTSW6CXIUMR,2021-01-08_13h38.05.296,MetaAwareness,2020.1.2,Win32,60,3511RHPADWH1Z4YUNS9JX1M421LRLV,A2VLTSW6CXIUMR,3U5JL4WY5LCSKCBFG1LWOL15797X4U,YL5U0,YL5U0,3U5JL4WY5LCSKCBFG1LWOL15797X4U,3U5JL4WY5LCSKCBFG1LWOL15797X4U,268040,268040,,,,,,,,,,
,,,,5,21.03906,0,6,6,46,1,a room full of furniture with a black tile border around it and a black and white sofa with a large black pillow.,a room full of furniture with a black tile border around it and a black and white sofa with a small black pillow.,ma,13873251,3,45,A2VLTSW6CXIUMR,2021-01-08_13h38.05.296,MetaAwareness,2020.1.2,Win32,60,3511RHPADWH1Z4YUNS9JX1M421LRLV,A2VLTSW6CXIUMR,3U5JL4WY5LCSKCBFG1LWOL15797X4U,YL5U0,YL5U0,3U5JL4WY5LCSKCBFG1LWOL15797X4U,3U5JL4WY5LCSKCBFG1LWOL15797X4U,268040,268040,,,,,,,,,,
,,,,5,26.92219,0,7,7,2,1,"a corner table with a vase full of flowers and a lamp, with a letter 'a' design on the wall and a centered painting of a coffee cup","a corner table with a vase full of flowers and a lamp, with a letter 'a' design on the wall and an off-centered painting of a coffee cup",ma,10504629,4,45,A2VLTSW6CXIUMR,2021-01-08_13h38.05.296,MetaAwareness,2020.1.2,Win32,60,3511RHPADWH1Z4YUNS9JX1M421LRLV,A2VLTSW6CXIUMR,3U5JL4WY5LCSKCBFG1LWOL15797X4U,YL5U0,YL5U0,3U5JL4WY5LCSKCBFG1LWOL15797X4U,3U5JL4WY5LCSKCBFG1LWOL15797X4U,268040,268040,,,,,,,,,,
,,,,4,17.465605,0,8,8,312,1,"a mountain bike in front of a variety of different colored mail boxes, predomnitaley  blue colored","a mountain bike in front of a variety of different colored mail boxes, with a black mailbox at its center",ma,79191795,4,45,A2VLTSW6CXIUMR,2021-01-08_13h38.05.296,MetaAwareness,2020.1.2,Win32,60,3511RHPADWH1Z4YUNS9JX1M421LRLV,A2VLTSW6CXIUMR,3U5JL4WY5LCSKCBFG1LWOL15797X4U,YL5U0,YL5U0,3U5JL4WY5LCSKCBFG1LWOL15797X4U,3U5JL4WY5LCSKCBFG1LWOL15797X4U,268040,268040,,,,,,,,,,
,,,,5,19.19425,0,9,9,87,1,a very messy craft table with a bright yellow book on top of a stack,a very messy craft table with a bright red book on top of a stack,ma,23199105,7,45,A2VLTSW6CXIUMR,2021-01-08_13h38.05.296,MetaAwareness,2020.1.2,Win32,60,3511RHPADWH1Z4YUNS9JX1M421LRLV,A2VLTSW6CXIUMR,3U5JL4WY5LCSKCBFG1LWOL15797X4U,YL5U0,YL5U0,3U5JL4WY5LCSKCBFG1LWOL15797X4U,3U5JL4WY5LCSKCBFG1LWOL15797X4U,268040,268040,,,,,,,,,,
,,,,5,15.66769,0,10,10,208,1,a white table with pink treats and a jar with a crooked label,a white table with pink treats and the jars all have straight labels,ma,61118260,5,45,A2VLTSW6CXIUMR,2021-01-08_13h38.05.296,MetaAwareness,2020.1.2,Win32,60,3511RHPADWH1Z4YUNS9JX1M421LRLV,A2VLTSW6CXIUMR,3U5JL4WY5LCSKCBFG1LWOL15797X4U,YL5U0,YL5U0,3U5JL4WY5LCSKCBFG1LWOL15797X4U,3U5JL4WY5LCSKCBFG1LWOL15797X4U,268040,268040,,,,,,,,,,
,,,,6,47.37488,0,11,11,191,1,a person at a table with coffee and two halloween pumpkins with a nose right above the mouth on the orange pumpkin,a person at  table with coffee and two halloween pumpkins with a nose right near the eyes on the orange pumpkin,ma,55174490,5,45,A2VLTSW6CXIUMR,2021-01-08_13h38.05.296,MetaAwareness,2020.1.2,Win32,60,3511RHPADWH1Z4YUNS9JX1M421LRLV,A2VLTSW6CXIUMR,3U5JL4WY5LCSKCBFG1LWOL15797X4U,YL5U0,YL5U0,3U5JL4WY5LCSKCBFG1LWOL15797X4U,3U5JL4WY5LCSKCBFG1LWOL15797X4U,268040,268040,,,,,,,,,,
,,,,2,76.111825,0,12,12,94,1,a blue decorated nursery wall with a large yellow moon,a blue decorated nursery wall with small yellow moon lamp,ma,24383097,6,45,A2VLTSW6CXIUMR,2021-01-08_13h38.05.296,MetaAwareness,2020.1.2,Win32,60,3511RHPADWH1Z4YUNS9JX1M421LRLV,A2VLTSW6CXIUMR,3U5JL4WY5LCSKCBFG1LWOL15797X4U,YL5U0,YL5U0,3U5JL4WY5LCSKCBFG1LWOL15797X4U,3U5JL4WY5LCSKCBFG1LWOL15797X4U,268040,268040,,,,,,,,,,
,,,,5,23.21566,0,13,13,304,1,a table with elegant desserts and flowere decorations,a table with delicious desserts and flowers and bows,ma,77793328,7,45,A2VLTSW6CXIUMR,2021-01-08_13h38.05.296,MetaAwareness,2020.1.2,Win32,60,3511RHPADWH1Z4YUNS9JX1M421LRLV,A2VLTSW6CXIUMR,3U5JL4WY5LCSKCBFG1LWOL15797X4U,YL5U0,YL5U0,3U5JL4WY5LCSKCBFG1LWOL15797X4U,3U5JL4WY5LCSKCBFG1LWOL15797X4U,268040,268040,,,,,,,,,,
,,,,5,28.65243,0,14,14,95,1,there are four elephant keychains magneted to a white board with foreign language words and the last word on the second last row ends with 'i',there are four elephant keychains magneted to a white board with foreign language words and the last word on the second last row is 'des',ma,25107991,1,45,A2VLTSW6CXIUMR,2021-01-08_13h38.05.296,MetaAwareness,2020.1.2,Win32,60,3511RHPADWH1Z4YUNS9JX1M421LRLV,A2VLTSW6CXIUMR,3U5JL4WY5LCSKCBFG1LWOL15797X4U,YL5U0,YL5U0,3U5JL4WY5LCSKCBFG1LWOL15797X4U,3U5JL4WY5LCSKCBFG1LWOL15797X4U,268040,268040,,,,,,,,,,
,,,,1,34.38972,0,15,15,153,1,a pantry area in a home kitchen,a small container in a pantry. i'm guessing it contains tea,ma,46475259,1,45,A2VLTSW6CXIUMR,2021-01-08_13h38.05.296,MetaAwareness,2020.1.2,Win32,60,3511RHPADWH1Z4YUNS9JX1M421LRLV,A2VLTSW6CXIUMR,3U5JL4WY5LCSKCBFG1LWOL15797X4U,YL5U0,YL5U0,3U5JL4WY5LCSKCBFG1LWOL15797X4U,3U5JL4WY5LCSKCBFG1LWOL15797X4U,268040,268040,,,,,,,,,,
,,,,5,65.397335,0,16,16,105,1,"a quilt with handprint designs on it lays on a wooden background, with a golden apple in the bottom middle square.","a quilt with handprint designs on it lays on a wooden background, with an orange apple in the bottom middle square.",ma,3099758,2,45,A2VLTSW6CXIUMR,2021-01-08_13h38.05.296,MetaAwareness,2020.1.2,Win32,60,3511RHPADWH1Z4YUNS9JX1M421LRLV,A2VLTSW6CXIUMR,3U5JL4WY5LCSKCBFG1LWOL15797X4U,YL5U0,YL5U0,3U5JL4WY5LCSKCBFG1LWOL15797X4U,3U5JL4WY5LCSKCBFG1LWOL15797X4U,268040,268040,,,,,,,,,,
,,,,5,78.08578,0,17,17,351,1,a hand towel with a fish and some letters. the letter in the box is small compared to the others,a hand towel witha a fish and some letters. the letter in the box is an apropriate size compared to the others.,ma,83785171,2,45,A2VLTSW6CXIUMR,2021-01-08_13h38.05.296,MetaAwareness,2020.1.2,Win32,60,3511RHPADWH1Z4YUNS9JX1M421LRLV,A2VLTSW6CXIUMR,3U5JL4WY5LCSKCBFG1LWOL15797X4U,YL5U0,YL5U0,3U5JL4WY5LCSKCBFG1LWOL15797X4U,3U5JL4WY5LCSKCBFG1LWOL15797X4U,268040,268040,,,,,,,,,,
,,,,5,38.252205,0,18,18,228,1,an outdoor party with table set and missing a setting,an outdoor party with table set and all the flatware in place,ma,67862299,5,45,A2VLTSW6CXIUMR,2021-01-08_13h38.05.296,MetaAwareness,2020.1.2,Win32,60,3511RHPADWH1Z4YUNS9JX1M421LRLV,A2VLTSW6CXIUMR,3U5JL4WY5LCSKCBFG1LWOL15797X4U,YL5U0,YL5U0,3U5JL4WY5LCSKCBFG1LWOL15797X4U,3U5JL4WY5LCSKCBFG1LWOL15797X4U,268040,268040,,,,,,,,,,
,,,,5,29.258515,0,19,19,355,1,a selection of various lights in different colors and shapes with a green light that has a cut out on a white base.,a selection of various lights in different colors and shapes with a white light that has a cut out on a white base.,ma,85741618,2,45,A2VLTSW6CXIUMR,2021-01-08_13h38.05.296,MetaAwareness,2020.1.2,Win32,60,3511RHPADWH1Z4YUNS9JX1M421LRLV,A2VLTSW6CXIUMR,3U5JL4WY5LCSKCBFG1LWOL15797X4U,YL5U0,YL5U0,3U5JL4WY5LCSKCBFG1LWOL15797X4U,3U5JL4WY5LCSKCBFG1LWOL15797X4U,268040,268040,,,,,,,,,,
,,,,3,18.010185,0,20,20,38,1,a small toy with yellow color,a small toy with red color and its look like cherry.,ma,13141692,3,45,A2VLTSW6CXIUMR,2021-01-08_13h38.05.296,MetaAwareness,2020.1.2,Win32,60,3511RHPADWH1Z4YUNS9JX1M421LRLV,A2VLTSW6CXIUMR,3U5JL4WY5LCSKCBFG1LWOL15797X4U,YL5U0,YL5U0,3U5JL4WY5LCSKCBFG1LWOL15797X4U,3U5JL4WY5LCSKCBFG1LWOL15797X4U,268040,268040,,,,,,,,,,
,,,,1,10.49595,0,21,21,197,1,there's a peable there,there's none here,ma,56835136,5,45,A2VLTSW6CXIUMR,2021-01-08_13h38.05.296,MetaAwareness,2020.1.2,Win32,60,3511RHPADWH1Z4YUNS9JX1M421LRLV,A2VLTSW6CXIUMR,3U5JL4WY5LCSKCBFG1LWOL15797X4U,YL5U0,YL5U0,3U5JL4WY5LCSKCBFG1LWOL15797X4U,3U5JL4WY5LCSKCBFG1LWOL15797X4U,268040,268040,,,,,,,,,,
,,,,5,21.673415,0,22,22,284,1,"assortment of heart themed objects, including a yellow heart with pink spots laying horizontally, sitting on a wooden board","assortment of heart themed objects, including a yellow heart with pink spots laying diagonally, sitting on a wooden board",ma,75958241,8,45,A2VLTSW6CXIUMR,2021-01-08_13h38.05.296,MetaAwareness,2020.1.2,Win32,60,3511RHPADWH1Z4YUNS9JX1M421LRLV,A2VLTSW6CXIUMR,3U5JL4WY5LCSKCBFG1LWOL15797X4U,YL5U0,YL5U0,3U5JL4WY5LCSKCBFG1LWOL15797X4U,3U5JL4WY5LCSKCBFG1LWOL15797X4U,268040,268040,,,,,,,,,,
,,,,3,29.93324,0,23,23,230,1,a picture showing stamps laid out on a grid. one of the stamps shows the phone number and webstie separated with a lot of whit space.,a picture showing stamps laid out on a grid. one of the stamps shows the phone number and website of a company close together,ma,69128765,1,45,A2VLTSW6CXIUMR,2021-01-08_13h38.05.296,MetaAwareness,2020.1.2,Win32,60,3511RHPADWH1Z4YUNS9JX1M421LRLV,A2VLTSW6CXIUMR,3U5JL4WY5LCSKCBFG1LWOL15797X4U,YL5U0,YL5U0,3U5JL4WY5LCSKCBFG1LWOL15797X4U,3U5JL4WY5LCSKCBFG1LWOL15797X4U,268040,268040,,,,,,,,,,
,,,,1,12.63412,0,24,24,84,1,the book is yellow in color,the picture is red in color,ma,23199105,4,45,A2VLTSW6CXIUMR,2021-01-08_13h38.05.296,MetaAwareness,2020.1.2,Win32,60,3511RHPADWH1Z4YUNS9JX1M421LRLV,A2VLTSW6CXIUMR,3U5JL4WY5LCSKCBFG1LWOL15797X4U,YL5U0,YL5U0,3U5JL4WY5LCSKCBFG1LWOL15797X4U,3U5JL4WY5LCSKCBFG1LWOL15797X4U,268040,268040,,,,,,,,,,
,,,,2,39.09191,0,25,25,357,1,a candy setup with a broken stick on the right,a candy setup with perfect stick candies,ma,86520382,2,45,A2VLTSW6CXIUMR,2021-01-08_13h38.05.296,MetaAwareness,2020.1.2,Win32,60,3511RHPADWH1Z4YUNS9JX1M421LRLV,A2VLTSW6CXIUMR,3U5JL4WY5LCSKCBFG1LWOL15797X4U,YL5U0,YL5U0,3U5JL4WY5LCSKCBFG1LWOL15797X4U,3U5JL4WY5LCSKCBFG1LWOL15797X4U,268040,268040,,,,,,,,,,
,,,,5,43.42864,0,26,26,35,1,"at the middle of the circle, pink color is present","at the middle of the circle, yellow color is present",ma,12178414,10,45,A2VLTSW6CXIUMR,2021-01-08_13h38.05.296,MetaAwareness,2020.1.2,Win32,60,3511RHPADWH1Z4YUNS9JX1M421LRLV,A2VLTSW6CXIUMR,3U5JL4WY5LCSKCBFG1LWOL15797X4U,YL5U0,YL5U0,3U5JL4WY5LCSKCBFG1LWOL15797X4U,3U5JL4WY5LCSKCBFG1LWOL15797X4U,268040,268040,,,,,,,,,,
,,,,4,47.64847,0,27,27,44,1,a harvest type quilt with small pumpkins laying on it. a small yellow pumpkin or yellow tomato lies on the quilit beside two other yellow pumkins and a red onion.,a harvest type quilt with small pumpkins laying on it.  two small yellow pumpkins or possible yellow tomotoes with a red onion.,ma,1383096,4,45,A2VLTSW6CXIUMR,2021-01-08_13h38.05.296,MetaAwareness,2020.1.2,Win32,60,3511RHPADWH1Z4YUNS9JX1M421LRLV,A2VLTSW6CXIUMR,3U5JL4WY5LCSKCBFG1LWOL15797X4U,YL5U0,YL5U0,3U5JL4WY5LCSKCBFG1LWOL15797X4U,3U5JL4WY5LCSKCBFG1LWOL15797X4U,268040,268040,,,,,,,,,,
,,,,5,21.177895,0,28,28,325,1,"a bedroom, with a multi-colored bedspread, and posters hanging on the wall","a bedroom, with a multi-colored bedspread, and posters hanging on the wall. the poster in the center is shorter than the one on the left image.",ma,79573638,5,45,A2VLTSW6CXIUMR,2021-01-08_13h38.05.296,MetaAwareness,2020.1.2,Win32,60,3511RHPADWH1Z4YUNS9JX1M421LRLV,A2VLTSW6CXIUMR,3U5JL4WY5LCSKCBFG1LWOL15797X4U,YL5U0,YL5U0,3U5JL4WY5LCSKCBFG1LWOL15797X4U,3U5JL4WY5LCSKCBFG1LWOL15797X4U,268040,268040,,,,,,,,,,
,,,,5,15.773375,0,29,29,236,1,a checkerboard sheet containing a set of contact information and titles of a company with the website on the bottom of the square.,a checkerboard sheet containing a set of contact information and titles of a company with the website in the middle of the square,ma,69128765,7,45,A2VLTSW6CXIUMR,2021-01-08_13h38.05.296,MetaAwareness,2020.1.2,Win32,60,3511RHPADWH1Z4YUNS9JX1M421LRLV,A2VLTSW6CXIUMR,3U5JL4WY5LCSKCBFG1LWOL15797X4U,YL5U0,YL5U0,3U5JL4WY5LCSKCBFG1LWOL15797X4U,3U5JL4WY5LCSKCBFG1LWOL15797X4U,268040,268040,,,,,,,,,,
,,,,,,,,,,,,,,,,45,A2VLTSW6CXIUMR,2021-01-08_13h38.05.296,MetaAwareness,2020.1.2,Win32,60,3511RHPADWH1Z4YUNS9JX1M421LRLV,A2VLTSW6CXIUMR,3U5JL4WY5LCSKCBFG1LWOL15797X4U,YL5U0,YL5U0,3U5JL4WY5LCSKCBFG1LWOL15797X4U,3U5JL4WY5LCSKCBFG1LWOL15797X4U,268040,268040,6,9.55575,someone laying underneath a blue beach umbrella on a crowded beach,someone laying underneath a blue beach umbrella on a crowded beach,same,1,13.773475,members of a marching band crossing a track that all have feather plumes at the front of their hats,a cluttered and rustic looking cafe with 10 hanging lights,different
