consent_response.keys,consent_response.rt,key_resp_2.keys,key_resp_2.rt,user_resp.keys,user_resp.rt,trials.thisRepN,trials.thisTrialN,trials.thisN,trials.thisIndex,trials.ran,image_1_text,image_2_text,database,image,number,age,worker_ID,date,expName,psychopyVersion,OS,frameRate,hitId,workerId,assignmentId,a,tp_a,b,tp_b,c,tp_c,catch_same_resp.keys,catch_same_resp.rt,image_1_text_catch_same,image_2_text_catch_same,image_catch_same,catch_different_resp.keys,catch_different_resp.rt,image_1_text_catch_different,image_2_text_catch_different,image_catch_different
space,3.916445,space,18.02684,5,12.75604,0,0,0,423,1,a table with phamplets and business cards and passports,a table with business cards and pamphlets with passports,ma,98265889,5,42,A3LJ2FHESYV9QQ,2021-01-08_15h26.19.097,MetaAwareness,2020.1.2,MacIntel,60,3YO4AH2FPENOQ7U8LKY0URKB3HB0QX,A3LJ2FHESYV9QQ,3YOH7BII0AALUPVN1E7U7HTGOK1VKR,I7OY0,I7OY0,3YOH7BII0AALUPVN1E7U7HTGOK1VKR,3YOH7BII0AALUPVN1E7U7HTGOK1VKR,268040,268040,,,,,,,,,,
,,,,3,14.26557,0,1,1,192,1,an orange pumpkin face with a triangle nose placed quite low.,an orange pumkin face with a triangle nose placed quite high.,ma,55174490,6,42,A3LJ2FHESYV9QQ,2021-01-08_15h26.19.097,MetaAwareness,2020.1.2,MacIntel,60,3YO4AH2FPENOQ7U8LKY0URKB3HB0QX,A3LJ2FHESYV9QQ,3YOH7BII0AALUPVN1E7U7HTGOK1VKR,I7OY0,I7OY0,3YOH7BII0AALUPVN1E7U7HTGOK1VKR,3YOH7BII0AALUPVN1E7U7HTGOK1VKR,268040,268040,,,,,,,,,,
,,,,5,13.05152,0,2,2,46,1,a room full of furniture with a black tile border around it and a black and white sofa with a large black pillow.,a room full of furniture with a black tile border around it and a black and white sofa with a small black pillow.,ma,13873251,3,42,A3LJ2FHESYV9QQ,2021-01-08_15h26.19.097,MetaAwareness,2020.1.2,MacIntel,60,3YO4AH2FPENOQ7U8LKY0URKB3HB0QX,A3LJ2FHESYV9QQ,3YOH7BII0AALUPVN1E7U7HTGOK1VKR,I7OY0,I7OY0,3YOH7BII0AALUPVN1E7U7HTGOK1VKR,3YOH7BII0AALUPVN1E7U7HTGOK1VKR,268040,268040,,,,,,,,,,
,,,,4,11.585875,0,3,3,354,1,"a kitchen towel decorated with a fish, an apple, and the word 'eat' spelled out with a small 'a'","a kitchen towel decorated with a fish, an apple, and the word 'eat' spelled out with a large 'a'",ma,83785171,6,42,A3LJ2FHESYV9QQ,2021-01-08_15h26.19.097,MetaAwareness,2020.1.2,MacIntel,60,3YO4AH2FPENOQ7U8LKY0URKB3HB0QX,A3LJ2FHESYV9QQ,3YOH7BII0AALUPVN1E7U7HTGOK1VKR,I7OY0,I7OY0,3YOH7BII0AALUPVN1E7U7HTGOK1VKR,3YOH7BII0AALUPVN1E7U7HTGOK1VKR,268040,268040,,,,,,,,,,
,,,,6,22.08705,0,4,4,422,1,a set of pamphlets on a red striped table with a particular stack of black ones containing a red humanoid on the right side of the sheet.,a set of pamphlets on a red striped table with a particular stack of black ones containing a red humanoid on the right side of the sheet.,ma,98265889,4,42,A3LJ2FHESYV9QQ,2021-01-08_15h26.19.097,MetaAwareness,2020.1.2,MacIntel,60,3YO4AH2FPENOQ7U8LKY0URKB3HB0QX,A3LJ2FHESYV9QQ,3YOH7BII0AALUPVN1E7U7HTGOK1VKR,I7OY0,I7OY0,3YOH7BII0AALUPVN1E7U7HTGOK1VKR,3YOH7BII0AALUPVN1E7U7HTGOK1VKR,268040,268040,,,,,,,,,,
,,,,5,10.469045,0,5,5,363,1,a set table with a table cloth that has orange flowers,a set table with a table cloth that has red flowers,ma,87983207,4,42,A3LJ2FHESYV9QQ,2021-01-08_15h26.19.097,MetaAwareness,2020.1.2,MacIntel,60,3YO4AH2FPENOQ7U8LKY0URKB3HB0QX,A3LJ2FHESYV9QQ,3YOH7BII0AALUPVN1E7U7HTGOK1VKR,I7OY0,I7OY0,3YOH7BII0AALUPVN1E7U7HTGOK1VKR,3YOH7BII0AALUPVN1E7U7HTGOK1VKR,268040,268040,,,,,,,,,,
,,,,4,8.153315,0,6,6,400,1,a building with a window that has its screen at the top,a building with a window with its screen in the middle,ma,95091295,8,42,A3LJ2FHESYV9QQ,2021-01-08_15h26.19.097,MetaAwareness,2020.1.2,MacIntel,60,3YO4AH2FPENOQ7U8LKY0URKB3HB0QX,A3LJ2FHESYV9QQ,3YOH7BII0AALUPVN1E7U7HTGOK1VKR,I7OY0,I7OY0,3YOH7BII0AALUPVN1E7U7HTGOK1VKR,3YOH7BII0AALUPVN1E7U7HTGOK1VKR,268040,268040,,,,,,,,,,
,,,,4,10.76783,0,7,7,133,1,a picture of a woodcarving desk featuring a piece with waves in the center,a picture of a woodcarving desk featuring a new piece,ma,42429798,1,42,A3LJ2FHESYV9QQ,2021-01-08_15h26.19.097,MetaAwareness,2020.1.2,MacIntel,60,3YO4AH2FPENOQ7U8LKY0URKB3HB0QX,A3LJ2FHESYV9QQ,3YOH7BII0AALUPVN1E7U7HTGOK1VKR,I7OY0,I7OY0,3YOH7BII0AALUPVN1E7U7HTGOK1VKR,3YOH7BII0AALUPVN1E7U7HTGOK1VKR,268040,268040,,,,,,,,,,
,,,,3,9.665585,0,8,8,295,1,bunch of violet and cream flowers on a linen table cloth with a white bunch on the left,a bunch of violet and cream flowers on a linen table cloth with a violet bunch on the left,ma,77574131,2,42,A3LJ2FHESYV9QQ,2021-01-08_15h26.19.097,MetaAwareness,2020.1.2,MacIntel,60,3YO4AH2FPENOQ7U8LKY0URKB3HB0QX,A3LJ2FHESYV9QQ,3YOH7BII0AALUPVN1E7U7HTGOK1VKR,I7OY0,I7OY0,3YOH7BII0AALUPVN1E7U7HTGOK1VKR,3YOH7BII0AALUPVN1E7U7HTGOK1VKR,268040,268040,,,,,,,,,,
,,,,2,8.086715,0,9,9,343,1,the picture is like a scenerio,the picture is a sea,ma,83691215,3,42,A3LJ2FHESYV9QQ,2021-01-08_15h26.19.097,MetaAwareness,2020.1.2,MacIntel,60,3YO4AH2FPENOQ7U8LKY0URKB3HB0QX,A3LJ2FHESYV9QQ,3YOH7BII0AALUPVN1E7U7HTGOK1VKR,I7OY0,I7OY0,3YOH7BII0AALUPVN1E7U7HTGOK1VKR,3YOH7BII0AALUPVN1E7U7HTGOK1VKR,268040,268040,,,,,,,,,,
,,,,4,11.12204,0,10,10,312,1,"a mountain bike in front of a variety of different colored mail boxes, predomnitaley  blue colored","a mountain bike in front of a variety of different colored mail boxes, with a black mailbox at its center",ma,79191795,4,42,A3LJ2FHESYV9QQ,2021-01-08_15h26.19.097,MetaAwareness,2020.1.2,MacIntel,60,3YO4AH2FPENOQ7U8LKY0URKB3HB0QX,A3LJ2FHESYV9QQ,3YOH7BII0AALUPVN1E7U7HTGOK1VKR,I7OY0,I7OY0,3YOH7BII0AALUPVN1E7U7HTGOK1VKR,3YOH7BII0AALUPVN1E7U7HTGOK1VKR,268040,268040,,,,,,,,,,
,,,,3,7.0293,0,11,11,216,1,a yellow bowl with a light green inside.,a yellow bowl with a beige colored inside,ma,62224663,2,42,A3LJ2FHESYV9QQ,2021-01-08_15h26.19.097,MetaAwareness,2020.1.2,MacIntel,60,3YO4AH2FPENOQ7U8LKY0URKB3HB0QX,A3LJ2FHESYV9QQ,3YOH7BII0AALUPVN1E7U7HTGOK1VKR,I7OY0,I7OY0,3YOH7BII0AALUPVN1E7U7HTGOK1VKR,3YOH7BII0AALUPVN1E7U7HTGOK1VKR,268040,268040,,,,,,,,,,
,,,,6,9.869185,0,12,12,201,1,an orange room with a wall of instruments,an orange room with a wall of instruments,ma,57861456,3,42,A3LJ2FHESYV9QQ,2021-01-08_15h26.19.097,MetaAwareness,2020.1.2,MacIntel,60,3YO4AH2FPENOQ7U8LKY0URKB3HB0QX,A3LJ2FHESYV9QQ,3YOH7BII0AALUPVN1E7U7HTGOK1VKR,I7OY0,I7OY0,3YOH7BII0AALUPVN1E7U7HTGOK1VKR,3YOH7BII0AALUPVN1E7U7HTGOK1VKR,268040,268040,,,,,,,,,,
,,,,5,15.22294,0,13,13,254,1,a set of candies on a table that are halloween themed with an orange bat tilted right,a set of candies on a table that are halloween themed with an orange bat tilted left,ma,72488522,8,42,A3LJ2FHESYV9QQ,2021-01-08_15h26.19.097,MetaAwareness,2020.1.2,MacIntel,60,3YO4AH2FPENOQ7U8LKY0URKB3HB0QX,A3LJ2FHESYV9QQ,3YOH7BII0AALUPVN1E7U7HTGOK1VKR,I7OY0,I7OY0,3YOH7BII0AALUPVN1E7U7HTGOK1VKR,3YOH7BII0AALUPVN1E7U7HTGOK1VKR,268040,268040,,,,,,,,,,
,,,,5,10.05648,0,14,14,376,1,a table with craft and sewing stuff with organizers,a table with arts and crafts things and organizers,ma,89354846,4,42,A3LJ2FHESYV9QQ,2021-01-08_15h26.19.097,MetaAwareness,2020.1.2,MacIntel,60,3YO4AH2FPENOQ7U8LKY0URKB3HB0QX,A3LJ2FHESYV9QQ,3YOH7BII0AALUPVN1E7U7HTGOK1VKR,I7OY0,I7OY0,3YOH7BII0AALUPVN1E7U7HTGOK1VKR,3YOH7BII0AALUPVN1E7U7HTGOK1VKR,268040,268040,,,,,,,,,,
,,,,5,17.517505,0,15,15,257,1,a piece of candy that looks like hello kitty dressed up for halloween with a bat angled upwards to the right adorning the costume with other pieces of candy on a plate.,a piece of candy that looks like hello kitty dressed up for halloween with a bat andgled upwards to the left adorning the costume with other pieces of candy on a plate.,ma,72488522,11,42,A3LJ2FHESYV9QQ,2021-01-08_15h26.19.097,MetaAwareness,2020.1.2,MacIntel,60,3YO4AH2FPENOQ7U8LKY0URKB3HB0QX,A3LJ2FHESYV9QQ,3YOH7BII0AALUPVN1E7U7HTGOK1VKR,I7OY0,I7OY0,3YOH7BII0AALUPVN1E7U7HTGOK1VKR,3YOH7BII0AALUPVN1E7U7HTGOK1VKR,268040,268040,,,,,,,,,,
,,,,2,17.38951,0,16,16,389,1,a set of material spinners on a wooden table with one blue one with a grey center,a set of material spinners on a wooden table with one blue one with a red heart on the center,ma,90405028,4,42,A3LJ2FHESYV9QQ,2021-01-08_15h26.19.097,MetaAwareness,2020.1.2,MacIntel,60,3YO4AH2FPENOQ7U8LKY0URKB3HB0QX,A3LJ2FHESYV9QQ,3YOH7BII0AALUPVN1E7U7HTGOK1VKR,I7OY0,I7OY0,3YOH7BII0AALUPVN1E7U7HTGOK1VKR,3YOH7BII0AALUPVN1E7U7HTGOK1VKR,268040,268040,,,,,,,,,,
,,,,3,6.05082,0,17,17,302,1,"a table of desserts, in the center a green ribbon","a table of desserts, in the center a brown ribbon",ma,77793328,5,42,A3LJ2FHESYV9QQ,2021-01-08_15h26.19.097,MetaAwareness,2020.1.2,MacIntel,60,3YO4AH2FPENOQ7U8LKY0URKB3HB0QX,A3LJ2FHESYV9QQ,3YOH7BII0AALUPVN1E7U7HTGOK1VKR,I7OY0,I7OY0,3YOH7BII0AALUPVN1E7U7HTGOK1VKR,3YOH7BII0AALUPVN1E7U7HTGOK1VKR,268040,268040,,,,,,,,,,
,,,,5,16.5705,0,18,18,91,1,"a child's bed sits in a blue room, below a shelf, and a background filled with blue stars and a long moon.","a child's bed sits in a blue room, below a shelf, and a background filled with blue stars, and a regular sized moon.",ma,24383097,3,42,A3LJ2FHESYV9QQ,2021-01-08_15h26.19.097,MetaAwareness,2020.1.2,MacIntel,60,3YO4AH2FPENOQ7U8LKY0URKB3HB0QX,A3LJ2FHESYV9QQ,3YOH7BII0AALUPVN1E7U7HTGOK1VKR,I7OY0,I7OY0,3YOH7BII0AALUPVN1E7U7HTGOK1VKR,3YOH7BII0AALUPVN1E7U7HTGOK1VKR,268040,268040,,,,,,,,,,
,,,,2,9.91563,0,19,19,15,1,coffee table game with different colors including a black piece,coffee table gam with different colors including a white piece instead of black,ma,1191801,1,42,A3LJ2FHESYV9QQ,2021-01-08_15h26.19.097,MetaAwareness,2020.1.2,MacIntel,60,3YO4AH2FPENOQ7U8LKY0URKB3HB0QX,A3LJ2FHESYV9QQ,3YOH7BII0AALUPVN1E7U7HTGOK1VKR,I7OY0,I7OY0,3YOH7BII0AALUPVN1E7U7HTGOK1VKR,3YOH7BII0AALUPVN1E7U7HTGOK1VKR,268040,268040,,,,,,,,,,
,,,,2,7.25208,0,20,20,328,1,an electrical component with a metal handle approximately four inches in length,an electrical component with a metal handle approximately two inches in lenth,ma,8197559,3,42,A3LJ2FHESYV9QQ,2021-01-08_15h26.19.097,MetaAwareness,2020.1.2,MacIntel,60,3YO4AH2FPENOQ7U8LKY0URKB3HB0QX,A3LJ2FHESYV9QQ,3YOH7BII0AALUPVN1E7U7HTGOK1VKR,I7OY0,I7OY0,3YOH7BII0AALUPVN1E7U7HTGOK1VKR,3YOH7BII0AALUPVN1E7U7HTGOK1VKR,268040,268040,,,,,,,,,,
,,,,3,6.473535,0,21,21,353,1,a dish towel hanging on an oven handle that reads 'eat' with a small 'a',a dish towel hanging on an oven handle that reads 'eat' with a large'a',ma,83785171,4,42,A3LJ2FHESYV9QQ,2021-01-08_15h26.19.097,MetaAwareness,2020.1.2,MacIntel,60,3YO4AH2FPENOQ7U8LKY0URKB3HB0QX,A3LJ2FHESYV9QQ,3YOH7BII0AALUPVN1E7U7HTGOK1VKR,I7OY0,I7OY0,3YOH7BII0AALUPVN1E7U7HTGOK1VKR,3YOH7BII0AALUPVN1E7U7HTGOK1VKR,268040,268040,,,,,,,,,,
,,,,4,6.44596,0,22,22,113,1,a toybox featuring an upside down golden star.,a toybox featuring a right side up golden star.,ma,32289063,5,42,A3LJ2FHESYV9QQ,2021-01-08_15h26.19.097,MetaAwareness,2020.1.2,MacIntel,60,3YO4AH2FPENOQ7U8LKY0URKB3HB0QX,A3LJ2FHESYV9QQ,3YOH7BII0AALUPVN1E7U7HTGOK1VKR,I7OY0,I7OY0,3YOH7BII0AALUPVN1E7U7HTGOK1VKR,3YOH7BII0AALUPVN1E7U7HTGOK1VKR,268040,268040,,,,,,,,,,
,,,,4,9.38244,0,23,23,94,1,a blue decorated nursery wall with a large yellow moon,a blue decorated nursery wall with small yellow moon lamp,ma,24383097,6,42,A3LJ2FHESYV9QQ,2021-01-08_15h26.19.097,MetaAwareness,2020.1.2,MacIntel,60,3YO4AH2FPENOQ7U8LKY0URKB3HB0QX,A3LJ2FHESYV9QQ,3YOH7BII0AALUPVN1E7U7HTGOK1VKR,I7OY0,I7OY0,3YOH7BII0AALUPVN1E7U7HTGOK1VKR,3YOH7BII0AALUPVN1E7U7HTGOK1VKR,268040,268040,,,,,,,,,,
,,,,3,9.73179,0,24,24,168,1,a set of creatively modeled rabbit figures. the front one has blue ears and pink feet.,a set of creatively modeled rabbit figures. the front one has blue ears and blue feet.,ma,48384711,7,42,A3LJ2FHESYV9QQ,2021-01-08_15h26.19.097,MetaAwareness,2020.1.2,MacIntel,60,3YO4AH2FPENOQ7U8LKY0URKB3HB0QX,A3LJ2FHESYV9QQ,3YOH7BII0AALUPVN1E7U7HTGOK1VKR,I7OY0,I7OY0,3YOH7BII0AALUPVN1E7U7HTGOK1VKR,3YOH7BII0AALUPVN1E7U7HTGOK1VKR,268040,268040,,,,,,,,,,
,,,,3,12.663435,0,25,25,159,1,a display window containing many cakes including a black cake with a yellow smile,a display window containing many cakes includinga black cake with a red smile,ma,46635293,4,42,A3LJ2FHESYV9QQ,2021-01-08_15h26.19.097,MetaAwareness,2020.1.2,MacIntel,60,3YO4AH2FPENOQ7U8LKY0URKB3HB0QX,A3LJ2FHESYV9QQ,3YOH7BII0AALUPVN1E7U7HTGOK1VKR,I7OY0,I7OY0,3YOH7BII0AALUPVN1E7U7HTGOK1VKR,3YOH7BII0AALUPVN1E7U7HTGOK1VKR,268040,268040,,,,,,,,,,
,,,,4,9.46918,0,26,26,99,1,elephant keychains laying on a table cloth with french writing,elephant keychains laying on a tablecloth with the french word des emphasized,ma,25107991,6,42,A3LJ2FHESYV9QQ,2021-01-08_15h26.19.097,MetaAwareness,2020.1.2,MacIntel,60,3YO4AH2FPENOQ7U8LKY0URKB3HB0QX,A3LJ2FHESYV9QQ,3YOH7BII0AALUPVN1E7U7HTGOK1VKR,I7OY0,I7OY0,3YOH7BII0AALUPVN1E7U7HTGOK1VKR,3YOH7BII0AALUPVN1E7U7HTGOK1VKR,268040,268040,,,,,,,,,,
,,,,4,9.572335,0,27,27,198,1,"bright orange flowers on a wooden board with a pile of stones, two being identical","bright orange flowers on a wooden board with a pile of stones, none being identical",ma,56835136,6,42,A3LJ2FHESYV9QQ,2021-01-08_15h26.19.097,MetaAwareness,2020.1.2,MacIntel,60,3YO4AH2FPENOQ7U8LKY0URKB3HB0QX,A3LJ2FHESYV9QQ,3YOH7BII0AALUPVN1E7U7HTGOK1VKR,I7OY0,I7OY0,3YOH7BII0AALUPVN1E7U7HTGOK1VKR,3YOH7BII0AALUPVN1E7U7HTGOK1VKR,268040,268040,,,,,,,,,,
,,,,1,4.88655,0,28,28,125,1,there's a cirlce inside the yellow box,there's nothing here in the yellow box,ma,38546029,2,42,A3LJ2FHESYV9QQ,2021-01-08_15h26.19.097,MetaAwareness,2020.1.2,MacIntel,60,3YO4AH2FPENOQ7U8LKY0URKB3HB0QX,A3LJ2FHESYV9QQ,3YOH7BII0AALUPVN1E7U7HTGOK1VKR,I7OY0,I7OY0,3YOH7BII0AALUPVN1E7U7HTGOK1VKR,3YOH7BII0AALUPVN1E7U7HTGOK1VKR,268040,268040,,,,,,,,,,
,,,,3,7.09883,0,29,29,179,1,food table. egg on the back has less cheese,food table. egg on the back has more cheese.,ma,51537628,3,42,A3LJ2FHESYV9QQ,2021-01-08_15h26.19.097,MetaAwareness,2020.1.2,MacIntel,60,3YO4AH2FPENOQ7U8LKY0URKB3HB0QX,A3LJ2FHESYV9QQ,3YOH7BII0AALUPVN1E7U7HTGOK1VKR,I7OY0,I7OY0,3YOH7BII0AALUPVN1E7U7HTGOK1VKR,3YOH7BII0AALUPVN1E7U7HTGOK1VKR,268040,268040,,,,,,,,,,
,,,,,,,,,,,,,,,,42,A3LJ2FHESYV9QQ,2021-01-08_15h26.19.097,MetaAwareness,2020.1.2,MacIntel,60,3YO4AH2FPENOQ7U8LKY0URKB3HB0QX,A3LJ2FHESYV9QQ,3YOH7BII0AALUPVN1E7U7HTGOK1VKR,I7OY0,I7OY0,3YOH7BII0AALUPVN1E7U7HTGOK1VKR,3YOH7BII0AALUPVN1E7U7HTGOK1VKR,268040,268040,6,10.140695,someone laying underneath a blue beach umbrella on a crowded beach,someone laying underneath a blue beach umbrella on a crowded beach,same,1,7.93395,members of a marching band crossing a track that all have feather plumes at the front of their hats,a cluttered and rustic looking cafe with 10 hanging lights,different
