consent_response.keys,consent_response.rt,key_resp_2.keys,key_resp_2.rt,user_resp.keys,user_resp.rt,trials.thisRepN,trials.thisTrialN,trials.thisN,trials.thisIndex,trials.ran,image_1_text,image_2_text,database,image,number,age,worker_ID,date,expName,psychopyVersion,OS,frameRate,hitId,workerId,assignmentId,a,tp_a,b,tp_b,c,tp_c,catch_same_resp.keys,catch_same_resp.rt,image_1_text_catch_same,image_2_text_catch_same,image_catch_same,catch_different_resp.keys,catch_different_resp.rt,image_1_text_catch_different,image_2_text_catch_different,image_catch_different
space,4.757,space,2.182,4,19.662,0,0,0,37,1,a small pad of moss with a small grey and white dog with lots of dog toys and a brown dog toy.,a small pad of moss with a small grey and white dog with lots of dog toys and a red do toy.,ma,13141692,2,40,ASJG1A467URJH,2021-01-08_11h00.15.102,MetaAwareness,2020.1.2,Win32,60,3511RHPADWH1Z4YUNS9JX1M421LRLV,ASJG1A467URJH,3GS6S824SR0ZHKGVO146LBTYPOWWNV,4SSG0,4SSG0,3GS6S824SR0ZHKGVO146LBTYPOWWNV,3GS6S824SR0ZHKGVO146LBTYPOWWNV,268040,268040,,,,,,,,,,
,,,,4,8.07,0,1,1,342,1,picture gallery on wall with all pictures straight up,picture gallery on wall with one picture upside down,ma,83691215,2,40,ASJG1A467URJH,2021-01-08_11h00.15.102,MetaAwareness,2020.1.2,Win32,60,3511RHPADWH1Z4YUNS9JX1M421LRLV,ASJG1A467URJH,3GS6S824SR0ZHKGVO146LBTYPOWWNV,4SSG0,4SSG0,3GS6S824SR0ZHKGVO146LBTYPOWWNV,3GS6S824SR0ZHKGVO146LBTYPOWWNV,268040,268040,,,,,,,,,,
,,,,3,8.307,0,2,2,167,1,a collection of bunny figurines with one sporting pink legs.,a collection of bunny figurines with one sporting blue legs to match its ears.,ma,48384711,6,40,ASJG1A467URJH,2021-01-08_11h00.15.102,MetaAwareness,2020.1.2,Win32,60,3511RHPADWH1Z4YUNS9JX1M421LRLV,ASJG1A467URJH,3GS6S824SR0ZHKGVO146LBTYPOWWNV,4SSG0,4SSG0,3GS6S824SR0ZHKGVO146LBTYPOWWNV,3GS6S824SR0ZHKGVO146LBTYPOWWNV,268040,268040,,,,,,,,,,
,,,,5,11.261,0,3,3,176,1,a block of sticky rice surrounded by sushi,a tidy block of sticky rice surrounded by sushi,ma,48486405,6,40,ASJG1A467URJH,2021-01-08_11h00.15.102,MetaAwareness,2020.1.2,Win32,60,3511RHPADWH1Z4YUNS9JX1M421LRLV,ASJG1A467URJH,3GS6S824SR0ZHKGVO146LBTYPOWWNV,4SSG0,4SSG0,3GS6S824SR0ZHKGVO146LBTYPOWWNV,3GS6S824SR0ZHKGVO146LBTYPOWWNV,268040,268040,,,,,,,,,,
,,,,4,9.171,0,4,4,132,1,a wooden decorative memento decorated with two colorful circles sitting on a shelf along with other meaningful items,a wooden decorative memento decorated with one colorful circle sitting on a shelf along with other meaningful items,ma,38546029,10,40,ASJG1A467URJH,2021-01-08_11h00.15.102,MetaAwareness,2020.1.2,Win32,60,3511RHPADWH1Z4YUNS9JX1M421LRLV,ASJG1A467URJH,3GS6S824SR0ZHKGVO146LBTYPOWWNV,4SSG0,4SSG0,3GS6S824SR0ZHKGVO146LBTYPOWWNV,3GS6S824SR0ZHKGVO146LBTYPOWWNV,268040,268040,,,,,,,,,,
,,,,3,3.578,0,5,5,288,1,decorated cupcakes with ribbon fondant with the letter h in the center,decorated cupcakes with ribbon fondant with the letter e in the center of the ribbon,ma,77345858,5,40,ASJG1A467URJH,2021-01-08_11h00.15.102,MetaAwareness,2020.1.2,Win32,60,3511RHPADWH1Z4YUNS9JX1M421LRLV,ASJG1A467URJH,3GS6S824SR0ZHKGVO146LBTYPOWWNV,4SSG0,4SSG0,3GS6S824SR0ZHKGVO146LBTYPOWWNV,3GS6S824SR0ZHKGVO146LBTYPOWWNV,268040,268040,,,,,,,,,,
,,,,5,7.704,0,6,6,285,1,eight pink-frosted cupcakes with a pink ribbon and the word 'gughlhof',eight pink-frosted cupcakes with a pink ribbon and the word 'gugelhofe',ma,77345858,2,40,ASJG1A467URJH,2021-01-08_11h00.15.102,MetaAwareness,2020.1.2,Win32,60,3511RHPADWH1Z4YUNS9JX1M421LRLV,ASJG1A467URJH,3GS6S824SR0ZHKGVO146LBTYPOWWNV,4SSG0,4SSG0,3GS6S824SR0ZHKGVO146LBTYPOWWNV,3GS6S824SR0ZHKGVO146LBTYPOWWNV,268040,268040,,,,,,,,,,
,,,,4,8.802,0,7,7,355,1,a selection of various lights in different colors and shapes with a green light that has a cut out on a white base.,a selection of various lights in different colors and shapes with a white light that has a cut out on a white base.,ma,85741618,2,40,ASJG1A467URJH,2021-01-08_11h00.15.102,MetaAwareness,2020.1.2,Win32,60,3511RHPADWH1Z4YUNS9JX1M421LRLV,ASJG1A467URJH,3GS6S824SR0ZHKGVO146LBTYPOWWNV,4SSG0,4SSG0,3GS6S824SR0ZHKGVO146LBTYPOWWNV,3GS6S824SR0ZHKGVO146LBTYPOWWNV,268040,268040,,,,,,,,,,
,,,,2,16.234,0,8,8,62,1,pirate themed cupcakes and a variety of other dessert treats,a smiley face sticker on a bag of goodies,ma,18345691,1,40,ASJG1A467URJH,2021-01-08_11h00.15.102,MetaAwareness,2020.1.2,Win32,60,3511RHPADWH1Z4YUNS9JX1M421LRLV,ASJG1A467URJH,3GS6S824SR0ZHKGVO146LBTYPOWWNV,4SSG0,4SSG0,3GS6S824SR0ZHKGVO146LBTYPOWWNV,3GS6S824SR0ZHKGVO146LBTYPOWWNV,268040,268040,,,,,,,,,,
,,,,4,5.12,0,9,9,340,1,a castle with a lot of windows expect one room,a castle with a lot of windows for all rooms,ma,83536470,4,40,ASJG1A467URJH,2021-01-08_11h00.15.102,MetaAwareness,2020.1.2,Win32,60,3511RHPADWH1Z4YUNS9JX1M421LRLV,ASJG1A467URJH,3GS6S824SR0ZHKGVO146LBTYPOWWNV,4SSG0,4SSG0,3GS6S824SR0ZHKGVO146LBTYPOWWNV,3GS6S824SR0ZHKGVO146LBTYPOWWNV,268040,268040,,,,,,,,,,
,,,,6,16.115,0,10,10,114,1,a children's toy set including a set of different toys in a wooden box with a five pointed star that is pointed down,a children's toy set including a set of different toys in a wooden box with a five pointed star that is pointed up,ma,32289063,6,40,ASJG1A467URJH,2021-01-08_11h00.15.102,MetaAwareness,2020.1.2,Win32,60,3511RHPADWH1Z4YUNS9JX1M421LRLV,ASJG1A467URJH,3GS6S824SR0ZHKGVO146LBTYPOWWNV,4SSG0,4SSG0,3GS6S824SR0ZHKGVO146LBTYPOWWNV,3GS6S824SR0ZHKGVO146LBTYPOWWNV,268040,268040,,,,,,,,,,
,,,,4,7.294,0,11,11,372,1,valentines day fondant shapes including a medium heart on the bottom right,valentines day fondant shapes including a small heart on the bottom right.,ma,88767165,5,40,ASJG1A467URJH,2021-01-08_11h00.15.102,MetaAwareness,2020.1.2,Win32,60,3511RHPADWH1Z4YUNS9JX1M421LRLV,ASJG1A467URJH,3GS6S824SR0ZHKGVO146LBTYPOWWNV,4SSG0,4SSG0,3GS6S824SR0ZHKGVO146LBTYPOWWNV,3GS6S824SR0ZHKGVO146LBTYPOWWNV,268040,268040,,,,,,,,,,
,,,,3,14.659,0,12,12,352,1,a distowel embroided with different color fabric that spells eat with a small a,a dishtowel embroided with different color fabric that spells out the work eat. the a is similar in spacing and size as the t,ma,83785171,3,40,ASJG1A467URJH,2021-01-08_11h00.15.102,MetaAwareness,2020.1.2,Win32,60,3511RHPADWH1Z4YUNS9JX1M421LRLV,ASJG1A467URJH,3GS6S824SR0ZHKGVO146LBTYPOWWNV,4SSG0,4SSG0,3GS6S824SR0ZHKGVO146LBTYPOWWNV,3GS6S824SR0ZHKGVO146LBTYPOWWNV,268040,268040,,,,,,,,,,
,,,,6,13.008,0,13,13,257,1,a piece of candy that looks like hello kitty dressed up for halloween with a bat angled upwards to the right adorning the costume with other pieces of candy on a plate.,a piece of candy that looks like hello kitty dressed up for halloween with a bat andgled upwards to the left adorning the costume with other pieces of candy on a plate.,ma,72488522,11,40,ASJG1A467URJH,2021-01-08_11h00.15.102,MetaAwareness,2020.1.2,Win32,60,3511RHPADWH1Z4YUNS9JX1M421LRLV,ASJG1A467URJH,3GS6S824SR0ZHKGVO146LBTYPOWWNV,4SSG0,4SSG0,3GS6S824SR0ZHKGVO146LBTYPOWWNV,3GS6S824SR0ZHKGVO146LBTYPOWWNV,268040,268040,,,,,,,,,,
,,,,4,7.361,0,14,14,421,1,"a table full of booklets and cards, one with a man appearing on the right side of the booklet.","a table full of booklets and cards, one with man appearing on the left side of the booklet.",ma,98265889,3,40,ASJG1A467URJH,2021-01-08_11h00.15.102,MetaAwareness,2020.1.2,Win32,60,3511RHPADWH1Z4YUNS9JX1M421LRLV,ASJG1A467URJH,3GS6S824SR0ZHKGVO146LBTYPOWWNV,4SSG0,4SSG0,3GS6S824SR0ZHKGVO146LBTYPOWWNV,3GS6S824SR0ZHKGVO146LBTYPOWWNV,268040,268040,,,,,,,,,,
,,,,4,16.304,0,15,15,110,1,an yellow color star symbol will be slightly rotated.,an yellow color star symbol will be attached perfectly.,ma,32289063,1,40,ASJG1A467URJH,2021-01-08_11h00.15.102,MetaAwareness,2020.1.2,Win32,60,3511RHPADWH1Z4YUNS9JX1M421LRLV,ASJG1A467URJH,3GS6S824SR0ZHKGVO146LBTYPOWWNV,4SSG0,4SSG0,3GS6S824SR0ZHKGVO146LBTYPOWWNV,3GS6S824SR0ZHKGVO146LBTYPOWWNV,268040,268040,,,,,,,,,,
,,,,4,2.36,0,16,16,345,1,a set of pictures on a wall with a blurred white frame picture in the middle,a set of pictures on a wall with a greyscale bus picture on a white frame in the middle.,ma,83691215,7,40,ASJG1A467URJH,2021-01-08_11h00.15.102,MetaAwareness,2020.1.2,Win32,60,3511RHPADWH1Z4YUNS9JX1M421LRLV,ASJG1A467URJH,3GS6S824SR0ZHKGVO146LBTYPOWWNV,4SSG0,4SSG0,3GS6S824SR0ZHKGVO146LBTYPOWWNV,3GS6S824SR0ZHKGVO146LBTYPOWWNV,268040,268040,,,,,,,,,,
,,,,3,1.179,0,17,17,250,1,a hello kitty halloween decoration with an orange bat tilted right on her coat,a hello kitty halloween decoration with an orange at tilted left on her coat,ma,72488522,3,40,ASJG1A467URJH,2021-01-08_11h00.15.102,MetaAwareness,2020.1.2,Win32,60,3511RHPADWH1Z4YUNS9JX1M421LRLV,ASJG1A467URJH,3GS6S824SR0ZHKGVO146LBTYPOWWNV,4SSG0,4SSG0,3GS6S824SR0ZHKGVO146LBTYPOWWNV,3GS6S824SR0ZHKGVO146LBTYPOWWNV,268040,268040,,,,,,,,,,
,,,,5,1.26,0,18,18,297,1,a well looking flower vase with a highlighted yellow flower.,a well looking flower vase wih a highlighted blue flower.,ma,77574131,7,40,ASJG1A467URJH,2021-01-08_11h00.15.102,MetaAwareness,2020.1.2,Win32,60,3511RHPADWH1Z4YUNS9JX1M421LRLV,ASJG1A467URJH,3GS6S824SR0ZHKGVO146LBTYPOWWNV,4SSG0,4SSG0,3GS6S824SR0ZHKGVO146LBTYPOWWNV,3GS6S824SR0ZHKGVO146LBTYPOWWNV,268040,268040,,,,,,,,,,
,,,,4,1.24,0,19,19,73,1,a quilt with cabins on it and assorted wood block houses,the window of a quilt cabin,ma,23024660,2,40,ASJG1A467URJH,2021-01-08_11h00.15.102,MetaAwareness,2020.1.2,Win32,60,3511RHPADWH1Z4YUNS9JX1M421LRLV,ASJG1A467URJH,3GS6S824SR0ZHKGVO146LBTYPOWWNV,4SSG0,4SSG0,3GS6S824SR0ZHKGVO146LBTYPOWWNV,3GS6S824SR0ZHKGVO146LBTYPOWWNV,268040,268040,,,,,,,,,,
,,,,5,2.09,0,20,20,378,1,green bean bags the postal stamp in the yellow box is opposite than the other picture.,green bean bags the postal stamp in the yellow box is facing up in this picture.,ma,8974554,1,40,ASJG1A467URJH,2021-01-08_11h00.15.102,MetaAwareness,2020.1.2,Win32,60,3511RHPADWH1Z4YUNS9JX1M421LRLV,ASJG1A467URJH,3GS6S824SR0ZHKGVO146LBTYPOWWNV,4SSG0,4SSG0,3GS6S824SR0ZHKGVO146LBTYPOWWNV,3GS6S824SR0ZHKGVO146LBTYPOWWNV,268040,268040,,,,,,,,,,
,,,,6,3.035,0,21,21,302,1,"a table of desserts, in the center a green ribbon","a table of desserts, in the center a brown ribbon",ma,77793328,5,40,ASJG1A467URJH,2021-01-08_11h00.15.102,MetaAwareness,2020.1.2,Win32,60,3511RHPADWH1Z4YUNS9JX1M421LRLV,ASJG1A467URJH,3GS6S824SR0ZHKGVO146LBTYPOWWNV,4SSG0,4SSG0,3GS6S824SR0ZHKGVO146LBTYPOWWNV,3GS6S824SR0ZHKGVO146LBTYPOWWNV,268040,268040,,,,,,,,,,
,,,,3,1.892,0,22,22,326,1,a circuit board with six silver connectors and several other electronic looking objects on the boards,there are two boards the one lying on the table has several electronic things and six various silver bars,ma,8197559,1,40,ASJG1A467URJH,2021-01-08_11h00.15.102,MetaAwareness,2020.1.2,Win32,60,3511RHPADWH1Z4YUNS9JX1M421LRLV,ASJG1A467URJH,3GS6S824SR0ZHKGVO146LBTYPOWWNV,4SSG0,4SSG0,3GS6S824SR0ZHKGVO146LBTYPOWWNV,3GS6S824SR0ZHKGVO146LBTYPOWWNV,268040,268040,,,,,,,,,,
,,,,4,3.454,0,23,23,236,1,a checkerboard sheet containing a set of contact information and titles of a company with the website on the bottom of the square.,a checkerboard sheet containing a set of contact information and titles of a company with the website in the middle of the square,ma,69128765,7,40,ASJG1A467URJH,2021-01-08_11h00.15.102,MetaAwareness,2020.1.2,Win32,60,3511RHPADWH1Z4YUNS9JX1M421LRLV,ASJG1A467URJH,3GS6S824SR0ZHKGVO146LBTYPOWWNV,4SSG0,4SSG0,3GS6S824SR0ZHKGVO146LBTYPOWWNV,3GS6S824SR0ZHKGVO146LBTYPOWWNV,268040,268040,,,,,,,,,,
,,,,4,2.127,0,24,24,337,1,a neatly arranged table setting for a party,a neatly arranged table setting for a party with a name card placed on the table,ma,81993755,6,40,ASJG1A467URJH,2021-01-08_11h00.15.102,MetaAwareness,2020.1.2,Win32,60,3511RHPADWH1Z4YUNS9JX1M421LRLV,ASJG1A467URJH,3GS6S824SR0ZHKGVO146LBTYPOWWNV,4SSG0,4SSG0,3GS6S824SR0ZHKGVO146LBTYPOWWNV,3GS6S824SR0ZHKGVO146LBTYPOWWNV,268040,268040,,,,,,,,,,
,,,,4,2.009,0,25,25,189,1,"halloween decoations along with mugs, the nose of the orange pumpkin is near the mouth.",halloween decorations along with mugs and a magazine.the nose on the orange pumpkin is closer to the eyes and centered.,ma,55174490,2,40,ASJG1A467URJH,2021-01-08_11h00.15.102,MetaAwareness,2020.1.2,Win32,60,3511RHPADWH1Z4YUNS9JX1M421LRLV,ASJG1A467URJH,3GS6S824SR0ZHKGVO146LBTYPOWWNV,4SSG0,4SSG0,3GS6S824SR0ZHKGVO146LBTYPOWWNV,3GS6S824SR0ZHKGVO146LBTYPOWWNV,268040,268040,,,,,,,,,,
,,,,4,2.354,0,26,26,117,1,an overflowing toybox with a name on the front and a tilted yellow star underneath.,an overflowing toybox with a name on the front and a centered yellow star underneath.,ma,32289063,9,40,ASJG1A467URJH,2021-01-08_11h00.15.102,MetaAwareness,2020.1.2,Win32,60,3511RHPADWH1Z4YUNS9JX1M421LRLV,ASJG1A467URJH,3GS6S824SR0ZHKGVO146LBTYPOWWNV,4SSG0,4SSG0,3GS6S824SR0ZHKGVO146LBTYPOWWNV,3GS6S824SR0ZHKGVO146LBTYPOWWNV,268040,268040,,,,,,,,,,
,,,,5,9.879,0,27,27,18,1,a lego pool table set with the black and grey pieces sitting right next to the pool cue.,a lego pool table set with the white and grey pieces sitting right next to the pool cue.,ma,1191801,4,40,ASJG1A467URJH,2021-01-08_11h00.15.102,MetaAwareness,2020.1.2,Win32,60,3511RHPADWH1Z4YUNS9JX1M421LRLV,ASJG1A467URJH,3GS6S824SR0ZHKGVO146LBTYPOWWNV,4SSG0,4SSG0,3GS6S824SR0ZHKGVO146LBTYPOWWNV,3GS6S824SR0ZHKGVO146LBTYPOWWNV,268040,268040,,,,,,,,,,
,,,,5,3.013,0,28,28,221,1,a green inner lined bowl sits with other dishes on a table,a creamy inner lined bowl sits with other dishes on a table,ma,62224663,7,40,ASJG1A467URJH,2021-01-08_11h00.15.102,MetaAwareness,2020.1.2,Win32,60,3511RHPADWH1Z4YUNS9JX1M421LRLV,ASJG1A467URJH,3GS6S824SR0ZHKGVO146LBTYPOWWNV,4SSG0,4SSG0,3GS6S824SR0ZHKGVO146LBTYPOWWNV,3GS6S824SR0ZHKGVO146LBTYPOWWNV,268040,268040,,,,,,,,,,
,,,,2,2.115,0,29,29,145,1,an office with a file box on a shelf with the label at the bottom,an office with a file box on a shelf with the label at the top,ma,4247084,7,40,ASJG1A467URJH,2021-01-08_11h00.15.102,MetaAwareness,2020.1.2,Win32,60,3511RHPADWH1Z4YUNS9JX1M421LRLV,ASJG1A467URJH,3GS6S824SR0ZHKGVO146LBTYPOWWNV,4SSG0,4SSG0,3GS6S824SR0ZHKGVO146LBTYPOWWNV,3GS6S824SR0ZHKGVO146LBTYPOWWNV,268040,268040,,,,,,,,,,
,,,,,,,,,,,,,,,,40,ASJG1A467URJH,2021-01-08_11h00.15.102,MetaAwareness,2020.1.2,Win32,60,3511RHPADWH1Z4YUNS9JX1M421LRLV,ASJG1A467URJH,3GS6S824SR0ZHKGVO146LBTYPOWWNV,4SSG0,4SSG0,3GS6S824SR0ZHKGVO146LBTYPOWWNV,3GS6S824SR0ZHKGVO146LBTYPOWWNV,268040,268040,6,6.569,someone laying underneath a blue beach umbrella on a crowded beach,someone laying underneath a blue beach umbrella on a crowded beach,same,2,2.791,members of a marching band crossing a track that all have feather plumes at the front of their hats,a cluttered and rustic looking cafe with 10 hanging lights,different
