consent_response.keys,consent_response.rt,key_resp_2.keys,key_resp_2.rt,user_resp.keys,user_resp.rt,trials.thisRepN,trials.thisTrialN,trials.thisN,trials.thisIndex,trials.ran,image_1_text,image_2_text,database,image,number,age,worker_ID,date,expName,psychopyVersion,OS,frameRate,hitId,workerId,assignmentId,a,tp_a,b,tp_b,c,tp_c,catch_same_resp.keys,catch_same_resp.rt,image_1_text_catch_same,image_2_text_catch_same,image_catch_same,catch_different_resp.keys,catch_different_resp.rt,image_1_text_catch_different,image_2_text_catch_different,image_catch_different
space,8.836525,space,21.866785,5,19.127775,0,0,0,145,1,"a living room with a large window, two couches, a table with books on it, and a shelf with one narrow wooden thing in the lower right corner","a living room with a large window, two couches, a table with books on it, and a shelf with two narrow wooden things in the lower right corner",wolfe2,025_R_vase,3,30,A11YS0T8MV3Q7C,2021-01-25_16h48.36.417,MetaAwareness,2020.1.2,Win32,60,3KTCJ4SCVH4XCHHYPAVJRNJGZRF1MC,A11YS0T8MV3Q7C,3TS1AR6UQRH83D2DI5DHLQL8VROF7Z,UAST5,UAST5,3TS1AR6UQRH83D2DI5DHLQL8VROF7Z,3TS1AR6UQRH83D2DI5DHLQL8VROF7Z,271255,271255,,,,,,,,,,
,,,,5,9.13263,0,1,1,170,1,a furnished living room with a l shaped couch.  the ceiling has a single beam going across it,a furnished living room with a l shaped couch.  the ceiling has two beams going across it,wolfe2,031_R_log,2,30,A11YS0T8MV3Q7C,2021-01-25_16h48.36.417,MetaAwareness,2020.1.2,Win32,60,3KTCJ4SCVH4XCHHYPAVJRNJGZRF1MC,A11YS0T8MV3Q7C,3TS1AR6UQRH83D2DI5DHLQL8VROF7Z,UAST5,UAST5,3TS1AR6UQRH83D2DI5DHLQL8VROF7Z,3TS1AR6UQRH83D2DI5DHLQL8VROF7Z,271255,271255,,,,,,,,,,
,,,,4,16.52169,0,2,2,187,1,"a gray colored bedroom with white contrasting appliance such as the bed, rug and the side drawer with a missing lower handle","a gray colored bedroom with white contrasting appliance such as the bed, rug and the side drawer",wolfe2,034_L_handle,5,30,A11YS0T8MV3Q7C,2021-01-25_16h48.36.417,MetaAwareness,2020.1.2,Win32,60,3KTCJ4SCVH4XCHHYPAVJRNJGZRF1MC,A11YS0T8MV3Q7C,3TS1AR6UQRH83D2DI5DHLQL8VROF7Z,UAST5,UAST5,3TS1AR6UQRH83D2DI5DHLQL8VROF7Z,3TS1AR6UQRH83D2DI5DHLQL8VROF7Z,271255,271255,,,,,,,,,,
,,,,5,13.22097,0,3,3,143,1,a living room with huge windows looking outside with a bookcase that has one item in the bottom left space,a living room with huge windows looking outside with a bookcase that has two items in the bottom left space,wolfe2,025_L_vase,3,30,A11YS0T8MV3Q7C,2021-01-25_16h48.36.417,MetaAwareness,2020.1.2,Win32,60,3KTCJ4SCVH4XCHHYPAVJRNJGZRF1MC,A11YS0T8MV3Q7C,3TS1AR6UQRH83D2DI5DHLQL8VROF7Z,UAST5,UAST5,3TS1AR6UQRH83D2DI5DHLQL8VROF7Z,3TS1AR6UQRH83D2DI5DHLQL8VROF7Z,271255,271255,,,,,,,,,,
,,,,4,11.17665,0,4,4,192,1,a bedroom with a nightstand table,a bedroom with a nightstand table that has fake fruits on it,wolfe2,035_L_fruit,3,30,A11YS0T8MV3Q7C,2021-01-25_16h48.36.417,MetaAwareness,2020.1.2,Win32,60,3KTCJ4SCVH4XCHHYPAVJRNJGZRF1MC,A11YS0T8MV3Q7C,3TS1AR6UQRH83D2DI5DHLQL8VROF7Z,UAST5,UAST5,3TS1AR6UQRH83D2DI5DHLQL8VROF7Z,3TS1AR6UQRH83D2DI5DHLQL8VROF7Z,271255,271255,,,,,,,,,,
,,,,4,17.6439,0,5,5,206,1,"a very clean white bathroom with a tub, a walk in shower, a toilet andfive neatly folded towels in a storage unit.","a clean white bathroom with a walk in shower, a tub, a toilet, and six neatly folded towels in a storage unit.",wolfe2,037_L_towel,4,30,A11YS0T8MV3Q7C,2021-01-25_16h48.36.417,MetaAwareness,2020.1.2,Win32,60,3KTCJ4SCVH4XCHHYPAVJRNJGZRF1MC,A11YS0T8MV3Q7C,3TS1AR6UQRH83D2DI5DHLQL8VROF7Z,UAST5,UAST5,3TS1AR6UQRH83D2DI5DHLQL8VROF7Z,3TS1AR6UQRH83D2DI5DHLQL8VROF7Z,271255,271255,,,,,,,,,,
,,,,4,13.488615,0,6,6,132,1,it's a pretty modern hangout area that appears to be in the patio or backyard.,"modern hangout area in the patio or backyard, but there is now a remote control on the table for the tv.",wolfe2,023_R_remote,3,30,A11YS0T8MV3Q7C,2021-01-25_16h48.36.417,MetaAwareness,2020.1.2,Win32,60,3KTCJ4SCVH4XCHHYPAVJRNJGZRF1MC,A11YS0T8MV3Q7C,3TS1AR6UQRH83D2DI5DHLQL8VROF7Z,UAST5,UAST5,3TS1AR6UQRH83D2DI5DHLQL8VROF7Z,3TS1AR6UQRH83D2DI5DHLQL8VROF7Z,271255,271255,,,,,,,,,,
,,,,3,6.585885,0,7,7,431,1,a modern kitchen with modern lights and utensils,a modern kitchen with modern lights and utensils and added plant beside the cupboard,wolfe2,080_L_plant,4,30,A11YS0T8MV3Q7C,2021-01-25_16h48.36.417,MetaAwareness,2020.1.2,Win32,60,3KTCJ4SCVH4XCHHYPAVJRNJGZRF1MC,A11YS0T8MV3Q7C,3TS1AR6UQRH83D2DI5DHLQL8VROF7Z,UAST5,UAST5,3TS1AR6UQRH83D2DI5DHLQL8VROF7Z,3TS1AR6UQRH83D2DI5DHLQL8VROF7Z,271255,271255,,,,,,,,,,
,,,,5,6.033195,0,8,8,511,1,a fireplace with a mirror in front of it with 3 tea lights on the corner of the hearth,a fireplace with a mirror in front of it with 2 tea lights on the corner of the hearth,wolfe2,095_L_candle,2,30,A11YS0T8MV3Q7C,2021-01-25_16h48.36.417,MetaAwareness,2020.1.2,Win32,60,3KTCJ4SCVH4XCHHYPAVJRNJGZRF1MC,A11YS0T8MV3Q7C,3TS1AR6UQRH83D2DI5DHLQL8VROF7Z,UAST5,UAST5,3TS1AR6UQRH83D2DI5DHLQL8VROF7Z,3TS1AR6UQRH83D2DI5DHLQL8VROF7Z,271255,271255,,,,,,,,,,
,,,,3,13.421625,0,9,9,238,1,a white and blue bathroom with white countertop and sink,a white and blue bathroom with a white countertop and sink with silver handles.,wolfe2,044_R_light,3,30,A11YS0T8MV3Q7C,2021-01-25_16h48.36.417,MetaAwareness,2020.1.2,Win32,60,3KTCJ4SCVH4XCHHYPAVJRNJGZRF1MC,A11YS0T8MV3Q7C,3TS1AR6UQRH83D2DI5DHLQL8VROF7Z,UAST5,UAST5,3TS1AR6UQRH83D2DI5DHLQL8VROF7Z,3TS1AR6UQRH83D2DI5DHLQL8VROF7Z,271255,271255,,,,,,,,,,
,,,,5,5.178775,0,10,10,105,1,outside portion of house with one light on top of exit,outside section of a house with two lights on top of exit,wolfe2,019_L_lamp_sized,1,30,A11YS0T8MV3Q7C,2021-01-25_16h48.36.417,MetaAwareness,2020.1.2,Win32,60,3KTCJ4SCVH4XCHHYPAVJRNJGZRF1MC,A11YS0T8MV3Q7C,3TS1AR6UQRH83D2DI5DHLQL8VROF7Z,UAST5,UAST5,3TS1AR6UQRH83D2DI5DHLQL8VROF7Z,3TS1AR6UQRH83D2DI5DHLQL8VROF7Z,271255,271255,,,,,,,,,,
,,,,4,9.46758,0,11,11,450,1,"a child's bedroom with a bunkbed, small green chair, square white table, shelves, and a chest of drawers including two blue drawers, one of which is missing a knob","a child's bedroom with a bunkbed, small green chair, square white table, shelves, and a chest of drawers including two blue drawers that both have knobs",wolfe2,083_R_knob,3,30,A11YS0T8MV3Q7C,2021-01-25_16h48.36.417,MetaAwareness,2020.1.2,Win32,60,3KTCJ4SCVH4XCHHYPAVJRNJGZRF1MC,A11YS0T8MV3Q7C,3TS1AR6UQRH83D2DI5DHLQL8VROF7Z,UAST5,UAST5,3TS1AR6UQRH83D2DI5DHLQL8VROF7Z,3TS1AR6UQRH83D2DI5DHLQL8VROF7Z,271255,271255,,,,,,,,,,
,,,,3,5.99981,0,12,12,329,1,a fireplace with no wood in it,a fireplace with wood in it,wolfe2,062_R_flowers,6,30,A11YS0T8MV3Q7C,2021-01-25_16h48.36.417,MetaAwareness,2020.1.2,Win32,60,3KTCJ4SCVH4XCHHYPAVJRNJGZRF1MC,A11YS0T8MV3Q7C,3TS1AR6UQRH83D2DI5DHLQL8VROF7Z,UAST5,UAST5,3TS1AR6UQRH83D2DI5DHLQL8VROF7Z,3TS1AR6UQRH83D2DI5DHLQL8VROF7Z,271255,271255,,,,,,,,,,
,,,,3,10.858805,0,13,13,97,1,a modern looking house with no logs in their fireplace,a modern looking house with a log in their fireplace,wolfe2,017_R_wood,1,30,A11YS0T8MV3Q7C,2021-01-25_16h48.36.417,MetaAwareness,2020.1.2,Win32,60,3KTCJ4SCVH4XCHHYPAVJRNJGZRF1MC,A11YS0T8MV3Q7C,3TS1AR6UQRH83D2DI5DHLQL8VROF7Z,UAST5,UAST5,3TS1AR6UQRH83D2DI5DHLQL8VROF7Z,3TS1AR6UQRH83D2DI5DHLQL8VROF7Z,271255,271255,,,,,,,,,,
,,,,2,10.926905,0,14,14,592,1,i see a well organized closet.  i would get lost in a closet this organized.  the photo on the dresser does give this a little poof and makes it not appear so startched.,"missing the photo on the dresser, it makes it evident that someone lives here with something a part of them.  without it, just plain and bland.",wolfe2,108_R_boa,1,30,A11YS0T8MV3Q7C,2021-01-25_16h48.36.417,MetaAwareness,2020.1.2,Win32,60,3KTCJ4SCVH4XCHHYPAVJRNJGZRF1MC,A11YS0T8MV3Q7C,3TS1AR6UQRH83D2DI5DHLQL8VROF7Z,UAST5,UAST5,3TS1AR6UQRH83D2DI5DHLQL8VROF7Z,3TS1AR6UQRH83D2DI5DHLQL8VROF7Z,271255,271255,,,,,,,,,,
,,,,3,7.80901,0,15,15,17,1,cabin-style living room overlooking a small body of water,"cabin-style living room looking out onto a body of water, with multiple ducks",wolfe2,003_L_ducks,4,30,A11YS0T8MV3Q7C,2021-01-25_16h48.36.417,MetaAwareness,2020.1.2,Win32,60,3KTCJ4SCVH4XCHHYPAVJRNJGZRF1MC,A11YS0T8MV3Q7C,3TS1AR6UQRH83D2DI5DHLQL8VROF7Z,UAST5,UAST5,3TS1AR6UQRH83D2DI5DHLQL8VROF7Z,3TS1AR6UQRH83D2DI5DHLQL8VROF7Z,271255,271255,,,,,,,,,,
,,,,3,13.153695,0,16,16,469,1,a small aparmtnet with something on the desk  num_enter,a small apartment with something small on desk,wolfe2,086_L_book,3,30,A11YS0T8MV3Q7C,2021-01-25_16h48.36.417,MetaAwareness,2020.1.2,Win32,60,3KTCJ4SCVH4XCHHYPAVJRNJGZRF1MC,A11YS0T8MV3Q7C,3TS1AR6UQRH83D2DI5DHLQL8VROF7Z,UAST5,UAST5,3TS1AR6UQRH83D2DI5DHLQL8VROF7Z,3TS1AR6UQRH83D2DI5DHLQL8VROF7Z,271255,271255,,,,,,,,,,
,,,,4,5.64706,0,17,17,295,1,a library room with three trash cans.,a library room with four trash cans.,wolfe2,057_L_bin,4,30,A11YS0T8MV3Q7C,2021-01-25_16h48.36.417,MetaAwareness,2020.1.2,Win32,60,3KTCJ4SCVH4XCHHYPAVJRNJGZRF1MC,A11YS0T8MV3Q7C,3TS1AR6UQRH83D2DI5DHLQL8VROF7Z,UAST5,UAST5,3TS1AR6UQRH83D2DI5DHLQL8VROF7Z,3TS1AR6UQRH83D2DI5DHLQL8VROF7Z,271255,271255,,,,,,,,,,
,,,,3,4.575085,0,18,18,93,1,a clean and bright living room without a sculpture on a pedastal that is next to the couh.,a clean and bright living room with a strange scultpture on a pedastal that is next to the couch.,wolfe2,016_L_art,4,30,A11YS0T8MV3Q7C,2021-01-25_16h48.36.417,MetaAwareness,2020.1.2,Win32,60,3KTCJ4SCVH4XCHHYPAVJRNJGZRF1MC,A11YS0T8MV3Q7C,3TS1AR6UQRH83D2DI5DHLQL8VROF7Z,UAST5,UAST5,3TS1AR6UQRH83D2DI5DHLQL8VROF7Z,3TS1AR6UQRH83D2DI5DHLQL8VROF7Z,271255,271255,,,,,,,,,,
,,,,2,6.90511,0,19,19,264,1,the cream colored walls match the fireplace,the bottle of perfume sits next to the picture frame of the soon to be divorced newlywed couple on top of the fireplace,wolfe2,051_R_owl,2,30,A11YS0T8MV3Q7C,2021-01-25_16h48.36.417,MetaAwareness,2020.1.2,Win32,60,3KTCJ4SCVH4XCHHYPAVJRNJGZRF1MC,A11YS0T8MV3Q7C,3TS1AR6UQRH83D2DI5DHLQL8VROF7Z,UAST5,UAST5,3TS1AR6UQRH83D2DI5DHLQL8VROF7Z,3TS1AR6UQRH83D2DI5DHLQL8VROF7Z,271255,271255,,,,,,,,,,
,,,,5,5.59762,0,20,20,387,1,"a bedroom with a classic theme, dark wood furniture with white fabric, and a dresser that has 7 handles","a bedroom with a classic theme, dark wood furniture with white fabric, and a dresser that has 8 handles",wolfe2,072_L_handle,4,30,A11YS0T8MV3Q7C,2021-01-25_16h48.36.417,MetaAwareness,2020.1.2,Win32,60,3KTCJ4SCVH4XCHHYPAVJRNJGZRF1MC,A11YS0T8MV3Q7C,3TS1AR6UQRH83D2DI5DHLQL8VROF7Z,UAST5,UAST5,3TS1AR6UQRH83D2DI5DHLQL8VROF7Z,3TS1AR6UQRH83D2DI5DHLQL8VROF7Z,271255,271255,,,,,,,,,,
,,,,4,8.57993,0,21,21,61,1,in a bedroom there is a white bathtub with smooth sides under a window,in a bedroom there is a white bathtub with an object on the side of otherwise smooth sides under a window,wolfe2,012_L_tubaccesory,2,30,A11YS0T8MV3Q7C,2021-01-25_16h48.36.417,MetaAwareness,2020.1.2,Win32,60,3KTCJ4SCVH4XCHHYPAVJRNJGZRF1MC,A11YS0T8MV3Q7C,3TS1AR6UQRH83D2DI5DHLQL8VROF7Z,UAST5,UAST5,3TS1AR6UQRH83D2DI5DHLQL8VROF7Z,3TS1AR6UQRH83D2DI5DHLQL8VROF7Z,271255,271255,,,,,,,,,,
,,,,3,9.100815,0,22,22,532,1,a hotel room with mostly white and grey furniture plus a small dark grey object lying on the floor,a hotel room with mostly white and grey furniture,wolfe2,098_R_slippers,5,30,A11YS0T8MV3Q7C,2021-01-25_16h48.36.417,MetaAwareness,2020.1.2,Win32,60,3KTCJ4SCVH4XCHHYPAVJRNJGZRF1MC,A11YS0T8MV3Q7C,3TS1AR6UQRH83D2DI5DHLQL8VROF7Z,UAST5,UAST5,3TS1AR6UQRH83D2DI5DHLQL8VROF7Z,3TS1AR6UQRH83D2DI5DHLQL8VROF7Z,271255,271255,,,,,,,,,,
,,,,3,5.028215,0,23,23,309,1,"a nice living room with sofa, coffee table",a nice living room with sofa and coffeetable with an added black cushion.,wolfe2,060_L_pillow,2,30,A11YS0T8MV3Q7C,2021-01-25_16h48.36.417,MetaAwareness,2020.1.2,Win32,60,3KTCJ4SCVH4XCHHYPAVJRNJGZRF1MC,A11YS0T8MV3Q7C,3TS1AR6UQRH83D2DI5DHLQL8VROF7Z,UAST5,UAST5,3TS1AR6UQRH83D2DI5DHLQL8VROF7Z,3TS1AR6UQRH83D2DI5DHLQL8VROF7Z,271255,271255,,,,,,,,,,
,,,,4,6.87081,0,24,24,593,1,"there are many clothes in this room. there is a full size mirror on the left. next to to mirror is a cream color chest with several objects, including a blue globe. there are scarfs on the door.",there are many clothes in the room. there is a full size mirror on the left with a cream colored chest next to it. on the chest are several objects. there are scarfs on the door.,wolfe2,108_R_boa,3,30,A11YS0T8MV3Q7C,2021-01-25_16h48.36.417,MetaAwareness,2020.1.2,Win32,60,3KTCJ4SCVH4XCHHYPAVJRNJGZRF1MC,A11YS0T8MV3Q7C,3TS1AR6UQRH83D2DI5DHLQL8VROF7Z,UAST5,UAST5,3TS1AR6UQRH83D2DI5DHLQL8VROF7Z,3TS1AR6UQRH83D2DI5DHLQL8VROF7Z,271255,271255,,,,,,,,,,
,,,,4,7.138605,0,25,25,537,1,a bathroom with an odd looking sink. there is a mirror to the left of the sink connected to the wall.,a bathroom with an odd looking sink. there is a cut out in the wall to the left of the sink.,wolfe2,100_L_mirror,1,30,A11YS0T8MV3Q7C,2021-01-25_16h48.36.417,MetaAwareness,2020.1.2,Win32,60,3KTCJ4SCVH4XCHHYPAVJRNJGZRF1MC,A11YS0T8MV3Q7C,3TS1AR6UQRH83D2DI5DHLQL8VROF7Z,UAST5,UAST5,3TS1AR6UQRH83D2DI5DHLQL8VROF7Z,3TS1AR6UQRH83D2DI5DHLQL8VROF7Z,271255,271255,,,,,,,,,,
,,,,5,4.323085,0,26,26,162,1,there are four red candle holders in this large modern bathroom,there are five red candle holders in this large modern bathroom,wolfe2,029_R_glass,3,30,A11YS0T8MV3Q7C,2021-01-25_16h48.36.417,MetaAwareness,2020.1.2,Win32,60,3KTCJ4SCVH4XCHHYPAVJRNJGZRF1MC,A11YS0T8MV3Q7C,3TS1AR6UQRH83D2DI5DHLQL8VROF7Z,UAST5,UAST5,3TS1AR6UQRH83D2DI5DHLQL8VROF7Z,3TS1AR6UQRH83D2DI5DHLQL8VROF7Z,271255,271255,,,,,,,,,,
,,,,4,3.26913,0,27,27,289,1,a white chaise lounge sofa,a white chaise lounge sofa with a brown throw blanket draped,wolfe2,056_R_comforter,2,30,A11YS0T8MV3Q7C,2021-01-25_16h48.36.417,MetaAwareness,2020.1.2,Win32,60,3KTCJ4SCVH4XCHHYPAVJRNJGZRF1MC,A11YS0T8MV3Q7C,3TS1AR6UQRH83D2DI5DHLQL8VROF7Z,UAST5,UAST5,3TS1AR6UQRH83D2DI5DHLQL8VROF7Z,3TS1AR6UQRH83D2DI5DHLQL8VROF7Z,271255,271255,,,,,,,,,,
,,,,4,4.55862,0,28,28,67,1,a luxurious bathroom with a white tub,a luxurious bathroom with a white tub with a blue circle,wolfe2,012_R_tubaccesory,5,30,A11YS0T8MV3Q7C,2021-01-25_16h48.36.417,MetaAwareness,2020.1.2,Win32,60,3KTCJ4SCVH4XCHHYPAVJRNJGZRF1MC,A11YS0T8MV3Q7C,3TS1AR6UQRH83D2DI5DHLQL8VROF7Z,UAST5,UAST5,3TS1AR6UQRH83D2DI5DHLQL8VROF7Z,3TS1AR6UQRH83D2DI5DHLQL8VROF7Z,271255,271255,,,,,,,,,,
,,,,5,6.419045,0,29,29,147,1,a white bathroom with wood accents that has one shelf above the wooden counter,a white bathroom with wood accents that has two shelves above the wooden counter,wolfe2,026_R_rack,1,30,A11YS0T8MV3Q7C,2021-01-25_16h48.36.417,MetaAwareness,2020.1.2,Win32,60,3KTCJ4SCVH4XCHHYPAVJRNJGZRF1MC,A11YS0T8MV3Q7C,3TS1AR6UQRH83D2DI5DHLQL8VROF7Z,UAST5,UAST5,3TS1AR6UQRH83D2DI5DHLQL8VROF7Z,3TS1AR6UQRH83D2DI5DHLQL8VROF7Z,271255,271255,,,,,,,,,,
,,,,,,,,,,,,,,,,30,A11YS0T8MV3Q7C,2021-01-25_16h48.36.417,MetaAwareness,2020.1.2,Win32,60,3KTCJ4SCVH4XCHHYPAVJRNJGZRF1MC,A11YS0T8MV3Q7C,3TS1AR6UQRH83D2DI5DHLQL8VROF7Z,UAST5,UAST5,3TS1AR6UQRH83D2DI5DHLQL8VROF7Z,3TS1AR6UQRH83D2DI5DHLQL8VROF7Z,271255,271255,6,12.014585,someone laying underneath a blue beach umbrella on a crowded beach,someone laying underneath a blue beach umbrella on a crowded beach,same,2,5.363605,members of a marching band crossing a track that all have feather plumes at the front of their hats,a cluttered and rustic looking cafe with 10 hanging lights,different
