consent_response.keys,consent_response.rt,key_resp_2.keys,key_resp_2.rt,user_resp.keys,user_resp.rt,trials.thisRepN,trials.thisTrialN,trials.thisN,trials.thisIndex,trials.ran,image_1_text,image_2_text,database,image,number,age,worker_ID,date,expName,psychopyVersion,OS,frameRate,hitId,workerId,assignmentId,a,tp_a,b,tp_b,c,tp_c,catch_same_resp.keys,catch_same_resp.rt,image_1_text_catch_same,image_2_text_catch_same,image_catch_same,catch_different_resp.keys,catch_different_resp.rt,image_1_text_catch_different,image_2_text_catch_different,image_catch_different
space,5.645405,space,5.74932,2,18.84135,0,0,0,170,1,a furnished living room with a l shaped couch.  the ceiling has a single beam going across it,a furnished living room with a l shaped couch.  the ceiling has two beams going across it,wolfe2,031_R_log,2,72,A1BNGJBEWJS8WE,2021-01-25_10h53.59.242,MetaAwareness,2020.1.2,Win32,60,3L7SUC0TTVXX5SWGTRRJDI06UYX0MU,A1BNGJBEWJS8WE,3JAOYWH7VJ7YHO02JDEZUZHYNCU9L4,7YAJ5,7YAJ5,3JAOYWH7VJ7YHO02JDEZUZHYNCU9L4,3JAOYWH7VJ7YHO02JDEZUZHYNCU9L4,271255,271255,,,,,,,,,,
,,,,3,17.148645,0,1,1,27,1,modern apartment with bare wall over couch.,modern apartment with mirror over couch.,wolfe2,005_L_mirror,5,72,A1BNGJBEWJS8WE,2021-01-25_10h53.59.242,MetaAwareness,2020.1.2,Win32,60,3L7SUC0TTVXX5SWGTRRJDI06UYX0MU,A1BNGJBEWJS8WE,3JAOYWH7VJ7YHO02JDEZUZHYNCU9L4,7YAJ5,7YAJ5,3JAOYWH7VJ7YHO02JDEZUZHYNCU9L4,3JAOYWH7VJ7YHO02JDEZUZHYNCU9L4,271255,271255,,,,,,,,,,
,,,,3,18.663925,0,2,2,379,1,a nice living room without a flower vessel on top of the cupboards,a nice living room with a flower vessel on top of the cupboard,wolfe2,071_L_art,4,72,A1BNGJBEWJS8WE,2021-01-25_10h53.59.242,MetaAwareness,2020.1.2,Win32,60,3L7SUC0TTVXX5SWGTRRJDI06UYX0MU,A1BNGJBEWJS8WE,3JAOYWH7VJ7YHO02JDEZUZHYNCU9L4,7YAJ5,7YAJ5,3JAOYWH7VJ7YHO02JDEZUZHYNCU9L4,3JAOYWH7VJ7YHO02JDEZUZHYNCU9L4,271255,271255,,,,,,,,,,
,,,,3,9.680465,0,3,3,124,1,a kitchen with high end appliances and white walls and cabinets,"a kitchen with high end appliances and white walls and cabinets, and hanging bulbs.",wolfe2,022_R_lamp,3,72,A1BNGJBEWJS8WE,2021-01-25_10h53.59.242,MetaAwareness,2020.1.2,Win32,60,3L7SUC0TTVXX5SWGTRRJDI06UYX0MU,A1BNGJBEWJS8WE,3JAOYWH7VJ7YHO02JDEZUZHYNCU9L4,7YAJ5,7YAJ5,3JAOYWH7VJ7YHO02JDEZUZHYNCU9L4,3JAOYWH7VJ7YHO02JDEZUZHYNCU9L4,271255,271255,,,,,,,,,,
,,,,1,14.313655,0,4,4,380,1,there is taxky wallpaper in the awful looking living room with cream furniture,there is a piece of coral that sits near the lamp and candle holder in the living room with cream furniture,wolfe2,071_R_art,1,72,A1BNGJBEWJS8WE,2021-01-25_10h53.59.242,MetaAwareness,2020.1.2,Win32,60,3L7SUC0TTVXX5SWGTRRJDI06UYX0MU,A1BNGJBEWJS8WE,3JAOYWH7VJ7YHO02JDEZUZHYNCU9L4,7YAJ5,7YAJ5,3JAOYWH7VJ7YHO02JDEZUZHYNCU9L4,3JAOYWH7VJ7YHO02JDEZUZHYNCU9L4,271255,271255,,,,,,,,,,
,,,,3,9.854215,0,5,5,461,1,a dimly lit bathroom that has an extra outlet next to the mirror,a dimly lit bathroom that does not have an extra outlet,wolfe2,085_L_switchboard,3,72,A1BNGJBEWJS8WE,2021-01-25_10h53.59.242,MetaAwareness,2020.1.2,Win32,60,3L7SUC0TTVXX5SWGTRRJDI06UYX0MU,A1BNGJBEWJS8WE,3JAOYWH7VJ7YHO02JDEZUZHYNCU9L4,7YAJ5,7YAJ5,3JAOYWH7VJ7YHO02JDEZUZHYNCU9L4,3JAOYWH7VJ7YHO02JDEZUZHYNCU9L4,271255,271255,,,,,,,,,,
,,,,3,9.241465,0,6,6,63,1,"a bathroom with double sinks, a large window and a white tub in the middle.","a bathroom with double sinks, a large window and white tub with a drain in the middle.",wolfe2,012_R_tubaccesory,1,72,A1BNGJBEWJS8WE,2021-01-25_10h53.59.242,MetaAwareness,2020.1.2,Win32,60,3L7SUC0TTVXX5SWGTRRJDI06UYX0MU,A1BNGJBEWJS8WE,3JAOYWH7VJ7YHO02JDEZUZHYNCU9L4,7YAJ5,7YAJ5,3JAOYWH7VJ7YHO02JDEZUZHYNCU9L4,3JAOYWH7VJ7YHO02JDEZUZHYNCU9L4,271255,271255,,,,,,,,,,
,,,,3,13.456835,0,7,7,3,1,"a master bedroom with green walls. on the walls are a tapestry of a swan, and a picture of nature.","a master bedroom with green walls. on the walls are a tapestry of a swan, a picture of nature, and a mirror.",wolfe2,001_L_mirror,5,72,A1BNGJBEWJS8WE,2021-01-25_10h53.59.242,MetaAwareness,2020.1.2,Win32,60,3L7SUC0TTVXX5SWGTRRJDI06UYX0MU,A1BNGJBEWJS8WE,3JAOYWH7VJ7YHO02JDEZUZHYNCU9L4,7YAJ5,7YAJ5,3JAOYWH7VJ7YHO02JDEZUZHYNCU9L4,3JAOYWH7VJ7YHO02JDEZUZHYNCU9L4,271255,271255,,,,,,,,,,
,,,,1,16.989915,0,8,8,644,1,a nice tiled sitting room with a piano and a lovely seating area with what appears to be leather furniture.,"this lovely tiled sitting room has a piano underneath a painting, and nice leather seats in the middle of the room. at  the back, by the sliding glass doors, is another piece of art, for collectibles.",wolfe2,119_L_painting,4,72,A1BNGJBEWJS8WE,2021-01-25_10h53.59.242,MetaAwareness,2020.1.2,Win32,60,3L7SUC0TTVXX5SWGTRRJDI06UYX0MU,A1BNGJBEWJS8WE,3JAOYWH7VJ7YHO02JDEZUZHYNCU9L4,7YAJ5,7YAJ5,3JAOYWH7VJ7YHO02JDEZUZHYNCU9L4,3JAOYWH7VJ7YHO02JDEZUZHYNCU9L4,271255,271255,,,,,,,,,,
,,,,2,9.87268,0,9,9,156,1,a simple bathroom with modern aesthetic which has 1 hand towel on the counter,a simple bathroom with modern aesthetic which has 2 hand towels on the counter,wolfe2,028_L_vase,1,72,A1BNGJBEWJS8WE,2021-01-25_10h53.59.242,MetaAwareness,2020.1.2,Win32,60,3L7SUC0TTVXX5SWGTRRJDI06UYX0MU,A1BNGJBEWJS8WE,3JAOYWH7VJ7YHO02JDEZUZHYNCU9L4,7YAJ5,7YAJ5,3JAOYWH7VJ7YHO02JDEZUZHYNCU9L4,3JAOYWH7VJ7YHO02JDEZUZHYNCU9L4,271255,271255,,,,,,,,,,
,,,,3,13.423455,0,10,10,387,1,"a bedroom with a classic theme, dark wood furniture with white fabric, and a dresser that has 7 handles","a bedroom with a classic theme, dark wood furniture with white fabric, and a dresser that has 8 handles",wolfe2,072_L_handle,4,72,A1BNGJBEWJS8WE,2021-01-25_10h53.59.242,MetaAwareness,2020.1.2,Win32,60,3L7SUC0TTVXX5SWGTRRJDI06UYX0MU,A1BNGJBEWJS8WE,3JAOYWH7VJ7YHO02JDEZUZHYNCU9L4,7YAJ5,7YAJ5,3JAOYWH7VJ7YHO02JDEZUZHYNCU9L4,3JAOYWH7VJ7YHO02JDEZUZHYNCU9L4,271255,271255,,,,,,,,,,
,,,,3,16.134825,0,11,11,618,1,a room with open patio doors and a small figurine on a table next to books and a bowl in front of a loveseat,a room with open patio doors and books and a bowl on a table in front of a loveseat,wolfe2,114_L_bird,2,72,A1BNGJBEWJS8WE,2021-01-25_10h53.59.242,MetaAwareness,2020.1.2,Win32,60,3L7SUC0TTVXX5SWGTRRJDI06UYX0MU,A1BNGJBEWJS8WE,3JAOYWH7VJ7YHO02JDEZUZHYNCU9L4,7YAJ5,7YAJ5,3JAOYWH7VJ7YHO02JDEZUZHYNCU9L4,3JAOYWH7VJ7YHO02JDEZUZHYNCU9L4,271255,271255,,,,,,,,,,
,,,,3,9.853955,0,12,12,272,1,a large stone bathroom that has a cabinet with one lower drawer,a large stone bathroom that has a cabinet with two lower drawers,wolfe2,053_L_handle,4,72,A1BNGJBEWJS8WE,2021-01-25_10h53.59.242,MetaAwareness,2020.1.2,Win32,60,3L7SUC0TTVXX5SWGTRRJDI06UYX0MU,A1BNGJBEWJS8WE,3JAOYWH7VJ7YHO02JDEZUZHYNCU9L4,7YAJ5,7YAJ5,3JAOYWH7VJ7YHO02JDEZUZHYNCU9L4,3JAOYWH7VJ7YHO02JDEZUZHYNCU9L4,271255,271255,,,,,,,,,,
,,,,3,8.4494,0,13,13,303,1,colorful bedroom with faux fur on bench,colorful bedroom with faux fur and purse on bench,wolfe2,058_R_clutch,3,72,A1BNGJBEWJS8WE,2021-01-25_10h53.59.242,MetaAwareness,2020.1.2,Win32,60,3L7SUC0TTVXX5SWGTRRJDI06UYX0MU,A1BNGJBEWJS8WE,3JAOYWH7VJ7YHO02JDEZUZHYNCU9L4,7YAJ5,7YAJ5,3JAOYWH7VJ7YHO02JDEZUZHYNCU9L4,3JAOYWH7VJ7YHO02JDEZUZHYNCU9L4,271255,271255,,,,,,,,,,
,,,,1,17.884925,0,14,14,88,1,there is nothing but white paint on the ceiling of this room.,there is small sight on the ceiling of this room.,wolfe2,015_R_ceilinglight,2,72,A1BNGJBEWJS8WE,2021-01-25_10h53.59.242,MetaAwareness,2020.1.2,Win32,60,3L7SUC0TTVXX5SWGTRRJDI06UYX0MU,A1BNGJBEWJS8WE,3JAOYWH7VJ7YHO02JDEZUZHYNCU9L4,7YAJ5,7YAJ5,3JAOYWH7VJ7YHO02JDEZUZHYNCU9L4,3JAOYWH7VJ7YHO02JDEZUZHYNCU9L4,271255,271255,,,,,,,,,,
,,,,3,14.202405,0,15,15,150,1,the bathroom is looks good and there is no soap box  in that room,the bathroom is looks good and there is a soap box in that room,wolfe2,027_L_soapdish,2,72,A1BNGJBEWJS8WE,2021-01-25_10h53.59.242,MetaAwareness,2020.1.2,Win32,60,3L7SUC0TTVXX5SWGTRRJDI06UYX0MU,A1BNGJBEWJS8WE,3JAOYWH7VJ7YHO02JDEZUZHYNCU9L4,7YAJ5,7YAJ5,3JAOYWH7VJ7YHO02JDEZUZHYNCU9L4,3JAOYWH7VJ7YHO02JDEZUZHYNCU9L4,271255,271255,,,,,,,,,,
,,,,5,24.62831,0,16,16,434,1,"a light, cheery kitchen with a long counter than holds one potted plant","a light, cheery kitchen with a long counter that holds one potted plant",wolfe2,080_R_plant,5,72,A1BNGJBEWJS8WE,2021-01-25_10h53.59.242,MetaAwareness,2020.1.2,Win32,60,3L7SUC0TTVXX5SWGTRRJDI06UYX0MU,A1BNGJBEWJS8WE,3JAOYWH7VJ7YHO02JDEZUZHYNCU9L4,7YAJ5,7YAJ5,3JAOYWH7VJ7YHO02JDEZUZHYNCU9L4,3JAOYWH7VJ7YHO02JDEZUZHYNCU9L4,271255,271255,,,,,,,,,,
,,,,3,15.879265,0,17,17,151,1,a large beige and white bathroom with tub and walk-in shower with no soap dish on the wall,a large beige and white bathroom with a tub and walk-in shower that has a soap dish on the wall,wolfe2,027_L_soapdish,3,72,A1BNGJBEWJS8WE,2021-01-25_10h53.59.242,MetaAwareness,2020.1.2,Win32,60,3L7SUC0TTVXX5SWGTRRJDI06UYX0MU,A1BNGJBEWJS8WE,3JAOYWH7VJ7YHO02JDEZUZHYNCU9L4,7YAJ5,7YAJ5,3JAOYWH7VJ7YHO02JDEZUZHYNCU9L4,3JAOYWH7VJ7YHO02JDEZUZHYNCU9L4,271255,271255,,,,,,,,,,
,,,,2,9.189025,0,18,18,458,1,part of the wall close to windows,light device attached to the wall,wolfe2,084_R_light,8,72,A1BNGJBEWJS8WE,2021-01-25_10h53.59.242,MetaAwareness,2020.1.2,Win32,60,3L7SUC0TTVXX5SWGTRRJDI06UYX0MU,A1BNGJBEWJS8WE,3JAOYWH7VJ7YHO02JDEZUZHYNCU9L4,7YAJ5,7YAJ5,3JAOYWH7VJ7YHO02JDEZUZHYNCU9L4,3JAOYWH7VJ7YHO02JDEZUZHYNCU9L4,271255,271255,,,,,,,,,,
,,,,2,8.08939,0,19,19,197,1,a table in a bedroom with nothing on it,plastic fruit on a table in a bedroom,wolfe2,035_R_fruit,3,72,A1BNGJBEWJS8WE,2021-01-25_10h53.59.242,MetaAwareness,2020.1.2,Win32,60,3L7SUC0TTVXX5SWGTRRJDI06UYX0MU,A1BNGJBEWJS8WE,3JAOYWH7VJ7YHO02JDEZUZHYNCU9L4,7YAJ5,7YAJ5,3JAOYWH7VJ7YHO02JDEZUZHYNCU9L4,3JAOYWH7VJ7YHO02JDEZUZHYNCU9L4,271255,271255,,,,,,,,,,
,,,,2,37.11667,0,20,20,689,1,"a spacious living room with a large couch in an l-shape and a round coffee tale, with a set of candles sitting on a plate under the television","a spacious living room with a large couch in an l-shape and a round coffee table, with no set of candles sitting underneath the television",wolfe2,126_R_candles,1,72,A1BNGJBEWJS8WE,2021-01-25_10h53.59.242,MetaAwareness,2020.1.2,Win32,60,3L7SUC0TTVXX5SWGTRRJDI06UYX0MU,A1BNGJBEWJS8WE,3JAOYWH7VJ7YHO02JDEZUZHYNCU9L4,7YAJ5,7YAJ5,3JAOYWH7VJ7YHO02JDEZUZHYNCU9L4,3JAOYWH7VJ7YHO02JDEZUZHYNCU9L4,271255,271255,,,,,,,,,,
,,,,3,36.464375,0,21,21,83,1,atrium area of a business with three lights on the wall,atrium area of a business with four lights on the wall,wolfe2,014_R_lamp,4,72,A1BNGJBEWJS8WE,2021-01-25_10h53.59.242,MetaAwareness,2020.1.2,Win32,60,3L7SUC0TTVXX5SWGTRRJDI06UYX0MU,A1BNGJBEWJS8WE,3JAOYWH7VJ7YHO02JDEZUZHYNCU9L4,7YAJ5,7YAJ5,3JAOYWH7VJ7YHO02JDEZUZHYNCU9L4,3JAOYWH7VJ7YHO02JDEZUZHYNCU9L4,271255,271255,,,,,,,,,,
,,,,2,11.252435,0,22,22,475,1,it's a modern cool toned bathroom with a large mirror and sink,"still a modern cool toned bathroom, but it's missing a wall hanger by the toilet now.",wolfe2,087_R_towelhandle,3,72,A1BNGJBEWJS8WE,2021-01-25_10h53.59.242,MetaAwareness,2020.1.2,Win32,60,3L7SUC0TTVXX5SWGTRRJDI06UYX0MU,A1BNGJBEWJS8WE,3JAOYWH7VJ7YHO02JDEZUZHYNCU9L4,7YAJ5,7YAJ5,3JAOYWH7VJ7YHO02JDEZUZHYNCU9L4,3JAOYWH7VJ7YHO02JDEZUZHYNCU9L4,271255,271255,,,,,,,,,,
,,,,2,8.32972,0,23,23,575,1,a light blue wall with a napkin dispenser next to the white door.,a light blue wall next to the white door.,wolfe2,106_L_toweldispenser,7,72,A1BNGJBEWJS8WE,2021-01-25_10h53.59.242,MetaAwareness,2020.1.2,Win32,60,3L7SUC0TTVXX5SWGTRRJDI06UYX0MU,A1BNGJBEWJS8WE,3JAOYWH7VJ7YHO02JDEZUZHYNCU9L4,7YAJ5,7YAJ5,3JAOYWH7VJ7YHO02JDEZUZHYNCU9L4,3JAOYWH7VJ7YHO02JDEZUZHYNCU9L4,271255,271255,,,,,,,,,,
,,,,2,7.952785,0,24,24,342,1,an empty slot at the bookshelf,books arranged on a bookshelf,wolfe2,065_L_cd,2,72,A1BNGJBEWJS8WE,2021-01-25_10h53.59.242,MetaAwareness,2020.1.2,Win32,60,3L7SUC0TTVXX5SWGTRRJDI06UYX0MU,A1BNGJBEWJS8WE,3JAOYWH7VJ7YHO02JDEZUZHYNCU9L4,7YAJ5,7YAJ5,3JAOYWH7VJ7YHO02JDEZUZHYNCU9L4,3JAOYWH7VJ7YHO02JDEZUZHYNCU9L4,271255,271255,,,,,,,,,,
,,,,1,6.22126,0,25,25,635,1,a room with shoes on the floor leading to the outdoors,a room without shoes on the floor,wolfe2,118_L_shoes,3,72,A1BNGJBEWJS8WE,2021-01-25_10h53.59.242,MetaAwareness,2020.1.2,Win32,60,3L7SUC0TTVXX5SWGTRRJDI06UYX0MU,A1BNGJBEWJS8WE,3JAOYWH7VJ7YHO02JDEZUZHYNCU9L4,7YAJ5,7YAJ5,3JAOYWH7VJ7YHO02JDEZUZHYNCU9L4,3JAOYWH7VJ7YHO02JDEZUZHYNCU9L4,271255,271255,,,,,,,,,,
,,,,3,16.43411,0,26,26,500,1,a living room with a giant mirror on the wall with a white couch and fireplace with 2 candles in it,a living room with a giant mirror on the wall with a white couch and fireplace,wolfe2,092_L_candles,1,72,A1BNGJBEWJS8WE,2021-01-25_10h53.59.242,MetaAwareness,2020.1.2,Win32,60,3L7SUC0TTVXX5SWGTRRJDI06UYX0MU,A1BNGJBEWJS8WE,3JAOYWH7VJ7YHO02JDEZUZHYNCU9L4,7YAJ5,7YAJ5,3JAOYWH7VJ7YHO02JDEZUZHYNCU9L4,3JAOYWH7VJ7YHO02JDEZUZHYNCU9L4,271255,271255,,,,,,,,,,
,,,,5,30.87428,0,27,27,208,1,"a large white bathroom that has both a tub and a shower as well as a toilet and a bidet, and two brown towels on a shelf","a large white bathroom that has both a tub and a shower as well as a toilet and a bidet, and three brown towels on a shelf",wolfe2,037_R_towel,4,72,A1BNGJBEWJS8WE,2021-01-25_10h53.59.242,MetaAwareness,2020.1.2,Win32,60,3L7SUC0TTVXX5SWGTRRJDI06UYX0MU,A1BNGJBEWJS8WE,3JAOYWH7VJ7YHO02JDEZUZHYNCU9L4,7YAJ5,7YAJ5,3JAOYWH7VJ7YHO02JDEZUZHYNCU9L4,3JAOYWH7VJ7YHO02JDEZUZHYNCU9L4,271255,271255,,,,,,,,,,
,,,,2,15.68879,0,28,28,605,1,a florida room with a small vase on the floor,a florida room with some plantsnum_enter,wolfe2,111_L_pot,3,72,A1BNGJBEWJS8WE,2021-01-25_10h53.59.242,MetaAwareness,2020.1.2,Win32,60,3L7SUC0TTVXX5SWGTRRJDI06UYX0MU,A1BNGJBEWJS8WE,3JAOYWH7VJ7YHO02JDEZUZHYNCU9L4,7YAJ5,7YAJ5,3JAOYWH7VJ7YHO02JDEZUZHYNCU9L4,3JAOYWH7VJ7YHO02JDEZUZHYNCU9L4,271255,271255,,,,,,,,,,
,,,,3,12.689265,0,29,29,460,1,a tissue holder on the wall,a clear wall,wolfe2,085_L_switchboard,2,72,A1BNGJBEWJS8WE,2021-01-25_10h53.59.242,MetaAwareness,2020.1.2,Win32,60,3L7SUC0TTVXX5SWGTRRJDI06UYX0MU,A1BNGJBEWJS8WE,3JAOYWH7VJ7YHO02JDEZUZHYNCU9L4,7YAJ5,7YAJ5,3JAOYWH7VJ7YHO02JDEZUZHYNCU9L4,3JAOYWH7VJ7YHO02JDEZUZHYNCU9L4,271255,271255,,,,,,,,,,
,,,,,,,,,,,,,,,,72,A1BNGJBEWJS8WE,2021-01-25_10h53.59.242,MetaAwareness,2020.1.2,Win32,60,3L7SUC0TTVXX5SWGTRRJDI06UYX0MU,A1BNGJBEWJS8WE,3JAOYWH7VJ7YHO02JDEZUZHYNCU9L4,7YAJ5,7YAJ5,3JAOYWH7VJ7YHO02JDEZUZHYNCU9L4,3JAOYWH7VJ7YHO02JDEZUZHYNCU9L4,271255,271255,6,15.307995,someone laying underneath a blue beach umbrella on a crowded beach,someone laying underneath a blue beach umbrella on a crowded beach,same,1,14.987955,members of a marching band crossing a track that all have feather plumes at the front of their hats,a cluttered and rustic looking cafe with 10 hanging lights,different
