consent_response.keys,consent_response.rt,key_resp_2.keys,key_resp_2.rt,user_resp.keys,user_resp.rt,trials.thisRepN,trials.thisTrialN,trials.thisN,trials.thisIndex,trials.ran,image_1_text,image_2_text,database,image,number,age,worker_ID,date,expName,psychopyVersion,OS,frameRate,hitId,workerId,assignmentId,a,tp_a,b,tp_b,c,tp_c,catch_same_resp.keys,catch_same_resp.rt,image_1_text_catch_same,image_2_text_catch_same,image_catch_same,catch_different_resp.keys,catch_different_resp.rt,image_1_text_catch_different,image_2_text_catch_different,image_catch_different
space,13.186055,space,17.167285,3,19.44926,0,0,0,444,1,a spare couch for sick relatives,a spare couch for a big dog,wolfe2,082_R_bowl,7,35,A1SD3O0726NFPZ,2021-01-25_16h11.48.869,MetaAwareness,2020.1.2,Win32,60,3IWA71V4TJJ3DFHZ9N99X0QVE6DX6O,A1SD3O0726NFPZ,3SNLUL3WO5QW1GO5HO9QQV4C0Y5ULJ,WUNS5,WUNS5,3SNLUL3WO5QW1GO5HO9QQV4C0Y5ULJ,3SNLUL3WO5QW1GO5HO9QQV4C0Y5ULJ,271255,271255,,,,,,,,,,
,,,,4,10.31173,0,1,1,413,1,"a very modern looking kitchen with four stools, one without a footrest","a very modern kitchen with four stools, all of which have a foot rest",wolfe2,077_L_footrest,2,35,A1SD3O0726NFPZ,2021-01-25_16h11.48.869,MetaAwareness,2020.1.2,Win32,60,3IWA71V4TJJ3DFHZ9N99X0QVE6DX6O,A1SD3O0726NFPZ,3SNLUL3WO5QW1GO5HO9QQV4C0Y5ULJ,WUNS5,WUNS5,3SNLUL3WO5QW1GO5HO9QQV4C0Y5ULJ,3SNLUL3WO5QW1GO5HO9QQV4C0Y5ULJ,271255,271255,,,,,,,,,,
,,,,4,7.80319,0,2,2,574,1,a large bathroom with a hand towel dispenser on the wall,a large bathroom,wolfe2,106_L_toweldispenser,5,35,A1SD3O0726NFPZ,2021-01-25_16h11.48.869,MetaAwareness,2020.1.2,Win32,60,3IWA71V4TJJ3DFHZ9N99X0QVE6DX6O,A1SD3O0726NFPZ,3SNLUL3WO5QW1GO5HO9QQV4C0Y5ULJ,WUNS5,WUNS5,3SNLUL3WO5QW1GO5HO9QQV4C0Y5ULJ,3SNLUL3WO5QW1GO5HO9QQV4C0Y5ULJ,271255,271255,,,,,,,,,,
,,,,2,6.87145,0,3,3,342,1,an empty slot at the bookshelf,books arranged on a bookshelf,wolfe2,065_L_cd,2,35,A1SD3O0726NFPZ,2021-01-25_16h11.48.869,MetaAwareness,2020.1.2,Win32,60,3IWA71V4TJJ3DFHZ9N99X0QVE6DX6O,A1SD3O0726NFPZ,3SNLUL3WO5QW1GO5HO9QQV4C0Y5ULJ,WUNS5,WUNS5,3SNLUL3WO5QW1GO5HO9QQV4C0Y5ULJ,3SNLUL3WO5QW1GO5HO9QQV4C0Y5ULJ,271255,271255,,,,,,,,,,
,,,,4,14.62525,0,4,4,6,1,it's a very elegant colored bedroom with fancy paintings and colors all around,"it's still very elegantly colored bedroom with fancy art and decorations, but theres a mirror on the wall now as well.",wolfe2,001_R_mirror,3,35,A1SD3O0726NFPZ,2021-01-25_16h11.48.869,MetaAwareness,2020.1.2,Win32,60,3IWA71V4TJJ3DFHZ9N99X0QVE6DX6O,A1SD3O0726NFPZ,3SNLUL3WO5QW1GO5HO9QQV4C0Y5ULJ,WUNS5,WUNS5,3SNLUL3WO5QW1GO5HO9QQV4C0Y5ULJ,3SNLUL3WO5QW1GO5HO9QQV4C0Y5ULJ,271255,271255,,,,,,,,,,
,,,,1,4.68663,0,5,5,79,1,a clear wall,a lamp on a wall,wolfe2,014_L_lamp,3,35,A1SD3O0726NFPZ,2021-01-25_16h11.48.869,MetaAwareness,2020.1.2,Win32,60,3IWA71V4TJJ3DFHZ9N99X0QVE6DX6O,A1SD3O0726NFPZ,3SNLUL3WO5QW1GO5HO9QQV4C0Y5ULJ,WUNS5,WUNS5,3SNLUL3WO5QW1GO5HO9QQV4C0Y5ULJ,3SNLUL3WO5QW1GO5HO9QQV4C0Y5ULJ,271255,271255,,,,,,,,,,
,,,,5,6.610135,0,6,6,277,1,a very contemporary living room with lots of books on display,a very contemporary living room with lots of books on display and a fireplace loaded with wood on the side,wolfe2,054_L_firewood,1,35,A1SD3O0726NFPZ,2021-01-25_16h11.48.869,MetaAwareness,2020.1.2,Win32,60,3IWA71V4TJJ3DFHZ9N99X0QVE6DX6O,A1SD3O0726NFPZ,3SNLUL3WO5QW1GO5HO9QQV4C0Y5ULJ,WUNS5,WUNS5,3SNLUL3WO5QW1GO5HO9QQV4C0Y5ULJ,3SNLUL3WO5QW1GO5HO9QQV4C0Y5ULJ,271255,271255,,,,,,,,,,
,,,,5,6.92944,0,7,7,172,1,"a modern living room with many windows, with just one wooden beam on the ceiling","a modern living room with many windows, with two wooden beams on the ceiling",wolfe2,031_R_log,4,35,A1SD3O0726NFPZ,2021-01-25_16h11.48.869,MetaAwareness,2020.1.2,Win32,60,3IWA71V4TJJ3DFHZ9N99X0QVE6DX6O,A1SD3O0726NFPZ,3SNLUL3WO5QW1GO5HO9QQV4C0Y5ULJ,WUNS5,WUNS5,3SNLUL3WO5QW1GO5HO9QQV4C0Y5ULJ,3SNLUL3WO5QW1GO5HO9QQV4C0Y5ULJ,271255,271255,,,,,,,,,,
,,,,5,7.497845,0,8,8,122,1,a modern kitchen with an island in the middle and two glass bulbous looking lights above it,a modern kitchen with an island in he middle and three glass bulbous looking lights above it,wolfe2,022_R_lamp,1,35,A1SD3O0726NFPZ,2021-01-25_16h11.48.869,MetaAwareness,2020.1.2,Win32,60,3IWA71V4TJJ3DFHZ9N99X0QVE6DX6O,A1SD3O0726NFPZ,3SNLUL3WO5QW1GO5HO9QQV4C0Y5ULJ,WUNS5,WUNS5,3SNLUL3WO5QW1GO5HO9QQV4C0Y5ULJ,3SNLUL3WO5QW1GO5HO9QQV4C0Y5ULJ,271255,271255,,,,,,,,,,
,,,,5,11.56965,0,9,9,537,1,a bathroom with an odd looking sink. there is a mirror to the left of the sink connected to the wall.,a bathroom with an odd looking sink. there is a cut out in the wall to the left of the sink.,wolfe2,100_L_mirror,1,35,A1SD3O0726NFPZ,2021-01-25_16h11.48.869,MetaAwareness,2020.1.2,Win32,60,3IWA71V4TJJ3DFHZ9N99X0QVE6DX6O,A1SD3O0726NFPZ,3SNLUL3WO5QW1GO5HO9QQV4C0Y5ULJ,WUNS5,WUNS5,3SNLUL3WO5QW1GO5HO9QQV4C0Y5ULJ,3SNLUL3WO5QW1GO5HO9QQV4C0Y5ULJ,271255,271255,,,,,,,,,,
,,,,1,5.01609,0,10,10,445,1,the side of a coffee table that is grey,a bowl is sitting underneath a table,wolfe2,082_R_bowl,8,35,A1SD3O0726NFPZ,2021-01-25_16h11.48.869,MetaAwareness,2020.1.2,Win32,60,3IWA71V4TJJ3DFHZ9N99X0QVE6DX6O,A1SD3O0726NFPZ,3SNLUL3WO5QW1GO5HO9QQV4C0Y5ULJ,WUNS5,WUNS5,3SNLUL3WO5QW1GO5HO9QQV4C0Y5ULJ,3SNLUL3WO5QW1GO5HO9QQV4C0Y5ULJ,271255,271255,,,,,,,,,,
,,,,5,5.06095,0,11,11,323,1,a dining room table with a chandeler above and 2 glasses on the table,a dining room table with a chandeler above and 3 glasses on the table,wolfe2,061_R_glass,7,35,A1SD3O0726NFPZ,2021-01-25_16h11.48.869,MetaAwareness,2020.1.2,Win32,60,3IWA71V4TJJ3DFHZ9N99X0QVE6DX6O,A1SD3O0726NFPZ,3SNLUL3WO5QW1GO5HO9QQV4C0Y5ULJ,WUNS5,WUNS5,3SNLUL3WO5QW1GO5HO9QQV4C0Y5ULJ,3SNLUL3WO5QW1GO5HO9QQV4C0Y5ULJ,271255,271255,,,,,,,,,,
,,,,5,3.98788,0,12,12,253,1,a bedroom with a decoration with a ball on it,a bedroom with a decoration with a ball then a outward part,wolfe2,048_L_art,2,35,A1SD3O0726NFPZ,2021-01-25_16h11.48.869,MetaAwareness,2020.1.2,Win32,60,3IWA71V4TJJ3DFHZ9N99X0QVE6DX6O,A1SD3O0726NFPZ,3SNLUL3WO5QW1GO5HO9QQV4C0Y5ULJ,WUNS5,WUNS5,3SNLUL3WO5QW1GO5HO9QQV4C0Y5ULJ,3SNLUL3WO5QW1GO5HO9QQV4C0Y5ULJ,271255,271255,,,,,,,,,,
,,,,5,3.154845,0,13,13,141,1,a clean living room with 5 colorful statues,a clean living room with 6 colorful statues,wolfe2,025_L_vase,1,35,A1SD3O0726NFPZ,2021-01-25_16h11.48.869,MetaAwareness,2020.1.2,Win32,60,3IWA71V4TJJ3DFHZ9N99X0QVE6DX6O,A1SD3O0726NFPZ,3SNLUL3WO5QW1GO5HO9QQV4C0Y5ULJ,WUNS5,WUNS5,3SNLUL3WO5QW1GO5HO9QQV4C0Y5ULJ,3SNLUL3WO5QW1GO5HO9QQV4C0Y5ULJ,271255,271255,,,,,,,,,,
,,,,5,3.83499,0,14,14,488,1,a cozy bedroom with mirror closets.,a cozy bedroom with mirror closets and a lamp in the corner.,wolfe2,090_L_lamp,3,35,A1SD3O0726NFPZ,2021-01-25_16h11.48.869,MetaAwareness,2020.1.2,Win32,60,3IWA71V4TJJ3DFHZ9N99X0QVE6DX6O,A1SD3O0726NFPZ,3SNLUL3WO5QW1GO5HO9QQV4C0Y5ULJ,WUNS5,WUNS5,3SNLUL3WO5QW1GO5HO9QQV4C0Y5ULJ,3SNLUL3WO5QW1GO5HO9QQV4C0Y5ULJ,271255,271255,,,,,,,,,,
,,,,5,4.53001,0,15,15,87,1,a modern looking living room with one ceiling light.,a modern looking living room with two ceiling lights.,wolfe2,015_R_ceilinglight,1,35,A1SD3O0726NFPZ,2021-01-25_16h11.48.869,MetaAwareness,2020.1.2,Win32,60,3IWA71V4TJJ3DFHZ9N99X0QVE6DX6O,A1SD3O0726NFPZ,3SNLUL3WO5QW1GO5HO9QQV4C0Y5ULJ,WUNS5,WUNS5,3SNLUL3WO5QW1GO5HO9QQV4C0Y5ULJ,3SNLUL3WO5QW1GO5HO9QQV4C0Y5ULJ,271255,271255,,,,,,,,,,
,,,,1,3.510515,0,16,16,579,1,paper towel dispenser on wall,wall is bare,wolfe2,106_R_toweldispenser,3,35,A1SD3O0726NFPZ,2021-01-25_16h11.48.869,MetaAwareness,2020.1.2,Win32,60,3IWA71V4TJJ3DFHZ9N99X0QVE6DX6O,A1SD3O0726NFPZ,3SNLUL3WO5QW1GO5HO9QQV4C0Y5ULJ,WUNS5,WUNS5,3SNLUL3WO5QW1GO5HO9QQV4C0Y5ULJ,3SNLUL3WO5QW1GO5HO9QQV4C0Y5ULJ,271255,271255,,,,,,,,,,
,,,,4,8.904555,0,17,17,468,1,a room with a table set the joins a sitting area with a white item in the distance,a room with a table set that joins a sitting area with a dark colored item in the distance,wolfe2,086_L_book,2,35,A1SD3O0726NFPZ,2021-01-25_16h11.48.869,MetaAwareness,2020.1.2,Win32,60,3IWA71V4TJJ3DFHZ9N99X0QVE6DX6O,A1SD3O0726NFPZ,3SNLUL3WO5QW1GO5HO9QQV4C0Y5ULJ,WUNS5,WUNS5,3SNLUL3WO5QW1GO5HO9QQV4C0Y5ULJ,3SNLUL3WO5QW1GO5HO9QQV4C0Y5ULJ,271255,271255,,,,,,,,,,
,,,,5,9.31617,0,18,18,614,1,a gathering room or lobby in an upscale cabin resort with a small decorative tree in the far corner,a gathering room or lobby in upscale cabin resort,wolfe2,113_R_plant,1,35,A1SD3O0726NFPZ,2021-01-25_16h11.48.869,MetaAwareness,2020.1.2,Win32,60,3IWA71V4TJJ3DFHZ9N99X0QVE6DX6O,A1SD3O0726NFPZ,3SNLUL3WO5QW1GO5HO9QQV4C0Y5ULJ,WUNS5,WUNS5,3SNLUL3WO5QW1GO5HO9QQV4C0Y5ULJ,3SNLUL3WO5QW1GO5HO9QQV4C0Y5ULJ,271255,271255,,,,,,,,,,
,,,,5,8.36945,0,19,19,477,1,several chairs lined up in a hair salon with a vent above a painting on the wall,several chairs lined up in a hair salon with a painitng on the wall and nothing above it.,wolfe2,088_L_clock,2,35,A1SD3O0726NFPZ,2021-01-25_16h11.48.869,MetaAwareness,2020.1.2,Win32,60,3IWA71V4TJJ3DFHZ9N99X0QVE6DX6O,A1SD3O0726NFPZ,3SNLUL3WO5QW1GO5HO9QQV4C0Y5ULJ,WUNS5,WUNS5,3SNLUL3WO5QW1GO5HO9QQV4C0Y5ULJ,3SNLUL3WO5QW1GO5HO9QQV4C0Y5ULJ,271255,271255,,,,,,,,,,
,,,,5,6.265455,0,20,20,303,1,colorful bedroom with faux fur on bench,colorful bedroom with faux fur and purse on bench,wolfe2,058_R_clutch,3,35,A1SD3O0726NFPZ,2021-01-25_16h11.48.869,MetaAwareness,2020.1.2,Win32,60,3IWA71V4TJJ3DFHZ9N99X0QVE6DX6O,A1SD3O0726NFPZ,3SNLUL3WO5QW1GO5HO9QQV4C0Y5ULJ,WUNS5,WUNS5,3SNLUL3WO5QW1GO5HO9QQV4C0Y5ULJ,3SNLUL3WO5QW1GO5HO9QQV4C0Y5ULJ,271255,271255,,,,,,,,,,
,,,,5,4.761985,0,21,21,248,1,a red and cream bedroom with a desk that has six drawers,a red and cream bedroom with a desk that has seven drawers,wolfe2,047_L_handle,4,35,A1SD3O0726NFPZ,2021-01-25_16h11.48.869,MetaAwareness,2020.1.2,Win32,60,3IWA71V4TJJ3DFHZ9N99X0QVE6DX6O,A1SD3O0726NFPZ,3SNLUL3WO5QW1GO5HO9QQV4C0Y5ULJ,WUNS5,WUNS5,3SNLUL3WO5QW1GO5HO9QQV4C0Y5ULJ,3SNLUL3WO5QW1GO5HO9QQV4C0Y5ULJ,271255,271255,,,,,,,,,,
,,,,5,6.278765,0,22,22,385,1,a bedroom with a dresser in it that has five drawers with handles on i t,a bedroom with a dresser in it that has six drawers with handles on them,wolfe2,072_L_handle,2,35,A1SD3O0726NFPZ,2021-01-25_16h11.48.869,MetaAwareness,2020.1.2,Win32,60,3IWA71V4TJJ3DFHZ9N99X0QVE6DX6O,A1SD3O0726NFPZ,3SNLUL3WO5QW1GO5HO9QQV4C0Y5ULJ,WUNS5,WUNS5,3SNLUL3WO5QW1GO5HO9QQV4C0Y5ULJ,3SNLUL3WO5QW1GO5HO9QQV4C0Y5ULJ,271255,271255,,,,,,,,,,
,,,,4,6.546135,0,23,23,255,1,"a master bedroom with a bed, couch, and a short glass sculpture next to a full length mirror","a master bedroom with a bed, couch, and a tall glass sculpture next to a full length mirror",wolfe2,048_R_art,3,35,A1SD3O0726NFPZ,2021-01-25_16h11.48.869,MetaAwareness,2020.1.2,Win32,60,3IWA71V4TJJ3DFHZ9N99X0QVE6DX6O,A1SD3O0726NFPZ,3SNLUL3WO5QW1GO5HO9QQV4C0Y5ULJ,WUNS5,WUNS5,3SNLUL3WO5QW1GO5HO9QQV4C0Y5ULJ,3SNLUL3WO5QW1GO5HO9QQV4C0Y5ULJ,271255,271255,,,,,,,,,,
,,,,5,9.266655,0,24,24,140,1,a sink area that looks very zen and has a basket plus a stack of four towels under it,a sink area that looks very zen and has a basket plus two stacks of four towels each under it,wolfe2,024_R_towels,3,35,A1SD3O0726NFPZ,2021-01-25_16h11.48.869,MetaAwareness,2020.1.2,Win32,60,3IWA71V4TJJ3DFHZ9N99X0QVE6DX6O,A1SD3O0726NFPZ,3SNLUL3WO5QW1GO5HO9QQV4C0Y5ULJ,WUNS5,WUNS5,3SNLUL3WO5QW1GO5HO9QQV4C0Y5ULJ,3SNLUL3WO5QW1GO5HO9QQV4C0Y5ULJ,271255,271255,,,,,,,,,,
,,,,6,8.650475,0,25,25,588,1,"a dressing room with 4 large mirrors, a stool, and a clothing rack with clothes on it.","a dressing room with 4 large mirrors, a stool, and a clothing rack with some clothes on it.",wolfe2,107_R_shirts,2,35,A1SD3O0726NFPZ,2021-01-25_16h11.48.869,MetaAwareness,2020.1.2,Win32,60,3IWA71V4TJJ3DFHZ9N99X0QVE6DX6O,A1SD3O0726NFPZ,3SNLUL3WO5QW1GO5HO9QQV4C0Y5ULJ,WUNS5,WUNS5,3SNLUL3WO5QW1GO5HO9QQV4C0Y5ULJ,3SNLUL3WO5QW1GO5HO9QQV4C0Y5ULJ,271255,271255,,,,,,,,,,
,,,,5,7.61603,0,26,26,666,1,a room that looks like it may be in a library that has some tables and 12 empty chairs,a room that looks like it may be in a library that has some tables and 11 empty chairs,wolfe2,122_R_chair,5,35,A1SD3O0726NFPZ,2021-01-25_16h11.48.869,MetaAwareness,2020.1.2,Win32,60,3IWA71V4TJJ3DFHZ9N99X0QVE6DX6O,A1SD3O0726NFPZ,3SNLUL3WO5QW1GO5HO9QQV4C0Y5ULJ,WUNS5,WUNS5,3SNLUL3WO5QW1GO5HO9QQV4C0Y5ULJ,3SNLUL3WO5QW1GO5HO9QQV4C0Y5ULJ,271255,271255,,,,,,,,,,
,,,,1,5.000185,0,27,27,680,1,stylized living room with water view with a basket by the window,modern-style living room,wolfe2,125_L_sofa,2,35,A1SD3O0726NFPZ,2021-01-25_16h11.48.869,MetaAwareness,2020.1.2,Win32,60,3IWA71V4TJJ3DFHZ9N99X0QVE6DX6O,A1SD3O0726NFPZ,3SNLUL3WO5QW1GO5HO9QQV4C0Y5ULJ,WUNS5,WUNS5,3SNLUL3WO5QW1GO5HO9QQV4C0Y5ULJ,3SNLUL3WO5QW1GO5HO9QQV4C0Y5ULJ,271255,271255,,,,,,,,,,
,,,,5,6.70426,0,28,28,254,1,a nice bedroom with large glass wall with green view outside and comforting couch,a nice bedroom with large glass wall with green view outside with comforting couch and side lamp,wolfe2,048_L_art,3,35,A1SD3O0726NFPZ,2021-01-25_16h11.48.869,MetaAwareness,2020.1.2,Win32,60,3IWA71V4TJJ3DFHZ9N99X0QVE6DX6O,A1SD3O0726NFPZ,3SNLUL3WO5QW1GO5HO9QQV4C0Y5ULJ,WUNS5,WUNS5,3SNLUL3WO5QW1GO5HO9QQV4C0Y5ULJ,3SNLUL3WO5QW1GO5HO9QQV4C0Y5ULJ,271255,271255,,,,,,,,,,
,,,,3,6.58637,0,29,29,682,1,a living room with a small coffee table next to the couch,a living room without a small coffee table next to the couch,wolfe2,125_L_sofa,4,35,A1SD3O0726NFPZ,2021-01-25_16h11.48.869,MetaAwareness,2020.1.2,Win32,60,3IWA71V4TJJ3DFHZ9N99X0QVE6DX6O,A1SD3O0726NFPZ,3SNLUL3WO5QW1GO5HO9QQV4C0Y5ULJ,WUNS5,WUNS5,3SNLUL3WO5QW1GO5HO9QQV4C0Y5ULJ,3SNLUL3WO5QW1GO5HO9QQV4C0Y5ULJ,271255,271255,,,,,,,,,,
,,,,,,,,,,,,,,,,35,A1SD3O0726NFPZ,2021-01-25_16h11.48.869,MetaAwareness,2020.1.2,Win32,60,3IWA71V4TJJ3DFHZ9N99X0QVE6DX6O,A1SD3O0726NFPZ,3SNLUL3WO5QW1GO5HO9QQV4C0Y5ULJ,WUNS5,WUNS5,3SNLUL3WO5QW1GO5HO9QQV4C0Y5ULJ,3SNLUL3WO5QW1GO5HO9QQV4C0Y5ULJ,271255,271255,6,7.805265,someone laying underneath a blue beach umbrella on a crowded beach,someone laying underneath a blue beach umbrella on a crowded beach,same,1,6.058785,members of a marching band crossing a track that all have feather plumes at the front of their hats,a cluttered and rustic looking cafe with 10 hanging lights,different
