consent_response.keys,consent_response.rt,key_resp_2.keys,key_resp_2.rt,user_resp.keys,user_resp.rt,trials.thisRepN,trials.thisTrialN,trials.thisN,trials.thisIndex,trials.ran,image_1_text,image_2_text,database,image,number,age,worker_ID,date,expName,psychopyVersion,OS,frameRate,hitId,workerId,assignmentId,a,tp_a,b,tp_b,c,tp_c,catch_same_resp.keys,catch_same_resp.rt,image_1_text_catch_same,image_2_text_catch_same,image_catch_same,catch_different_resp.keys,catch_different_resp.rt,image_1_text_catch_different,image_2_text_catch_different,image_catch_different
space,2.406645,space,8.21041,5,8.878455,0,0,0,2,1,a room with green walls and a swan picture,a room with green walls a swan pcture and a sconce on the wall,wolfe2,001_L_mirror,4,22,A1T9XW8SNUDDY7,2021-01-25_13h35.22.047,MetaAwareness,2020.1.2,Win32,60,3TZ0XG8CBVN0GXIPZM0T1B04DYC892,A1T9XW8SNUDDY7,3R3YRB5GRG6F5XX1KXK0HHO16M2UAX,GR3R5,GR3R5,3R3YRB5GRG6F5XX1KXK0HHO16M2UAX,3R3YRB5GRG6F5XX1KXK0HHO16M2UAX,271255,271255,,,,,,,,,,
,,,,5,4.29485,0,1,1,159,1,in a bathroom there is a shelf with two red glasses,in a bathroom there is a shelf with three red glasses,wolfe2,029_L_glass,1,22,A1T9XW8SNUDDY7,2021-01-25_13h35.22.047,MetaAwareness,2020.1.2,Win32,60,3TZ0XG8CBVN0GXIPZM0T1B04DYC892,A1T9XW8SNUDDY7,3R3YRB5GRG6F5XX1KXK0HHO16M2UAX,GR3R5,GR3R5,3R3YRB5GRG6F5XX1KXK0HHO16M2UAX,3R3YRB5GRG6F5XX1KXK0HHO16M2UAX,271255,271255,,,,,,,,,,
,,,,5,3.469695,0,2,2,281,1,a children's bedroom with 2 decorative rugs,a children's bedroom with 3 decrative rugs,wolfe2,055_L_carpet,2,22,A1T9XW8SNUDDY7,2021-01-25_13h35.22.047,MetaAwareness,2020.1.2,Win32,60,3TZ0XG8CBVN0GXIPZM0T1B04DYC892,A1T9XW8SNUDDY7,3R3YRB5GRG6F5XX1KXK0HHO16M2UAX,GR3R5,GR3R5,3R3YRB5GRG6F5XX1KXK0HHO16M2UAX,3R3YRB5GRG6F5XX1KXK0HHO16M2UAX,271255,271255,,,,,,,,,,
,,,,2,3.165575,0,3,3,249,1,a bedroom with a missing handle on a drawer,a bedroom with six handles on a drawer,wolfe2,047_R_handle,2,22,A1T9XW8SNUDDY7,2021-01-25_13h35.22.047,MetaAwareness,2020.1.2,Win32,60,3TZ0XG8CBVN0GXIPZM0T1B04DYC892,A1T9XW8SNUDDY7,3R3YRB5GRG6F5XX1KXK0HHO16M2UAX,GR3R5,GR3R5,3R3YRB5GRG6F5XX1KXK0HHO16M2UAX,3R3YRB5GRG6F5XX1KXK0HHO16M2UAX,271255,271255,,,,,,,,,,
,,,,3,4.78436,0,4,4,10,1,a restaurant with a table missing a napkin,a restaurant with a table that has napkins and place settings all around,wolfe2,002_L_napkin,3,22,A1T9XW8SNUDDY7,2021-01-25_13h35.22.047,MetaAwareness,2020.1.2,Win32,60,3TZ0XG8CBVN0GXIPZM0T1B04DYC892,A1T9XW8SNUDDY7,3R3YRB5GRG6F5XX1KXK0HHO16M2UAX,GR3R5,GR3R5,3R3YRB5GRG6F5XX1KXK0HHO16M2UAX,3R3YRB5GRG6F5XX1KXK0HHO16M2UAX,271255,271255,,,,,,,,,,
,,,,5,11.55846,0,5,5,486,1,a bedroom with a red and white theme. there are several doors with mirrors on them. in the corner of the room near on of the doors with a mirror on it is a little lamp.,a bedroom with a red and white theme. there are several doors with mirrors on them. there is nothing in the corner of the room near the door with a mirror.,wolfe2,090_L_lamp,1,22,A1T9XW8SNUDDY7,2021-01-25_13h35.22.047,MetaAwareness,2020.1.2,Win32,60,3TZ0XG8CBVN0GXIPZM0T1B04DYC892,A1T9XW8SNUDDY7,3R3YRB5GRG6F5XX1KXK0HHO16M2UAX,GR3R5,GR3R5,3R3YRB5GRG6F5XX1KXK0HHO16M2UAX,3R3YRB5GRG6F5XX1KXK0HHO16M2UAX,271255,271255,,,,,,,,,,
,,,,3,7.601835,0,6,6,498,1,a large bathroom with three sinks and an object displayed from the mirrors reflection,a large bathroom with three sinks with an object not being reflected from the mirror.,wolfe2,091_R_airfreshener,3,22,A1T9XW8SNUDDY7,2021-01-25_13h35.22.047,MetaAwareness,2020.1.2,Win32,60,3TZ0XG8CBVN0GXIPZM0T1B04DYC892,A1T9XW8SNUDDY7,3R3YRB5GRG6F5XX1KXK0HHO16M2UAX,GR3R5,GR3R5,3R3YRB5GRG6F5XX1KXK0HHO16M2UAX,3R3YRB5GRG6F5XX1KXK0HHO16M2UAX,271255,271255,,,,,,,,,,
,,,,3,7.6181,0,7,7,19,1,room with couch and remote on the bed looking at the city,room with couch and remote on the bed looking at the city and metal tower on the hill,wolfe2,004_L_electricalgrid,3,22,A1T9XW8SNUDDY7,2021-01-25_13h35.22.047,MetaAwareness,2020.1.2,Win32,60,3TZ0XG8CBVN0GXIPZM0T1B04DYC892,A1T9XW8SNUDDY7,3R3YRB5GRG6F5XX1KXK0HHO16M2UAX,GR3R5,GR3R5,3R3YRB5GRG6F5XX1KXK0HHO16M2UAX,3R3YRB5GRG6F5XX1KXK0HHO16M2UAX,271255,271255,,,,,,,,,,
,,,,5,3.89383,0,8,8,25,1,a small apartment living room with one bare wall.,a small apartment living room with two wall with hanging pictures.,wolfe2,005_L_mirror,2,22,A1T9XW8SNUDDY7,2021-01-25_13h35.22.047,MetaAwareness,2020.1.2,Win32,60,3TZ0XG8CBVN0GXIPZM0T1B04DYC892,A1T9XW8SNUDDY7,3R3YRB5GRG6F5XX1KXK0HHO16M2UAX,GR3R5,GR3R5,3R3YRB5GRG6F5XX1KXK0HHO16M2UAX,3R3YRB5GRG6F5XX1KXK0HHO16M2UAX,271255,271255,,,,,,,,,,
,,,,6,9.401895,0,9,9,255,1,"a master bedroom with a bed, couch, and a short glass sculpture next to a full length mirror","a master bedroom with a bed, couch, and a tall glass sculpture next to a full length mirror",wolfe2,048_R_art,3,22,A1T9XW8SNUDDY7,2021-01-25_13h35.22.047,MetaAwareness,2020.1.2,Win32,60,3TZ0XG8CBVN0GXIPZM0T1B04DYC892,A1T9XW8SNUDDY7,3R3YRB5GRG6F5XX1KXK0HHO16M2UAX,GR3R5,GR3R5,3R3YRB5GRG6F5XX1KXK0HHO16M2UAX,3R3YRB5GRG6F5XX1KXK0HHO16M2UAX,271255,271255,,,,,,,,,,
,,,,5,4.30568,0,10,10,234,1,a living room with a bookcase and a tv,a living room with a bookcase and clock and a tv,wolfe2,043_R_clock,5,22,A1T9XW8SNUDDY7,2021-01-25_13h35.22.047,MetaAwareness,2020.1.2,Win32,60,3TZ0XG8CBVN0GXIPZM0T1B04DYC892,A1T9XW8SNUDDY7,3R3YRB5GRG6F5XX1KXK0HHO16M2UAX,GR3R5,GR3R5,3R3YRB5GRG6F5XX1KXK0HHO16M2UAX,3R3YRB5GRG6F5XX1KXK0HHO16M2UAX,271255,271255,,,,,,,,,,
,,,,5,8.877125,0,11,11,59,1,a cluttered bathroom with white tiles that has a double sink with a pink soap bottle by the left sink.,a cluttered bathroom with white tiles that has a double sink with a pink soap bottle by the left sink and a brown soap bottle by the right sink.,wolfe2,011_R_parfum,1,22,A1T9XW8SNUDDY7,2021-01-25_13h35.22.047,MetaAwareness,2020.1.2,Win32,60,3TZ0XG8CBVN0GXIPZM0T1B04DYC892,A1T9XW8SNUDDY7,3R3YRB5GRG6F5XX1KXK0HHO16M2UAX,GR3R5,GR3R5,3R3YRB5GRG6F5XX1KXK0HHO16M2UAX,3R3YRB5GRG6F5XX1KXK0HHO16M2UAX,271255,271255,,,,,,,,,,
,,,,6,4.301765,0,12,12,120,1,a beautiful modern kitchen with 2 ceiling lights,a beautiful modern kitchen with 3 hanging ceiling lights,wolfe2,022_L_lamp,1,22,A1T9XW8SNUDDY7,2021-01-25_13h35.22.047,MetaAwareness,2020.1.2,Win32,60,3TZ0XG8CBVN0GXIPZM0T1B04DYC892,A1T9XW8SNUDDY7,3R3YRB5GRG6F5XX1KXK0HHO16M2UAX,GR3R5,GR3R5,3R3YRB5GRG6F5XX1KXK0HHO16M2UAX,3R3YRB5GRG6F5XX1KXK0HHO16M2UAX,271255,271255,,,,,,,,,,
,,,,6,4.955175,0,13,13,421,1,a bathroom with a faucet and left side handle.,a bathroom with a faucet and left and right side handle.,wolfe2,078_R_faucet,1,22,A1T9XW8SNUDDY7,2021-01-25_13h35.22.047,MetaAwareness,2020.1.2,Win32,60,3TZ0XG8CBVN0GXIPZM0T1B04DYC892,A1T9XW8SNUDDY7,3R3YRB5GRG6F5XX1KXK0HHO16M2UAX,GR3R5,GR3R5,3R3YRB5GRG6F5XX1KXK0HHO16M2UAX,3R3YRB5GRG6F5XX1KXK0HHO16M2UAX,271255,271255,,,,,,,,,,
,,,,5,5.076785,0,14,14,103,1,an outside porch with two chairs and one plant against the windows of the house,an outside porch with two chairs and two plants against the wall of the house,wolfe2,018_R_plant,2,22,A1T9XW8SNUDDY7,2021-01-25_13h35.22.047,MetaAwareness,2020.1.2,Win32,60,3TZ0XG8CBVN0GXIPZM0T1B04DYC892,A1T9XW8SNUDDY7,3R3YRB5GRG6F5XX1KXK0HHO16M2UAX,GR3R5,GR3R5,3R3YRB5GRG6F5XX1KXK0HHO16M2UAX,3R3YRB5GRG6F5XX1KXK0HHO16M2UAX,271255,271255,,,,,,,,,,
,,,,5,6.820325,0,15,15,407,1,abathroom with tub and showerand a plant on the counter,a bathroom with tub and shower and a plant on the counter with a towle hook on the wall,wolfe2,076_L_hook,3,22,A1T9XW8SNUDDY7,2021-01-25_13h35.22.047,MetaAwareness,2020.1.2,Win32,60,3TZ0XG8CBVN0GXIPZM0T1B04DYC892,A1T9XW8SNUDDY7,3R3YRB5GRG6F5XX1KXK0HHO16M2UAX,GR3R5,GR3R5,3R3YRB5GRG6F5XX1KXK0HHO16M2UAX,3R3YRB5GRG6F5XX1KXK0HHO16M2UAX,271255,271255,,,,,,,,,,
,,,,5,4.390845,0,16,16,174,1,a bathroom with a soap dispenser on the wall,a bathroom with 2 soap dispensers on the wall,wolfe2,032_L_bottle,1,22,A1T9XW8SNUDDY7,2021-01-25_13h35.22.047,MetaAwareness,2020.1.2,Win32,60,3TZ0XG8CBVN0GXIPZM0T1B04DYC892,A1T9XW8SNUDDY7,3R3YRB5GRG6F5XX1KXK0HHO16M2UAX,GR3R5,GR3R5,3R3YRB5GRG6F5XX1KXK0HHO16M2UAX,3R3YRB5GRG6F5XX1KXK0HHO16M2UAX,271255,271255,,,,,,,,,,
,,,,4,6.06655,0,17,17,153,1,there is nothing but brown wallpaper in this shower stall.,there is a soap rack hanging on the brown wallpaper in this shower stall.,wolfe2,027_R_soapdish,1,22,A1T9XW8SNUDDY7,2021-01-25_13h35.22.047,MetaAwareness,2020.1.2,Win32,60,3TZ0XG8CBVN0GXIPZM0T1B04DYC892,A1T9XW8SNUDDY7,3R3YRB5GRG6F5XX1KXK0HHO16M2UAX,GR3R5,GR3R5,3R3YRB5GRG6F5XX1KXK0HHO16M2UAX,3R3YRB5GRG6F5XX1KXK0HHO16M2UAX,271255,271255,,,,,,,,,,
,,,,6,5.42493,0,18,18,393,1,the kitchen is very nice because of the flower,the kitchen is very nice because of the flowers,wolfe2,073_L_coffeemug,2,22,A1T9XW8SNUDDY7,2021-01-25_13h35.22.047,MetaAwareness,2020.1.2,Win32,60,3TZ0XG8CBVN0GXIPZM0T1B04DYC892,A1T9XW8SNUDDY7,3R3YRB5GRG6F5XX1KXK0HHO16M2UAX,GR3R5,GR3R5,3R3YRB5GRG6F5XX1KXK0HHO16M2UAX,3R3YRB5GRG6F5XX1KXK0HHO16M2UAX,271255,271255,,,,,,,,,,
,,,,6,5.507535,0,19,19,199,1,"white dishes sit on a shelf underneath a cabinet in a beautiful, modern kitchen.","white dishes sit on a shelf underneath a cabinet in a beautiful, modern kitchen.",wolfe2,036_L_bowl,3,22,A1T9XW8SNUDDY7,2021-01-25_13h35.22.047,MetaAwareness,2020.1.2,Win32,60,3TZ0XG8CBVN0GXIPZM0T1B04DYC892,A1T9XW8SNUDDY7,3R3YRB5GRG6F5XX1KXK0HHO16M2UAX,GR3R5,GR3R5,3R3YRB5GRG6F5XX1KXK0HHO16M2UAX,3R3YRB5GRG6F5XX1KXK0HHO16M2UAX,271255,271255,,,,,,,,,,
,,,,6,12.826705,0,20,20,641,1,this is a picture of a sitting room. there is a pair of shoes next to a potted plant.,this is a picture of a sitting room. there is only a potted plant on the right.,wolfe2,118_R_shoes,6,22,A1T9XW8SNUDDY7,2021-01-25_13h35.22.047,MetaAwareness,2020.1.2,Win32,60,3TZ0XG8CBVN0GXIPZM0T1B04DYC892,A1T9XW8SNUDDY7,3R3YRB5GRG6F5XX1KXK0HHO16M2UAX,GR3R5,GR3R5,3R3YRB5GRG6F5XX1KXK0HHO16M2UAX,3R3YRB5GRG6F5XX1KXK0HHO16M2UAX,271255,271255,,,,,,,,,,
,,,,2,2.543245,0,21,21,110,1,plain wall,decorations on the wall,wolfe2,020_L_walldeco,2,22,A1T9XW8SNUDDY7,2021-01-25_13h35.22.047,MetaAwareness,2020.1.2,Win32,60,3TZ0XG8CBVN0GXIPZM0T1B04DYC892,A1T9XW8SNUDDY7,3R3YRB5GRG6F5XX1KXK0HHO16M2UAX,GR3R5,GR3R5,3R3YRB5GRG6F5XX1KXK0HHO16M2UAX,3R3YRB5GRG6F5XX1KXK0HHO16M2UAX,271255,271255,,,,,,,,,,
,,,,6,9.376025,0,22,22,151,1,a large beige and white bathroom with tub and walk-in shower with no soap dish on the wall,a large beige and white bathroom with a tub and walk-in shower that has a soap dish on the wall,wolfe2,027_L_soapdish,3,22,A1T9XW8SNUDDY7,2021-01-25_13h35.22.047,MetaAwareness,2020.1.2,Win32,60,3TZ0XG8CBVN0GXIPZM0T1B04DYC892,A1T9XW8SNUDDY7,3R3YRB5GRG6F5XX1KXK0HHO16M2UAX,GR3R5,GR3R5,3R3YRB5GRG6F5XX1KXK0HHO16M2UAX,3R3YRB5GRG6F5XX1KXK0HHO16M2UAX,271255,271255,,,,,,,,,,
,,,,3,8.082685,0,23,23,548,1,this bathroom has a modern design and both wine glasses and a jar,you can find two wine glasses in this modern bathroom,wolfe2,101_R_cup,3,22,A1T9XW8SNUDDY7,2021-01-25_13h35.22.047,MetaAwareness,2020.1.2,Win32,60,3TZ0XG8CBVN0GXIPZM0T1B04DYC892,A1T9XW8SNUDDY7,3R3YRB5GRG6F5XX1KXK0HHO16M2UAX,GR3R5,GR3R5,3R3YRB5GRG6F5XX1KXK0HHO16M2UAX,3R3YRB5GRG6F5XX1KXK0HHO16M2UAX,271255,271255,,,,,,,,,,
,,,,4,4.5615,0,24,24,420,1,"a fancy, well decorated bathroom, with only one water selection at the sink.","a fancy, well decorated bathroom, with both hot and cold water selection at the sink.",wolfe2,078_L_faucet,3,22,A1T9XW8SNUDDY7,2021-01-25_13h35.22.047,MetaAwareness,2020.1.2,Win32,60,3TZ0XG8CBVN0GXIPZM0T1B04DYC892,A1T9XW8SNUDDY7,3R3YRB5GRG6F5XX1KXK0HHO16M2UAX,GR3R5,GR3R5,3R3YRB5GRG6F5XX1KXK0HHO16M2UAX,3R3YRB5GRG6F5XX1KXK0HHO16M2UAX,271255,271255,,,,,,,,,,
,,,,6,6.00248,0,25,25,585,1,a dressing room at a retailer with 3 unique stalls where at the end there is a clothes rack with 2 white garments on the far left,a dressing room at a retailer with 3 unique stalls where at the end there is a clothes rack with 1 white garment on the far left,wolfe2,107_L_shirts,4,22,A1T9XW8SNUDDY7,2021-01-25_13h35.22.047,MetaAwareness,2020.1.2,Win32,60,3TZ0XG8CBVN0GXIPZM0T1B04DYC892,A1T9XW8SNUDDY7,3R3YRB5GRG6F5XX1KXK0HHO16M2UAX,GR3R5,GR3R5,3R3YRB5GRG6F5XX1KXK0HHO16M2UAX,3R3YRB5GRG6F5XX1KXK0HHO16M2UAX,271255,271255,,,,,,,,,,
,,,,4,6.132555,0,26,26,472,1,a kitchen and living room area with a table in the living room that has a centerpiece on it,a kitchen and living room area with a table in the living room that has nothing on it,wolfe2,086_R_book,4,22,A1T9XW8SNUDDY7,2021-01-25_13h35.22.047,MetaAwareness,2020.1.2,Win32,60,3TZ0XG8CBVN0GXIPZM0T1B04DYC892,A1T9XW8SNUDDY7,3R3YRB5GRG6F5XX1KXK0HHO16M2UAX,GR3R5,GR3R5,3R3YRB5GRG6F5XX1KXK0HHO16M2UAX,3R3YRB5GRG6F5XX1KXK0HHO16M2UAX,271255,271255,,,,,,,,,,
,,,,5,3.81793,0,27,27,100,1,an airy living room with nothing in the entertainment center shelf,an airy living room with something in the entertainment center shelf,wolfe2,017_R_wood,4,22,A1T9XW8SNUDDY7,2021-01-25_13h35.22.047,MetaAwareness,2020.1.2,Win32,60,3TZ0XG8CBVN0GXIPZM0T1B04DYC892,A1T9XW8SNUDDY7,3R3YRB5GRG6F5XX1KXK0HHO16M2UAX,GR3R5,GR3R5,3R3YRB5GRG6F5XX1KXK0HHO16M2UAX,3R3YRB5GRG6F5XX1KXK0HHO16M2UAX,271255,271255,,,,,,,,,,
,,,,6,6.906385,0,28,28,496,1,a restroom with multiple sinks and mirrors surrounded by a red pinkish wallpaper with a clock at the upper left corner,a restroom with multiple sinks and mirrors surrounded by a red pinkish wallpaper,wolfe2,091_L_airfreshener,3,22,A1T9XW8SNUDDY7,2021-01-25_13h35.22.047,MetaAwareness,2020.1.2,Win32,60,3TZ0XG8CBVN0GXIPZM0T1B04DYC892,A1T9XW8SNUDDY7,3R3YRB5GRG6F5XX1KXK0HHO16M2UAX,GR3R5,GR3R5,3R3YRB5GRG6F5XX1KXK0HHO16M2UAX,3R3YRB5GRG6F5XX1KXK0HHO16M2UAX,271255,271255,,,,,,,,,,
,,,,5,5.89438,0,29,29,306,1,in a child's playroom there is an empty shelf  above a mirror on a wall,in a child's playroom there is a silver toy car on a shelf above a mirror on a wall,wolfe2,059_L_car,2,22,A1T9XW8SNUDDY7,2021-01-25_13h35.22.047,MetaAwareness,2020.1.2,Win32,60,3TZ0XG8CBVN0GXIPZM0T1B04DYC892,A1T9XW8SNUDDY7,3R3YRB5GRG6F5XX1KXK0HHO16M2UAX,GR3R5,GR3R5,3R3YRB5GRG6F5XX1KXK0HHO16M2UAX,3R3YRB5GRG6F5XX1KXK0HHO16M2UAX,271255,271255,,,,,,,,,,
,,,,,,,,,,,,,,,,22,A1T9XW8SNUDDY7,2021-01-25_13h35.22.047,MetaAwareness,2020.1.2,Win32,60,3TZ0XG8CBVN0GXIPZM0T1B04DYC892,A1T9XW8SNUDDY7,3R3YRB5GRG6F5XX1KXK0HHO16M2UAX,GR3R5,GR3R5,3R3YRB5GRG6F5XX1KXK0HHO16M2UAX,3R3YRB5GRG6F5XX1KXK0HHO16M2UAX,271255,271255,6,4.58725,someone laying underneath a blue beach umbrella on a crowded beach,someone laying underneath a blue beach umbrella on a crowded beach,same,1,5.705065,members of a marching band crossing a track that all have feather plumes at the front of their hats,a cluttered and rustic looking cafe with 10 hanging lights,different
