consent_response.keys,consent_response.rt,key_resp_2.keys,key_resp_2.rt,user_resp.keys,user_resp.rt,trials.thisRepN,trials.thisTrialN,trials.thisN,trials.thisIndex,trials.ran,image_1_text,image_2_text,database,image,number,age,worker_ID,date,expName,psychopyVersion,OS,frameRate,hitId,workerId,assignmentId,a,tp_a,b,tp_b,c,tp_c,catch_same_resp.keys,catch_same_resp.rt,image_1_text_catch_same,image_2_text_catch_same,image_catch_same,catch_different_resp.keys,catch_different_resp.rt,image_1_text_catch_different,image_2_text_catch_different,image_catch_different
space,3.831665,space,394.992175,5,9.07217,0,0,0,463,1,a dimly lit bathroom with a lightswitch by the mirror.,a dimly lit bathroom without a light switch by the mirror,wolfe2,085_R_switchboard,1,31,A2KSAAQBU5R0F6,2021-01-25_13h46.17.605,MetaAwareness,2020.1.2,Linux x86_64,60,3UY4PIS8QSO3UZ2Y1BAJ428G4GG1N1,A2KSAAQBU5R0F6,3YHH42UU5CIGLUCPJHV61OG5K870LQ,U4HY5,U4HY5,3YHH42UU5CIGLUCPJHV61OG5K870LQ,3YHH42UU5CIGLUCPJHV61OG5K870LQ,271255,271255,,,,,,,,,,
,,,,3,4.4452,0,1,1,38,1,two sinks in front of a mirror with one bar of soap,two sinks in front of a mirror with two bars of soap,wolfe2,007_R_soap,3,31,A2KSAAQBU5R0F6,2021-01-25_13h46.17.605,MetaAwareness,2020.1.2,Linux x86_64,60,3UY4PIS8QSO3UZ2Y1BAJ428G4GG1N1,A2KSAAQBU5R0F6,3YHH42UU5CIGLUCPJHV61OG5K870LQ,U4HY5,U4HY5,3YHH42UU5CIGLUCPJHV61OG5K870LQ,3YHH42UU5CIGLUCPJHV61OG5K870LQ,271255,271255,,,,,,,,,,
,,,,6,6.259925,0,2,2,677,1,a modern room with glass windows and vases on the floor,a modern room with glass windows and no decorations on the floor,wolfe2,124_L_vase,6,31,A2KSAAQBU5R0F6,2021-01-25_13h46.17.605,MetaAwareness,2020.1.2,Linux x86_64,60,3UY4PIS8QSO3UZ2Y1BAJ428G4GG1N1,A2KSAAQBU5R0F6,3YHH42UU5CIGLUCPJHV61OG5K870LQ,U4HY5,U4HY5,3YHH42UU5CIGLUCPJHV61OG5K870LQ,3YHH42UU5CIGLUCPJHV61OG5K870LQ,271255,271255,,,,,,,,,,
,,,,4,6.42578,0,3,3,553,1,a hotel room with a small office space that has a small box that holds something,a hotel room with a small office space,wolfe2,102_R_shoppingbag,2,31,A2KSAAQBU5R0F6,2021-01-25_13h46.17.605,MetaAwareness,2020.1.2,Linux x86_64,60,3UY4PIS8QSO3UZ2Y1BAJ428G4GG1N1,A2KSAAQBU5R0F6,3YHH42UU5CIGLUCPJHV61OG5K870LQ,U4HY5,U4HY5,3YHH42UU5CIGLUCPJHV61OG5K870LQ,3YHH42UU5CIGLUCPJHV61OG5K870LQ,271255,271255,,,,,,,,,,
,,,,5,3.68836,0,4,4,666,1,a room that looks like it may be in a library that has some tables and 12 empty chairs,a room that looks like it may be in a library that has some tables and 11 empty chairs,wolfe2,122_R_chair,5,31,A2KSAAQBU5R0F6,2021-01-25_13h46.17.605,MetaAwareness,2020.1.2,Linux x86_64,60,3UY4PIS8QSO3UZ2Y1BAJ428G4GG1N1,A2KSAAQBU5R0F6,3YHH42UU5CIGLUCPJHV61OG5K870LQ,U4HY5,U4HY5,3YHH42UU5CIGLUCPJHV61OG5K870LQ,3YHH42UU5CIGLUCPJHV61OG5K870LQ,271255,271255,,,,,,,,,,
,,,,3,3.28445,0,5,5,671,1,this would be a vacation home to stay and enjoy.  the pool is spacious and just enough shade that you don't burn.,there appears to be an empty space for a plant.  there are many plants that are  taking up residence here.,wolfe2,123_R_pot,1,31,A2KSAAQBU5R0F6,2021-01-25_13h46.17.605,MetaAwareness,2020.1.2,Linux x86_64,60,3UY4PIS8QSO3UZ2Y1BAJ428G4GG1N1,A2KSAAQBU5R0F6,3YHH42UU5CIGLUCPJHV61OG5K870LQ,U4HY5,U4HY5,3YHH42UU5CIGLUCPJHV61OG5K870LQ,3YHH42UU5CIGLUCPJHV61OG5K870LQ,271255,271255,,,,,,,,,,
,,,,2,1.680545,0,6,6,534,1,a modern dining room with a three candlesticks hanging off the wall,a modern dining room with two candlesticks hanging off the wall,wolfe2,099_R_sconce,1,31,A2KSAAQBU5R0F6,2021-01-25_13h46.17.605,MetaAwareness,2020.1.2,Linux x86_64,60,3UY4PIS8QSO3UZ2Y1BAJ428G4GG1N1,A2KSAAQBU5R0F6,3YHH42UU5CIGLUCPJHV61OG5K870LQ,U4HY5,U4HY5,3YHH42UU5CIGLUCPJHV61OG5K870LQ,3YHH42UU5CIGLUCPJHV61OG5K870LQ,271255,271255,,,,,,,,,,
,,,,2,3.996555,0,7,7,400,1,the table is bare at the end,a book is on the table,wolfe2,074_R_book,4,31,A2KSAAQBU5R0F6,2021-01-25_13h46.17.605,MetaAwareness,2020.1.2,Linux x86_64,60,3UY4PIS8QSO3UZ2Y1BAJ428G4GG1N1,A2KSAAQBU5R0F6,3YHH42UU5CIGLUCPJHV61OG5K870LQ,U4HY5,U4HY5,3YHH42UU5CIGLUCPJHV61OG5K870LQ,3YHH42UU5CIGLUCPJHV61OG5K870LQ,271255,271255,,,,,,,,,,
,,,,5,5.09294,0,8,8,248,1,a red and cream bedroom with a desk that has six drawers,a red and cream bedroom with a desk that has seven drawers,wolfe2,047_L_handle,4,31,A2KSAAQBU5R0F6,2021-01-25_13h46.17.605,MetaAwareness,2020.1.2,Linux x86_64,60,3UY4PIS8QSO3UZ2Y1BAJ428G4GG1N1,A2KSAAQBU5R0F6,3YHH42UU5CIGLUCPJHV61OG5K870LQ,U4HY5,U4HY5,3YHH42UU5CIGLUCPJHV61OG5K870LQ,3YHH42UU5CIGLUCPJHV61OG5K870LQ,271255,271255,,,,,,,,,,
,,,,2,7.14214,0,9,9,249,1,a bedroom with a missing handle on a drawer,a bedroom with six handles on a drawer,wolfe2,047_R_handle,2,31,A2KSAAQBU5R0F6,2021-01-25_13h46.17.605,MetaAwareness,2020.1.2,Linux x86_64,60,3UY4PIS8QSO3UZ2Y1BAJ428G4GG1N1,A2KSAAQBU5R0F6,3YHH42UU5CIGLUCPJHV61OG5K870LQ,U4HY5,U4HY5,3YHH42UU5CIGLUCPJHV61OG5K870LQ,3YHH42UU5CIGLUCPJHV61OG5K870LQ,271255,271255,,,,,,,,,,
,,,,4,7.65994,0,10,10,54,1,bedroom with pictures across the bed and one candle in a holder beside the bed on the right.,there are now two candles beside the bed on the right side.,wolfe2,010_R_candle,1,31,A2KSAAQBU5R0F6,2021-01-25_13h46.17.605,MetaAwareness,2020.1.2,Linux x86_64,60,3UY4PIS8QSO3UZ2Y1BAJ428G4GG1N1,A2KSAAQBU5R0F6,3YHH42UU5CIGLUCPJHV61OG5K870LQ,U4HY5,U4HY5,3YHH42UU5CIGLUCPJHV61OG5K870LQ,3YHH42UU5CIGLUCPJHV61OG5K870LQ,271255,271255,,,,,,,,,,
,,,,4,3.142935,0,11,11,76,1,a room with a couch and a large hanging light,a room with a couch and two large hanging lights,wolfe2,013_R_lamp,3,31,A2KSAAQBU5R0F6,2021-01-25_13h46.17.605,MetaAwareness,2020.1.2,Linux x86_64,60,3UY4PIS8QSO3UZ2Y1BAJ428G4GG1N1,A2KSAAQBU5R0F6,3YHH42UU5CIGLUCPJHV61OG5K870LQ,U4HY5,U4HY5,3YHH42UU5CIGLUCPJHV61OG5K870LQ,3YHH42UU5CIGLUCPJHV61OG5K870LQ,271255,271255,,,,,,,,,,
,,,,2,3.73085,0,12,12,181,1,a very nice contemporary living room with a shelf with serveral nice pieces of art on display.,a very nice contemporary living room with a shelf with several nice pieces of art on display as well as a very nice vase.,wolfe2,033_L_vase,1,31,A2KSAAQBU5R0F6,2021-01-25_13h46.17.605,MetaAwareness,2020.1.2,Linux x86_64,60,3UY4PIS8QSO3UZ2Y1BAJ428G4GG1N1,A2KSAAQBU5R0F6,3YHH42UU5CIGLUCPJHV61OG5K870LQ,U4HY5,U4HY5,3YHH42UU5CIGLUCPJHV61OG5K870LQ,3YHH42UU5CIGLUCPJHV61OG5K870LQ,271255,271255,,,,,,,,,,
,,,,2,2.97386,0,13,13,35,1,there is nothing by the lamp,there is a vase near the lamp,wolfe2,006_R_vase,3,31,A2KSAAQBU5R0F6,2021-01-25_13h46.17.605,MetaAwareness,2020.1.2,Linux x86_64,60,3UY4PIS8QSO3UZ2Y1BAJ428G4GG1N1,A2KSAAQBU5R0F6,3YHH42UU5CIGLUCPJHV61OG5K870LQ,U4HY5,U4HY5,3YHH42UU5CIGLUCPJHV61OG5K870LQ,3YHH42UU5CIGLUCPJHV61OG5K870LQ,271255,271255,,,,,,,,,,
,,,,4,2.48757,0,14,14,593,1,"there are many clothes in this room. there is a full size mirror on the left. next to to mirror is a cream color chest with several objects, including a blue globe. there are scarfs on the door.",there are many clothes in the room. there is a full size mirror on the left with a cream colored chest next to it. on the chest are several objects. there are scarfs on the door.,wolfe2,108_R_boa,3,31,A2KSAAQBU5R0F6,2021-01-25_13h46.17.605,MetaAwareness,2020.1.2,Linux x86_64,60,3UY4PIS8QSO3UZ2Y1BAJ428G4GG1N1,A2KSAAQBU5R0F6,3YHH42UU5CIGLUCPJHV61OG5K870LQ,U4HY5,U4HY5,3YHH42UU5CIGLUCPJHV61OG5K870LQ,3YHH42UU5CIGLUCPJHV61OG5K870LQ,271255,271255,,,,,,,,,,
,,,,5,2.33872,0,15,15,129,1,a patio with a tv,a patio with a tv and remote,wolfe2,023_L_remote,6,31,A2KSAAQBU5R0F6,2021-01-25_13h46.17.605,MetaAwareness,2020.1.2,Linux x86_64,60,3UY4PIS8QSO3UZ2Y1BAJ428G4GG1N1,A2KSAAQBU5R0F6,3YHH42UU5CIGLUCPJHV61OG5K870LQ,U4HY5,U4HY5,3YHH42UU5CIGLUCPJHV61OG5K870LQ,3YHH42UU5CIGLUCPJHV61OG5K870LQ,271255,271255,,,,,,,,,,
,,,,5,2.724925,0,16,16,113,1,a small office with a desk and two circular pieces of art hanging on the wall,a small office with a desk and three circular pieces of art hanging on the wall,wolfe2,020_R_walldeco,4,31,A2KSAAQBU5R0F6,2021-01-25_13h46.17.605,MetaAwareness,2020.1.2,Linux x86_64,60,3UY4PIS8QSO3UZ2Y1BAJ428G4GG1N1,A2KSAAQBU5R0F6,3YHH42UU5CIGLUCPJHV61OG5K870LQ,U4HY5,U4HY5,3YHH42UU5CIGLUCPJHV61OG5K870LQ,3YHH42UU5CIGLUCPJHV61OG5K870LQ,271255,271255,,,,,,,,,,
,,,,4,2.423455,0,17,17,604,1,an outdoor screened in living area with houseplants and an urn sitting beside one of the houseplants,an outdoor screened in living area with houseplants,wolfe2,111_L_pot,2,31,A2KSAAQBU5R0F6,2021-01-25_13h46.17.605,MetaAwareness,2020.1.2,Linux x86_64,60,3UY4PIS8QSO3UZ2Y1BAJ428G4GG1N1,A2KSAAQBU5R0F6,3YHH42UU5CIGLUCPJHV61OG5K870LQ,U4HY5,U4HY5,3YHH42UU5CIGLUCPJHV61OG5K870LQ,3YHH42UU5CIGLUCPJHV61OG5K870LQ,271255,271255,,,,,,,,,,
,,,,3,2.78274,0,18,18,352,1,the walls in the modern living room are painted black.  there is also white leather furniture.,there is a white vase on a white leather loveseat in a modern living room with black and white walls,wolfe2,066_R_vase,4,31,A2KSAAQBU5R0F6,2021-01-25_13h46.17.605,MetaAwareness,2020.1.2,Linux x86_64,60,3UY4PIS8QSO3UZ2Y1BAJ428G4GG1N1,A2KSAAQBU5R0F6,3YHH42UU5CIGLUCPJHV61OG5K870LQ,U4HY5,U4HY5,3YHH42UU5CIGLUCPJHV61OG5K870LQ,3YHH42UU5CIGLUCPJHV61OG5K870LQ,271255,271255,,,,,,,,,,
,,,,5,2.96542,0,19,19,549,1,a well lit white living room with a white box,a well lit white living room,wolfe2,102_L_shoppingbag,2,31,A2KSAAQBU5R0F6,2021-01-25_13h46.17.605,MetaAwareness,2020.1.2,Linux x86_64,60,3UY4PIS8QSO3UZ2Y1BAJ428G4GG1N1,A2KSAAQBU5R0F6,3YHH42UU5CIGLUCPJHV61OG5K870LQ,U4HY5,U4HY5,3YHH42UU5CIGLUCPJHV61OG5K870LQ,3YHH42UU5CIGLUCPJHV61OG5K870LQ,271255,271255,,,,,,,,,,
,,,,3,3.11984,0,20,20,573,1,a spacious house with a notable consumer box mounted on th wall  beside the door,a spacious house without a consumerbox mounted on the wall beside the door,wolfe2,106_L_toweldispenser,3,31,A2KSAAQBU5R0F6,2021-01-25_13h46.17.605,MetaAwareness,2020.1.2,Linux x86_64,60,3UY4PIS8QSO3UZ2Y1BAJ428G4GG1N1,A2KSAAQBU5R0F6,3YHH42UU5CIGLUCPJHV61OG5K870LQ,U4HY5,U4HY5,3YHH42UU5CIGLUCPJHV61OG5K870LQ,3YHH42UU5CIGLUCPJHV61OG5K870LQ,271255,271255,,,,,,,,,,
,,,,3,3.617475,0,21,21,530,1,"the image is blending and matches with grace.   the item, likely shoes, on the floor, give it a suggestion of peace or home.",this image is a little severe.  it needs something more than the carpet strip to give it a comfortable appearance.,wolfe2,098_R_slippers,2,31,A2KSAAQBU5R0F6,2021-01-25_13h46.17.605,MetaAwareness,2020.1.2,Linux x86_64,60,3UY4PIS8QSO3UZ2Y1BAJ428G4GG1N1,A2KSAAQBU5R0F6,3YHH42UU5CIGLUCPJHV61OG5K870LQ,U4HY5,U4HY5,3YHH42UU5CIGLUCPJHV61OG5K870LQ,3YHH42UU5CIGLUCPJHV61OG5K870LQ,271255,271255,,,,,,,,,,
,,,,2,2.29646,0,22,22,82,1,a dining area froma  restaurant with three lights on the wall,a dining area from a restaurant with four lights on the wall,wolfe2,014_R_lamp,3,31,A2KSAAQBU5R0F6,2021-01-25_13h46.17.605,MetaAwareness,2020.1.2,Linux x86_64,60,3UY4PIS8QSO3UZ2Y1BAJ428G4GG1N1,A2KSAAQBU5R0F6,3YHH42UU5CIGLUCPJHV61OG5K870LQ,U4HY5,U4HY5,3YHH42UU5CIGLUCPJHV61OG5K870LQ,3YHH42UU5CIGLUCPJHV61OG5K870LQ,271255,271255,,,,,,,,,,
,,,,5,2.5483,0,23,23,275,1,a cabinet in a bathroom with the bottom drawer missing a handle,a cabinet in a bathroom with the bottom dresser having a handle,wolfe2,053_R_handle,3,31,A2KSAAQBU5R0F6,2021-01-25_13h46.17.605,MetaAwareness,2020.1.2,Linux x86_64,60,3UY4PIS8QSO3UZ2Y1BAJ428G4GG1N1,A2KSAAQBU5R0F6,3YHH42UU5CIGLUCPJHV61OG5K870LQ,U4HY5,U4HY5,3YHH42UU5CIGLUCPJHV61OG5K870LQ,3YHH42UU5CIGLUCPJHV61OG5K870LQ,271255,271255,,,,,,,,,,
,,,,5,3.7571,0,24,24,168,1,an open living room with beige couch and one visible roof beam,an open living room with beige couch and two visible roof beams,wolfe2,031_L_log,4,31,A2KSAAQBU5R0F6,2021-01-25_13h46.17.605,MetaAwareness,2020.1.2,Linux x86_64,60,3UY4PIS8QSO3UZ2Y1BAJ428G4GG1N1,A2KSAAQBU5R0F6,3YHH42UU5CIGLUCPJHV61OG5K870LQ,U4HY5,U4HY5,3YHH42UU5CIGLUCPJHV61OG5K870LQ,3YHH42UU5CIGLUCPJHV61OG5K870LQ,271255,271255,,,,,,,,,,
,,,,3,2.27111,0,25,25,257,1,a very elegant bedroom witha mirrored closet and nothing hanging near the closet doors.,a very elegant bedroom with a mirrored closet and a framed picture hanging to the left of the closet doors.,wolfe2,049_L_painting,2,31,A2KSAAQBU5R0F6,2021-01-25_13h46.17.605,MetaAwareness,2020.1.2,Linux x86_64,60,3UY4PIS8QSO3UZ2Y1BAJ428G4GG1N1,A2KSAAQBU5R0F6,3YHH42UU5CIGLUCPJHV61OG5K870LQ,U4HY5,U4HY5,3YHH42UU5CIGLUCPJHV61OG5K870LQ,3YHH42UU5CIGLUCPJHV61OG5K870LQ,271255,271255,,,,,,,,,,
,,,,2,6.027945,0,26,26,565,1,a rustic looking cafe with a table that has a vase and flowers,a rustic looking cafe with tables that don't have a vase or flowers on them,wolfe2,104_R_bottle,4,31,A2KSAAQBU5R0F6,2021-01-25_13h46.17.605,MetaAwareness,2020.1.2,Linux x86_64,60,3UY4PIS8QSO3UZ2Y1BAJ428G4GG1N1,A2KSAAQBU5R0F6,3YHH42UU5CIGLUCPJHV61OG5K870LQ,U4HY5,U4HY5,3YHH42UU5CIGLUCPJHV61OG5K870LQ,3YHH42UU5CIGLUCPJHV61OG5K870LQ,271255,271255,,,,,,,,,,
,,,,5,2.43453,0,27,27,515,1,a room with four candles displayed by the mirror,a room with three candles displayed by the miror,wolfe2,095_R_candle,7,31,A2KSAAQBU5R0F6,2021-01-25_13h46.17.605,MetaAwareness,2020.1.2,Linux x86_64,60,3UY4PIS8QSO3UZ2Y1BAJ428G4GG1N1,A2KSAAQBU5R0F6,3YHH42UU5CIGLUCPJHV61OG5K870LQ,U4HY5,U4HY5,3YHH42UU5CIGLUCPJHV61OG5K870LQ,3YHH42UU5CIGLUCPJHV61OG5K870LQ,271255,271255,,,,,,,,,,
,,,,5,1.2976,0,28,28,152,1,"a light colored tiled bathroom with double sinks, a bathtub and a glass shower with a soap dish","a light colored tiled bathroom with double sinks, a bathtub and a glass shower",wolfe2,027_L_soapdish,4,31,A2KSAAQBU5R0F6,2021-01-25_13h46.17.605,MetaAwareness,2020.1.2,Linux x86_64,60,3UY4PIS8QSO3UZ2Y1BAJ428G4GG1N1,A2KSAAQBU5R0F6,3YHH42UU5CIGLUCPJHV61OG5K870LQ,U4HY5,U4HY5,3YHH42UU5CIGLUCPJHV61OG5K870LQ,3YHH42UU5CIGLUCPJHV61OG5K870LQ,271255,271255,,,,,,,,,,
,,,,4,1.53298,0,29,29,26,1,a living room with a red chair,a living room with a red chair and art on a wall,wolfe2,005_L_mirror,4,31,A2KSAAQBU5R0F6,2021-01-25_13h46.17.605,MetaAwareness,2020.1.2,Linux x86_64,60,3UY4PIS8QSO3UZ2Y1BAJ428G4GG1N1,A2KSAAQBU5R0F6,3YHH42UU5CIGLUCPJHV61OG5K870LQ,U4HY5,U4HY5,3YHH42UU5CIGLUCPJHV61OG5K870LQ,3YHH42UU5CIGLUCPJHV61OG5K870LQ,271255,271255,,,,,,,,,,
,,,,,,,,,,,,,,,,31,A2KSAAQBU5R0F6,2021-01-25_13h46.17.605,MetaAwareness,2020.1.2,Linux x86_64,60,3UY4PIS8QSO3UZ2Y1BAJ428G4GG1N1,A2KSAAQBU5R0F6,3YHH42UU5CIGLUCPJHV61OG5K870LQ,U4HY5,U4HY5,3YHH42UU5CIGLUCPJHV61OG5K870LQ,3YHH42UU5CIGLUCPJHV61OG5K870LQ,271255,271255,2,1.32732,someone laying underneath a blue beach umbrella on a crowded beach,someone laying underneath a blue beach umbrella on a crowded beach,same,2,2.120905,members of a marching band crossing a track that all have feather plumes at the front of their hats,a cluttered and rustic looking cafe with 10 hanging lights,different
