consent_response.keys,consent_response.rt,key_resp_2.keys,key_resp_2.rt,user_resp.keys,user_resp.rt,trials.thisRepN,trials.thisTrialN,trials.thisN,trials.thisIndex,trials.ran,image_1_text,image_2_text,database,image,number,age,worker_ID,date,expName,psychopyVersion,OS,frameRate,hitId,workerId,assignmentId,a,tp_a,b,tp_b,c,tp_c,catch_same_resp.keys,catch_same_resp.rt,image_1_text_catch_same,image_2_text_catch_same,image_catch_same,catch_different_resp.keys,catch_different_resp.rt,image_1_text_catch_different,image_2_text_catch_different,image_catch_different
space,30.015,space,0.168,5,5.675,0,0,0,308,1,this brightly colored child's bedroom has a decorative car above the closet.num_enter,this brightly colored childs bedroom has many cars on the floor,wolfe2,059_R_car,3,30,A33QMMCDIGGVAE,2021-01-25_13h42.14.982,MetaAwareness,2020.1.2,Win32,60,3L7SUC0TTVXX5SWGTRRJDI06UYX0MU,A33QMMCDIGGVAE,3ERMJ6L4DZVE9NUU4SHUGG5HSRW7MS,4JRE5,4JRE5,3ERMJ6L4DZVE9NUU4SHUGG5HSRW7MS,3ERMJ6L4DZVE9NUU4SHUGG5HSRW7MS,271255,271255,,,,,,,,,,
,,,,6,1.406,0,1,1,58,1,this is a picture of a bedroom. on a nightstand on the right there is one candle.,this is a picture of a bedroom. on a nightstand on the right there are two candles.,wolfe2,010_R_candle,8,30,A33QMMCDIGGVAE,2021-01-25_13h42.14.982,MetaAwareness,2020.1.2,Win32,60,3L7SUC0TTVXX5SWGTRRJDI06UYX0MU,A33QMMCDIGGVAE,3ERMJ6L4DZVE9NUU4SHUGG5HSRW7MS,4JRE5,4JRE5,3ERMJ6L4DZVE9NUU4SHUGG5HSRW7MS,3ERMJ6L4DZVE9NUU4SHUGG5HSRW7MS,271255,271255,,,,,,,,,,
,,,,3,1.651,0,2,2,112,1,a clean looking office area with 2 circle patterns on the wall.,a clean looking office area with 3 circle patterns on the wall.,wolfe2,020_R_walldeco,2,30,A33QMMCDIGGVAE,2021-01-25_13h42.14.982,MetaAwareness,2020.1.2,Win32,60,3L7SUC0TTVXX5SWGTRRJDI06UYX0MU,A33QMMCDIGGVAE,3ERMJ6L4DZVE9NUU4SHUGG5HSRW7MS,4JRE5,4JRE5,3ERMJ6L4DZVE9NUU4SHUGG5HSRW7MS,3ERMJ6L4DZVE9NUU4SHUGG5HSRW7MS,271255,271255,,,,,,,,,,
,,,,4,1.339,0,3,3,286,1,a living room with two windows and a sofa that has pilllows on it,a living room with two windows and a sofa that has pillows on it and a blanket  and a book on the corner of it,wolfe2,056_L_comforter,2,30,A33QMMCDIGGVAE,2021-01-25_13h42.14.982,MetaAwareness,2020.1.2,Win32,60,3L7SUC0TTVXX5SWGTRRJDI06UYX0MU,A33QMMCDIGGVAE,3ERMJ6L4DZVE9NUU4SHUGG5HSRW7MS,4JRE5,4JRE5,3ERMJ6L4DZVE9NUU4SHUGG5HSRW7MS,3ERMJ6L4DZVE9NUU4SHUGG5HSRW7MS,271255,271255,,,,,,,,,,
,,,,5,1.337,0,4,4,563,1,a kitchen area with a person sitting in a chair.,a kitchen area with empty chairs.,wolfe2,104_R_bottle,1,30,A33QMMCDIGGVAE,2021-01-25_13h42.14.982,MetaAwareness,2020.1.2,Win32,60,3L7SUC0TTVXX5SWGTRRJDI06UYX0MU,A33QMMCDIGGVAE,3ERMJ6L4DZVE9NUU4SHUGG5HSRW7MS,4JRE5,4JRE5,3ERMJ6L4DZVE9NUU4SHUGG5HSRW7MS,3ERMJ6L4DZVE9NUU4SHUGG5HSRW7MS,271255,271255,,,,,,,,,,
,,,,6,1.105,0,5,5,345,1,a box shaped shelf contains an organized collection of media.,additional media appears in a shelf with a collection of media.,wolfe2,065_R_cd,3,30,A33QMMCDIGGVAE,2021-01-25_13h42.14.982,MetaAwareness,2020.1.2,Win32,60,3L7SUC0TTVXX5SWGTRRJDI06UYX0MU,A33QMMCDIGGVAE,3ERMJ6L4DZVE9NUU4SHUGG5HSRW7MS,4JRE5,4JRE5,3ERMJ6L4DZVE9NUU4SHUGG5HSRW7MS,3ERMJ6L4DZVE9NUU4SHUGG5HSRW7MS,271255,271255,,,,,,,,,,
,,,,4,1.184,0,6,6,676,1,room with a big open window and four chairs with a table and a vase,room with a big open window and four chars with a table,wolfe2,124_L_vase,5,30,A33QMMCDIGGVAE,2021-01-25_13h42.14.982,MetaAwareness,2020.1.2,Win32,60,3L7SUC0TTVXX5SWGTRRJDI06UYX0MU,A33QMMCDIGGVAE,3ERMJ6L4DZVE9NUU4SHUGG5HSRW7MS,4JRE5,4JRE5,3ERMJ6L4DZVE9NUU4SHUGG5HSRW7MS,3ERMJ6L4DZVE9NUU4SHUGG5HSRW7MS,271255,271255,,,,,,,,,,
,,,,5,1.492,0,7,7,222,1,a tidy kitchen with a bowl that looks like it should be holding something,a tidy kitchen with a bowl of fruit on the counter,wolfe2,041_L_fruit,4,30,A33QMMCDIGGVAE,2021-01-25_13h42.14.982,MetaAwareness,2020.1.2,Win32,60,3L7SUC0TTVXX5SWGTRRJDI06UYX0MU,A33QMMCDIGGVAE,3ERMJ6L4DZVE9NUU4SHUGG5HSRW7MS,4JRE5,4JRE5,3ERMJ6L4DZVE9NUU4SHUGG5HSRW7MS,3ERMJ6L4DZVE9NUU4SHUGG5HSRW7MS,271255,271255,,,,,,,,,,
,,,,6,1.157,0,8,8,586,1,a clothing rack with a white shirt outside of the rack at the end,a clothing rack with a white shirt inside of the rack,wolfe2,107_L_shirts,5,30,A33QMMCDIGGVAE,2021-01-25_13h42.14.982,MetaAwareness,2020.1.2,Win32,60,3L7SUC0TTVXX5SWGTRRJDI06UYX0MU,A33QMMCDIGGVAE,3ERMJ6L4DZVE9NUU4SHUGG5HSRW7MS,4JRE5,4JRE5,3ERMJ6L4DZVE9NUU4SHUGG5HSRW7MS,3ERMJ6L4DZVE9NUU4SHUGG5HSRW7MS,271255,271255,,,,,,,,,,
,,,,6,2.048,0,9,9,624,1,a kitchen and cabinets with a plant on the counter,a kitchen and cabinets with a large spacious counter,wolfe2,115_R_pot,2,30,A33QMMCDIGGVAE,2021-01-25_13h42.14.982,MetaAwareness,2020.1.2,Win32,60,3L7SUC0TTVXX5SWGTRRJDI06UYX0MU,A33QMMCDIGGVAE,3ERMJ6L4DZVE9NUU4SHUGG5HSRW7MS,4JRE5,4JRE5,3ERMJ6L4DZVE9NUU4SHUGG5HSRW7MS,3ERMJ6L4DZVE9NUU4SHUGG5HSRW7MS,271255,271255,,,,,,,,,,
,,,,4,0.229,0,10,10,575,1,a light blue wall with a napkin dispenser next to the white door.,a light blue wall next to the white door.,wolfe2,106_L_toweldispenser,7,30,A33QMMCDIGGVAE,2021-01-25_13h42.14.982,MetaAwareness,2020.1.2,Win32,60,3L7SUC0TTVXX5SWGTRRJDI06UYX0MU,A33QMMCDIGGVAE,3ERMJ6L4DZVE9NUU4SHUGG5HSRW7MS,4JRE5,4JRE5,3ERMJ6L4DZVE9NUU4SHUGG5HSRW7MS,3ERMJ6L4DZVE9NUU4SHUGG5HSRW7MS,271255,271255,,,,,,,,,,
,,,,6,1.428,0,11,11,195,1,a charming hotel room with a side table that has two vases sitting on it.,a charming hotel room with a side table that has two vases and a decor arrangement.,wolfe2,035_L_fruit,7,30,A33QMMCDIGGVAE,2021-01-25_13h42.14.982,MetaAwareness,2020.1.2,Win32,60,3L7SUC0TTVXX5SWGTRRJDI06UYX0MU,A33QMMCDIGGVAE,3ERMJ6L4DZVE9NUU4SHUGG5HSRW7MS,4JRE5,4JRE5,3ERMJ6L4DZVE9NUU4SHUGG5HSRW7MS,3ERMJ6L4DZVE9NUU4SHUGG5HSRW7MS,271255,271255,,,,,,,,,,
,,,,4,1.251,0,12,12,540,1,a bathroom with dark accents that has a magnifyer mirror on the right side of the sink area below the shelf,a bathroom with dark accents that has only a shelf area on the right side of the sink area,wolfe2,100_R_mirror,1,30,A33QMMCDIGGVAE,2021-01-25_13h42.14.982,MetaAwareness,2020.1.2,Win32,60,3L7SUC0TTVXX5SWGTRRJDI06UYX0MU,A33QMMCDIGGVAE,3ERMJ6L4DZVE9NUU4SHUGG5HSRW7MS,4JRE5,4JRE5,3ERMJ6L4DZVE9NUU4SHUGG5HSRW7MS,3ERMJ6L4DZVE9NUU4SHUGG5HSRW7MS,271255,271255,,,,,,,,,,
,,,,4,1.995,0,13,13,38,1,two sinks in front of a mirror with one bar of soap,two sinks in front of a mirror with two bars of soap,wolfe2,007_R_soap,3,30,A33QMMCDIGGVAE,2021-01-25_13h42.14.982,MetaAwareness,2020.1.2,Win32,60,3L7SUC0TTVXX5SWGTRRJDI06UYX0MU,A33QMMCDIGGVAE,3ERMJ6L4DZVE9NUU4SHUGG5HSRW7MS,4JRE5,4JRE5,3ERMJ6L4DZVE9NUU4SHUGG5HSRW7MS,3ERMJ6L4DZVE9NUU4SHUGG5HSRW7MS,271255,271255,,,,,,,,,,
,,,,4,1.945,0,14,14,582,1,a mirrored fitting room with clothes hangin on both sides of the clothes rack,a mirrored fitting room with clothes inside the left support of the clothes rack,wolfe2,107_L_shirts,1,30,A33QMMCDIGGVAE,2021-01-25_13h42.14.982,MetaAwareness,2020.1.2,Win32,60,3L7SUC0TTVXX5SWGTRRJDI06UYX0MU,A33QMMCDIGGVAE,3ERMJ6L4DZVE9NUU4SHUGG5HSRW7MS,4JRE5,4JRE5,3ERMJ6L4DZVE9NUU4SHUGG5HSRW7MS,3ERMJ6L4DZVE9NUU4SHUGG5HSRW7MS,271255,271255,,,,,,,,,,
,,,,4,1.504,0,15,15,131,1,it is a picutre of a living room or family room with lounge furniture and glass tables.,it is a picture of a living room or family room with lounge furniture and glass tables and the tv remote is on top of the closest table.,wolfe2,023_R_remote,2,30,A33QMMCDIGGVAE,2021-01-25_13h42.14.982,MetaAwareness,2020.1.2,Win32,60,3L7SUC0TTVXX5SWGTRRJDI06UYX0MU,A33QMMCDIGGVAE,3ERMJ6L4DZVE9NUU4SHUGG5HSRW7MS,4JRE5,4JRE5,3ERMJ6L4DZVE9NUU4SHUGG5HSRW7MS,3ERMJ6L4DZVE9NUU4SHUGG5HSRW7MS,271255,271255,,,,,,,,,,
,,,,3,1.645,0,16,16,96,1,a very contemporary living room with a flat screen tv against the wall.,a very contmporary living room with a flat screen tv against the wall that is a newer movel.,wolfe2,017_L_wood,1,30,A33QMMCDIGGVAE,2021-01-25_13h42.14.982,MetaAwareness,2020.1.2,Win32,60,3L7SUC0TTVXX5SWGTRRJDI06UYX0MU,A33QMMCDIGGVAE,3ERMJ6L4DZVE9NUU4SHUGG5HSRW7MS,4JRE5,4JRE5,3ERMJ6L4DZVE9NUU4SHUGG5HSRW7MS,3ERMJ6L4DZVE9NUU4SHUGG5HSRW7MS,271255,271255,,,,,,,,,,
,,,,4,1.586,0,17,17,585,1,a dressing room at a retailer with 3 unique stalls where at the end there is a clothes rack with 2 white garments on the far left,a dressing room at a retailer with 3 unique stalls where at the end there is a clothes rack with 1 white garment on the far left,wolfe2,107_L_shirts,4,30,A33QMMCDIGGVAE,2021-01-25_13h42.14.982,MetaAwareness,2020.1.2,Win32,60,3L7SUC0TTVXX5SWGTRRJDI06UYX0MU,A33QMMCDIGGVAE,3ERMJ6L4DZVE9NUU4SHUGG5HSRW7MS,4JRE5,4JRE5,3ERMJ6L4DZVE9NUU4SHUGG5HSRW7MS,3ERMJ6L4DZVE9NUU4SHUGG5HSRW7MS,271255,271255,,,,,,,,,,
,,,,6,2.052,0,18,18,217,1,in a dinning room there is a wall with two prints on the wall,in a dinning room there is a wall with three prints on the wall,wolfe2,040_L_painting,2,30,A33QMMCDIGGVAE,2021-01-25_13h42.14.982,MetaAwareness,2020.1.2,Win32,60,3L7SUC0TTVXX5SWGTRRJDI06UYX0MU,A33QMMCDIGGVAE,3ERMJ6L4DZVE9NUU4SHUGG5HSRW7MS,4JRE5,4JRE5,3ERMJ6L4DZVE9NUU4SHUGG5HSRW7MS,3ERMJ6L4DZVE9NUU4SHUGG5HSRW7MS,271255,271255,,,,,,,,,,
,,,,6,1.566,0,19,19,144,1,there is one piece of art on the right side of a shelf in the living room,there are two pieces of art on the right side of a shelf in the living room,wolfe2,025_R_vase,2,30,A33QMMCDIGGVAE,2021-01-25_13h42.14.982,MetaAwareness,2020.1.2,Win32,60,3L7SUC0TTVXX5SWGTRRJDI06UYX0MU,A33QMMCDIGGVAE,3ERMJ6L4DZVE9NUU4SHUGG5HSRW7MS,4JRE5,4JRE5,3ERMJ6L4DZVE9NUU4SHUGG5HSRW7MS,3ERMJ6L4DZVE9NUU4SHUGG5HSRW7MS,271255,271255,,,,,,,,,,
,,,,6,1.194,0,20,20,212,1,a dining area with brown chairs and table,"a dining area with brown chairs, a table, and artwork hanging near the table",wolfe2,038_R_art,4,30,A33QMMCDIGGVAE,2021-01-25_13h42.14.982,MetaAwareness,2020.1.2,Win32,60,3L7SUC0TTVXX5SWGTRRJDI06UYX0MU,A33QMMCDIGGVAE,3ERMJ6L4DZVE9NUU4SHUGG5HSRW7MS,4JRE5,4JRE5,3ERMJ6L4DZVE9NUU4SHUGG5HSRW7MS,3ERMJ6L4DZVE9NUU4SHUGG5HSRW7MS,271255,271255,,,,,,,,,,
,,,,6,1.39,0,21,21,220,1,a dining room with wooden furnature and two photos haning on the wall,a dining room with wooden furnature and three photos hanging on the wall,wolfe2,040_R_painting,5,30,A33QMMCDIGGVAE,2021-01-25_13h42.14.982,MetaAwareness,2020.1.2,Win32,60,3L7SUC0TTVXX5SWGTRRJDI06UYX0MU,A33QMMCDIGGVAE,3ERMJ6L4DZVE9NUU4SHUGG5HSRW7MS,4JRE5,4JRE5,3ERMJ6L4DZVE9NUU4SHUGG5HSRW7MS,3ERMJ6L4DZVE9NUU4SHUGG5HSRW7MS,271255,271255,,,,,,,,,,
,,,,6,1.314,0,22,22,307,1,a messy kids bedroom with nothing over top of the mirror,a messy kids bedroom with a large toy car sitting over top of the mirror,wolfe2,059_L_car,4,30,A33QMMCDIGGVAE,2021-01-25_13h42.14.982,MetaAwareness,2020.1.2,Win32,60,3L7SUC0TTVXX5SWGTRRJDI06UYX0MU,A33QMMCDIGGVAE,3ERMJ6L4DZVE9NUU4SHUGG5HSRW7MS,4JRE5,4JRE5,3ERMJ6L4DZVE9NUU4SHUGG5HSRW7MS,3ERMJ6L4DZVE9NUU4SHUGG5HSRW7MS,271255,271255,,,,,,,,,,
,,,,6,1.936,0,23,23,326,1,a high-class looking family room with a seat in front of the fireplace. the fireplace has nothing in it.,a high-class looking family room with a seat in front of the fireplace. the fireplace has a white object in it,wolfe2,062_R_flowers,1,30,A33QMMCDIGGVAE,2021-01-25_13h42.14.982,MetaAwareness,2020.1.2,Win32,60,3L7SUC0TTVXX5SWGTRRJDI06UYX0MU,A33QMMCDIGGVAE,3ERMJ6L4DZVE9NUU4SHUGG5HSRW7MS,4JRE5,4JRE5,3ERMJ6L4DZVE9NUU4SHUGG5HSRW7MS,3ERMJ6L4DZVE9NUU4SHUGG5HSRW7MS,271255,271255,,,,,,,,,,
,,,,4,1.229,0,24,24,596,1,a long view of a contemporary livingroom toward the exterior wall of windows.  there is a with sofa with an orange throw pillow.,a long view of a contemporary livingroom toward the exterior wall of windows. there is a white sofa with cushions.,wolfe2,109_L_pillow,3,30,A33QMMCDIGGVAE,2021-01-25_13h42.14.982,MetaAwareness,2020.1.2,Win32,60,3L7SUC0TTVXX5SWGTRRJDI06UYX0MU,A33QMMCDIGGVAE,3ERMJ6L4DZVE9NUU4SHUGG5HSRW7MS,4JRE5,4JRE5,3ERMJ6L4DZVE9NUU4SHUGG5HSRW7MS,3ERMJ6L4DZVE9NUU4SHUGG5HSRW7MS,271255,271255,,,,,,,,,,
,,,,3,1.319,0,25,25,565,1,a rustic looking cafe with a table that has a vase and flowers,a rustic looking cafe with tables that don't have a vase or flowers on them,wolfe2,104_R_bottle,4,30,A33QMMCDIGGVAE,2021-01-25_13h42.14.982,MetaAwareness,2020.1.2,Win32,60,3L7SUC0TTVXX5SWGTRRJDI06UYX0MU,A33QMMCDIGGVAE,3ERMJ6L4DZVE9NUU4SHUGG5HSRW7MS,4JRE5,4JRE5,3ERMJ6L4DZVE9NUU4SHUGG5HSRW7MS,3ERMJ6L4DZVE9NUU4SHUGG5HSRW7MS,271255,271255,,,,,,,,,,
,,,,4,1.56,0,26,26,218,1,"a modern dining room with dark wood furniture, a tan rug, and two pieces of art on the wall","a modern dining room with dark wood furniture, a tan rug, and three pieces of art on the wall",wolfe2,040_R_painting,2,30,A33QMMCDIGGVAE,2021-01-25_13h42.14.982,MetaAwareness,2020.1.2,Win32,60,3L7SUC0TTVXX5SWGTRRJDI06UYX0MU,A33QMMCDIGGVAE,3ERMJ6L4DZVE9NUU4SHUGG5HSRW7MS,4JRE5,4JRE5,3ERMJ6L4DZVE9NUU4SHUGG5HSRW7MS,3ERMJ6L4DZVE9NUU4SHUGG5HSRW7MS,271255,271255,,,,,,,,,,
,,,,4,1.298,0,27,27,364,1,living room with fireplace and shelf with some decorations,living room with fireplace with four more decorations on upper shelf,wolfe2,069_L_things,4,30,A33QMMCDIGGVAE,2021-01-25_13h42.14.982,MetaAwareness,2020.1.2,Win32,60,3L7SUC0TTVXX5SWGTRRJDI06UYX0MU,A33QMMCDIGGVAE,3ERMJ6L4DZVE9NUU4SHUGG5HSRW7MS,4JRE5,4JRE5,3ERMJ6L4DZVE9NUU4SHUGG5HSRW7MS,3ERMJ6L4DZVE9NUU4SHUGG5HSRW7MS,271255,271255,,,,,,,,,,
,,,,5,1.16,0,28,28,337,1,an olive colored wall in a well decorated dining room,a brown jug sitting on a brown dresser,wolfe2,064_L_bottles,2,30,A33QMMCDIGGVAE,2021-01-25_13h42.14.982,MetaAwareness,2020.1.2,Win32,60,3L7SUC0TTVXX5SWGTRRJDI06UYX0MU,A33QMMCDIGGVAE,3ERMJ6L4DZVE9NUU4SHUGG5HSRW7MS,4JRE5,4JRE5,3ERMJ6L4DZVE9NUU4SHUGG5HSRW7MS,3ERMJ6L4DZVE9NUU4SHUGG5HSRW7MS,271255,271255,,,,,,,,,,
,,,,6,1.341,0,29,29,98,1,a contemporary living room with no objects on top of the fire place,a contemporary living room with a stack of objects on top of the fire place,wolfe2,017_R_wood,2,30,A33QMMCDIGGVAE,2021-01-25_13h42.14.982,MetaAwareness,2020.1.2,Win32,60,3L7SUC0TTVXX5SWGTRRJDI06UYX0MU,A33QMMCDIGGVAE,3ERMJ6L4DZVE9NUU4SHUGG5HSRW7MS,4JRE5,4JRE5,3ERMJ6L4DZVE9NUU4SHUGG5HSRW7MS,3ERMJ6L4DZVE9NUU4SHUGG5HSRW7MS,271255,271255,,,,,,,,,,
,,,,,,,,,,,,,,,,30,A33QMMCDIGGVAE,2021-01-25_13h42.14.982,MetaAwareness,2020.1.2,Win32,60,3L7SUC0TTVXX5SWGTRRJDI06UYX0MU,A33QMMCDIGGVAE,3ERMJ6L4DZVE9NUU4SHUGG5HSRW7MS,4JRE5,4JRE5,3ERMJ6L4DZVE9NUU4SHUGG5HSRW7MS,3ERMJ6L4DZVE9NUU4SHUGG5HSRW7MS,271255,271255,5,1.552,someone laying underneath a blue beach umbrella on a crowded beach,someone laying underneath a blue beach umbrella on a crowded beach,same,6,1.363,members of a marching band crossing a track that all have feather plumes at the front of their hats,a cluttered and rustic looking cafe with 10 hanging lights,different
