consent_response.keys,consent_response.rt,key_resp_2.keys,key_resp_2.rt,user_resp.keys,user_resp.rt,trials.thisRepN,trials.thisTrialN,trials.thisN,trials.thisIndex,trials.ran,image_1_text,image_2_text,database,image,number,age,worker_ID,date,expName,psychopyVersion,OS,frameRate,hitId,workerId,assignmentId,a,tp_a,b,tp_b,c,tp_c,catch_same_resp.keys,catch_same_resp.rt,image_1_text_catch_same,image_2_text_catch_same,image_catch_same,catch_different_resp.keys,catch_different_resp.rt,image_1_text_catch_different,image_2_text_catch_different,image_catch_different
space,23.461,space,28.084,5,14.392,0,0,0,257,1,a very elegant bedroom witha mirrored closet and nothing hanging near the closet doors.,a very elegant bedroom with a mirrored closet and a framed picture hanging to the left of the closet doors.,wolfe2,049_L_painting,2,38,A3C59PV8Q2TV8A,2021-01-25_14h06.58.726,MetaAwareness,2020.1.2,Win32,60,3IWA71V4TJJ3DFHZ9N99X0QVE6DX6O,A3C59PV8Q2TV8A,3IAS3U3I0GJB4VTR7RAQ69DF5D82BM,I3AI5,I3AI5,3IAS3U3I0GJB4VTR7RAQ69DF5D82BM,3IAS3U3I0GJB4VTR7RAQ69DF5D82BM,271255,271255,,,,,,,,,,
,,,,2,12.488,0,1,1,245,1,the ugly glass coffee table sits in front of the thrift store couch,there is a candle on the glass coffee table near the sofa,wolfe2,046_R_remote,3,38,A3C59PV8Q2TV8A,2021-01-25_14h06.58.726,MetaAwareness,2020.1.2,Win32,60,3IWA71V4TJJ3DFHZ9N99X0QVE6DX6O,A3C59PV8Q2TV8A,3IAS3U3I0GJB4VTR7RAQ69DF5D82BM,I3AI5,I3AI5,3IAS3U3I0GJB4VTR7RAQ69DF5D82BM,3IAS3U3I0GJB4VTR7RAQ69DF5D82BM,271255,271255,,,,,,,,,,
,,,,5,11.018,0,2,2,476,1,a messy bathroom counter with a towel hook on the wall next to it,a messy bathroom counter with no towel hook on the wall,wolfe2,087_R_towelhandle,4,38,A3C59PV8Q2TV8A,2021-01-25_14h06.58.726,MetaAwareness,2020.1.2,Win32,60,3IWA71V4TJJ3DFHZ9N99X0QVE6DX6O,A3C59PV8Q2TV8A,3IAS3U3I0GJB4VTR7RAQ69DF5D82BM,I3AI5,I3AI5,3IAS3U3I0GJB4VTR7RAQ69DF5D82BM,3IAS3U3I0GJB4VTR7RAQ69DF5D82BM,271255,271255,,,,,,,,,,
,,,,5,8.068,0,3,3,328,1,a soft living room with an empty fireplace,a soft living room with a decorative item inthe fireplace,wolfe2,062_R_flowers,4,38,A3C59PV8Q2TV8A,2021-01-25_14h06.58.726,MetaAwareness,2020.1.2,Win32,60,3IWA71V4TJJ3DFHZ9N99X0QVE6DX6O,A3C59PV8Q2TV8A,3IAS3U3I0GJB4VTR7RAQ69DF5D82BM,I3AI5,I3AI5,3IAS3U3I0GJB4VTR7RAQ69DF5D82BM,3IAS3U3I0GJB4VTR7RAQ69DF5D82BM,271255,271255,,,,,,,,,,
,,,,5,11.967,0,4,4,192,1,a bedroom with a nightstand table,a bedroom with a nightstand table that has fake fruits on it,wolfe2,035_L_fruit,3,38,A3C59PV8Q2TV8A,2021-01-25_14h06.58.726,MetaAwareness,2020.1.2,Win32,60,3IWA71V4TJJ3DFHZ9N99X0QVE6DX6O,A3C59PV8Q2TV8A,3IAS3U3I0GJB4VTR7RAQ69DF5D82BM,I3AI5,I3AI5,3IAS3U3I0GJB4VTR7RAQ69DF5D82BM,3IAS3U3I0GJB4VTR7RAQ69DF5D82BM,271255,271255,,,,,,,,,,
,,,,5,10.17,0,5,5,357,1,a modern marble bathroom with two levers between the tub and the mirror.,a modern marble bathroom with three levers between the tub and the mirror.,wolfe2,068_L_faucet,1,38,A3C59PV8Q2TV8A,2021-01-25_14h06.58.726,MetaAwareness,2020.1.2,Win32,60,3IWA71V4TJJ3DFHZ9N99X0QVE6DX6O,A3C59PV8Q2TV8A,3IAS3U3I0GJB4VTR7RAQ69DF5D82BM,I3AI5,I3AI5,3IAS3U3I0GJB4VTR7RAQ69DF5D82BM,3IAS3U3I0GJB4VTR7RAQ69DF5D82BM,271255,271255,,,,,,,,,,
,,,,5,8.106,0,6,6,195,1,a charming hotel room with a side table that has two vases sitting on it.,a charming hotel room with a side table that has two vases and a decor arrangement.,wolfe2,035_L_fruit,7,38,A3C59PV8Q2TV8A,2021-01-25_14h06.58.726,MetaAwareness,2020.1.2,Win32,60,3IWA71V4TJJ3DFHZ9N99X0QVE6DX6O,A3C59PV8Q2TV8A,3IAS3U3I0GJB4VTR7RAQ69DF5D82BM,I3AI5,I3AI5,3IAS3U3I0GJB4VTR7RAQ69DF5D82BM,3IAS3U3I0GJB4VTR7RAQ69DF5D82BM,271255,271255,,,,,,,,,,
,,,,5,13.725,0,7,7,366,1,a classic style living room with fireplace and a shelf to the righta,a classic style living room with fireplace and a object on the shelf to the right,wolfe2,069_R_things,2,38,A3C59PV8Q2TV8A,2021-01-25_14h06.58.726,MetaAwareness,2020.1.2,Win32,60,3IWA71V4TJJ3DFHZ9N99X0QVE6DX6O,A3C59PV8Q2TV8A,3IAS3U3I0GJB4VTR7RAQ69DF5D82BM,I3AI5,I3AI5,3IAS3U3I0GJB4VTR7RAQ69DF5D82BM,3IAS3U3I0GJB4VTR7RAQ69DF5D82BM,271255,271255,,,,,,,,,,
,,,,5,13.294,0,8,8,386,1,a dresser in a corner of a bedrom with 6 drawers that all have handles except for one,a dresser in a corner of a bedroom with 6 drawers that all have handles,wolfe2,072_L_handle,3,38,A3C59PV8Q2TV8A,2021-01-25_14h06.58.726,MetaAwareness,2020.1.2,Win32,60,3IWA71V4TJJ3DFHZ9N99X0QVE6DX6O,A3C59PV8Q2TV8A,3IAS3U3I0GJB4VTR7RAQ69DF5D82BM,I3AI5,I3AI5,3IAS3U3I0GJB4VTR7RAQ69DF5D82BM,3IAS3U3I0GJB4VTR7RAQ69DF5D82BM,271255,271255,,,,,,,,,,
,,,,5,23.851,0,9,9,321,1,a dark wood dining room with a table set with place settings. the place setting on the left of the table has two glasses,a dark wood dining room with a table set with place settings. the place setting on the left of the table has one glass.,wolfe2,061_R_glass,5,38,A3C59PV8Q2TV8A,2021-01-25_14h06.58.726,MetaAwareness,2020.1.2,Win32,60,3IWA71V4TJJ3DFHZ9N99X0QVE6DX6O,A3C59PV8Q2TV8A,3IAS3U3I0GJB4VTR7RAQ69DF5D82BM,I3AI5,I3AI5,3IAS3U3I0GJB4VTR7RAQ69DF5D82BM,3IAS3U3I0GJB4VTR7RAQ69DF5D82BM,271255,271255,,,,,,,,,,
,,,,4,19.492,0,10,10,617,1,a living room with a brown table with a bird looking figurine on the table,a living room with a brown wood table with books and vases on the table,wolfe2,114_L_bird,1,38,A3C59PV8Q2TV8A,2021-01-25_14h06.58.726,MetaAwareness,2020.1.2,Win32,60,3IWA71V4TJJ3DFHZ9N99X0QVE6DX6O,A3C59PV8Q2TV8A,3IAS3U3I0GJB4VTR7RAQ69DF5D82BM,I3AI5,I3AI5,3IAS3U3I0GJB4VTR7RAQ69DF5D82BM,3IAS3U3I0GJB4VTR7RAQ69DF5D82BM,271255,271255,,,,,,,,,,
,,,,5,11.752,0,11,11,414,1,"kitchen with three lights, and 4 stools at the counter","kitchen with three lights, and 4 stools at the counter and one missing foot rest",wolfe2,077_L_footrest,4,38,A3C59PV8Q2TV8A,2021-01-25_14h06.58.726,MetaAwareness,2020.1.2,Win32,60,3IWA71V4TJJ3DFHZ9N99X0QVE6DX6O,A3C59PV8Q2TV8A,3IAS3U3I0GJB4VTR7RAQ69DF5D82BM,I3AI5,I3AI5,3IAS3U3I0GJB4VTR7RAQ69DF5D82BM,3IAS3U3I0GJB4VTR7RAQ69DF5D82BM,271255,271255,,,,,,,,,,
,,,,5,19.591,0,12,12,159,1,in a bathroom there is a shelf with two red glasses,in a bathroom there is a shelf with three red glasses,wolfe2,029_L_glass,1,38,A3C59PV8Q2TV8A,2021-01-25_14h06.58.726,MetaAwareness,2020.1.2,Win32,60,3IWA71V4TJJ3DFHZ9N99X0QVE6DX6O,A3C59PV8Q2TV8A,3IAS3U3I0GJB4VTR7RAQ69DF5D82BM,I3AI5,I3AI5,3IAS3U3I0GJB4VTR7RAQ69DF5D82BM,3IAS3U3I0GJB4VTR7RAQ69DF5D82BM,271255,271255,,,,,,,,,,
,,,,5,6.322,0,13,13,120,1,a beautiful modern kitchen with 2 ceiling lights,a beautiful modern kitchen with 3 hanging ceiling lights,wolfe2,022_L_lamp,1,38,A3C59PV8Q2TV8A,2021-01-25_14h06.58.726,MetaAwareness,2020.1.2,Win32,60,3IWA71V4TJJ3DFHZ9N99X0QVE6DX6O,A3C59PV8Q2TV8A,3IAS3U3I0GJB4VTR7RAQ69DF5D82BM,I3AI5,I3AI5,3IAS3U3I0GJB4VTR7RAQ69DF5D82BM,3IAS3U3I0GJB4VTR7RAQ69DF5D82BM,271255,271255,,,,,,,,,,
,,,,6,16.169,0,14,14,99,1,livingroom with white furniture and fireplace,living room with white furniture and fireplace,wolfe2,017_R_wood,3,38,A3C59PV8Q2TV8A,2021-01-25_14h06.58.726,MetaAwareness,2020.1.2,Win32,60,3IWA71V4TJJ3DFHZ9N99X0QVE6DX6O,A3C59PV8Q2TV8A,3IAS3U3I0GJB4VTR7RAQ69DF5D82BM,I3AI5,I3AI5,3IAS3U3I0GJB4VTR7RAQ69DF5D82BM,3IAS3U3I0GJB4VTR7RAQ69DF5D82BM,271255,271255,,,,,,,,,,
,,,,6,48.323,0,15,15,346,1,family room office area with books,the office holds the book shelf for the family room,wolfe2,065_R_cd,5,38,A3C59PV8Q2TV8A,2021-01-25_14h06.58.726,MetaAwareness,2020.1.2,Win32,60,3IWA71V4TJJ3DFHZ9N99X0QVE6DX6O,A3C59PV8Q2TV8A,3IAS3U3I0GJB4VTR7RAQ69DF5D82BM,I3AI5,I3AI5,3IAS3U3I0GJB4VTR7RAQ69DF5D82BM,3IAS3U3I0GJB4VTR7RAQ69DF5D82BM,271255,271255,,,,,,,,,,
,,,,5,12.835,0,16,16,596,1,a long view of a contemporary livingroom toward the exterior wall of windows.  there is a with sofa with an orange throw pillow.,a long view of a contemporary livingroom toward the exterior wall of windows. there is a white sofa with cushions.,wolfe2,109_L_pillow,3,38,A3C59PV8Q2TV8A,2021-01-25_14h06.58.726,MetaAwareness,2020.1.2,Win32,60,3IWA71V4TJJ3DFHZ9N99X0QVE6DX6O,A3C59PV8Q2TV8A,3IAS3U3I0GJB4VTR7RAQ69DF5D82BM,I3AI5,I3AI5,3IAS3U3I0GJB4VTR7RAQ69DF5D82BM,3IAS3U3I0GJB4VTR7RAQ69DF5D82BM,271255,271255,,,,,,,,,,
,,,,6,5.062,0,17,17,603,1,a living room with a decorative pot,a living room without a decrative pot,wolfe2,111_L_pot,1,38,A3C59PV8Q2TV8A,2021-01-25_14h06.58.726,MetaAwareness,2020.1.2,Win32,60,3IWA71V4TJJ3DFHZ9N99X0QVE6DX6O,A3C59PV8Q2TV8A,3IAS3U3I0GJB4VTR7RAQ69DF5D82BM,I3AI5,I3AI5,3IAS3U3I0GJB4VTR7RAQ69DF5D82BM,3IAS3U3I0GJB4VTR7RAQ69DF5D82BM,271255,271255,,,,,,,,,,
,,,,5,12.601,0,18,18,154,1,"a fancy bathroom with two sinks, a bathtub and a shower","a fancy bathroom with two sinks, a bathtub, and a shower with a soap holder",wolfe2,027_R_soapdish,2,38,A3C59PV8Q2TV8A,2021-01-25_14h06.58.726,MetaAwareness,2020.1.2,Win32,60,3IWA71V4TJJ3DFHZ9N99X0QVE6DX6O,A3C59PV8Q2TV8A,3IAS3U3I0GJB4VTR7RAQ69DF5D82BM,I3AI5,I3AI5,3IAS3U3I0GJB4VTR7RAQ69DF5D82BM,3IAS3U3I0GJB4VTR7RAQ69DF5D82BM,271255,271255,,,,,,,,,,
,,,,6,14.175,0,19,19,578,1,it is a picture of what looks like a reception area of an office and there is a paper towel dispenser near the sinks.,it is a picutre of what looks like a reception area of an office and there is no paper towel dispenser next to the sinks.,wolfe2,106_R_toweldispenser,2,38,A3C59PV8Q2TV8A,2021-01-25_14h06.58.726,MetaAwareness,2020.1.2,Win32,60,3IWA71V4TJJ3DFHZ9N99X0QVE6DX6O,A3C59PV8Q2TV8A,3IAS3U3I0GJB4VTR7RAQ69DF5D82BM,I3AI5,I3AI5,3IAS3U3I0GJB4VTR7RAQ69DF5D82BM,3IAS3U3I0GJB4VTR7RAQ69DF5D82BM,271255,271255,,,,,,,,,,
,,,,6,14.401,0,20,20,214,1,"a large sitting and dining room with the walls, ceiling, and floor all being colored white","a large sitting and dining room with the walls, ceiling, and floor all being colored white, in addition to a white air vent",wolfe2,039_L_ventilator,4,38,A3C59PV8Q2TV8A,2021-01-25_14h06.58.726,MetaAwareness,2020.1.2,Win32,60,3IWA71V4TJJ3DFHZ9N99X0QVE6DX6O,A3C59PV8Q2TV8A,3IAS3U3I0GJB4VTR7RAQ69DF5D82BM,I3AI5,I3AI5,3IAS3U3I0GJB4VTR7RAQ69DF5D82BM,3IAS3U3I0GJB4VTR7RAQ69DF5D82BM,271255,271255,,,,,,,,,,
,,,,5,6.887,0,21,21,682,1,a living room with a small coffee table next to the couch,a living room without a small coffee table next to the couch,wolfe2,125_L_sofa,4,38,A3C59PV8Q2TV8A,2021-01-25_14h06.58.726,MetaAwareness,2020.1.2,Win32,60,3IWA71V4TJJ3DFHZ9N99X0QVE6DX6O,A3C59PV8Q2TV8A,3IAS3U3I0GJB4VTR7RAQ69DF5D82BM,I3AI5,I3AI5,3IAS3U3I0GJB4VTR7RAQ69DF5D82BM,3IAS3U3I0GJB4VTR7RAQ69DF5D82BM,271255,271255,,,,,,,,,,
,,,,5,37.019,0,22,22,136,1,a calm looking room overlooking the mountains with one set of towels on the left side of a basket on the bottom shelf of a cabinet,"a calm looking room overlooking the mountains with two sets of towels, one on the right and one on the left side of a basket on the bottom shelf of a cabinet",wolfe2,024_L_towels,5,38,A3C59PV8Q2TV8A,2021-01-25_14h06.58.726,MetaAwareness,2020.1.2,Win32,60,3IWA71V4TJJ3DFHZ9N99X0QVE6DX6O,A3C59PV8Q2TV8A,3IAS3U3I0GJB4VTR7RAQ69DF5D82BM,I3AI5,I3AI5,3IAS3U3I0GJB4VTR7RAQ69DF5D82BM,3IAS3U3I0GJB4VTR7RAQ69DF5D82BM,271255,271255,,,,,,,,,,
,,,,5,15.558,0,23,23,302,1,"a girl's bedroom with lots of white, pink, and purple furnishings, and a fluffy white rug over a table","a girl's bedroom with lots of white, pink, and purple furnishing, and some kind of dark purple item of clothing on top of a fluffy white tabletop",wolfe2,058_L_clutch,3,38,A3C59PV8Q2TV8A,2021-01-25_14h06.58.726,MetaAwareness,2020.1.2,Win32,60,3IWA71V4TJJ3DFHZ9N99X0QVE6DX6O,A3C59PV8Q2TV8A,3IAS3U3I0GJB4VTR7RAQ69DF5D82BM,I3AI5,I3AI5,3IAS3U3I0GJB4VTR7RAQ69DF5D82BM,3IAS3U3I0GJB4VTR7RAQ69DF5D82BM,271255,271255,,,,,,,,,,
,,,,5,7.161,0,24,24,223,1,a kitchen with a bowl that has no items,a kitchen wit a bowel that contains some food items,wolfe2,041_R_fruit,5,38,A3C59PV8Q2TV8A,2021-01-25_14h06.58.726,MetaAwareness,2020.1.2,Win32,60,3IWA71V4TJJ3DFHZ9N99X0QVE6DX6O,A3C59PV8Q2TV8A,3IAS3U3I0GJB4VTR7RAQ69DF5D82BM,I3AI5,I3AI5,3IAS3U3I0GJB4VTR7RAQ69DF5D82BM,3IAS3U3I0GJB4VTR7RAQ69DF5D82BM,271255,271255,,,,,,,,,,
,,,,5,4.971,0,25,25,513,1,"a bright, cheery living room with four candles in front of a large mirror","a bright, cheery living room with three candles in front of a large mirror",wolfe2,095_R_candle,4,38,A3C59PV8Q2TV8A,2021-01-25_14h06.58.726,MetaAwareness,2020.1.2,Win32,60,3IWA71V4TJJ3DFHZ9N99X0QVE6DX6O,A3C59PV8Q2TV8A,3IAS3U3I0GJB4VTR7RAQ69DF5D82BM,I3AI5,I3AI5,3IAS3U3I0GJB4VTR7RAQ69DF5D82BM,3IAS3U3I0GJB4VTR7RAQ69DF5D82BM,271255,271255,,,,,,,,,,
,,,,5,13.044,0,26,26,135,1,a big room with sinks and two sets of towels below it,a big room with sinks and three sets of towels below it,wolfe2,024_L_towels,2,38,A3C59PV8Q2TV8A,2021-01-25_14h06.58.726,MetaAwareness,2020.1.2,Win32,60,3IWA71V4TJJ3DFHZ9N99X0QVE6DX6O,A3C59PV8Q2TV8A,3IAS3U3I0GJB4VTR7RAQ69DF5D82BM,I3AI5,I3AI5,3IAS3U3I0GJB4VTR7RAQ69DF5D82BM,3IAS3U3I0GJB4VTR7RAQ69DF5D82BM,271255,271255,,,,,,,,,,
,,,,5,10.735,0,27,27,384,1,black and cream bedroom with bottom left handle missing off 6-drawer dresser,black and cream bedroom with all handles on the 6-drawer dresser,wolfe2,072_L_handle,1,38,A3C59PV8Q2TV8A,2021-01-25_14h06.58.726,MetaAwareness,2020.1.2,Win32,60,3IWA71V4TJJ3DFHZ9N99X0QVE6DX6O,A3C59PV8Q2TV8A,3IAS3U3I0GJB4VTR7RAQ69DF5D82BM,I3AI5,I3AI5,3IAS3U3I0GJB4VTR7RAQ69DF5D82BM,3IAS3U3I0GJB4VTR7RAQ69DF5D82BM,271255,271255,,,,,,,,,,
,,,,5,6.487,0,28,28,538,1,a modern looking bathroom that has a retractable mirror on the side of the wall,a modern looking bathroom that has a side mirror without a retractable mirror,wolfe2,100_L_mirror,2,38,A3C59PV8Q2TV8A,2021-01-25_14h06.58.726,MetaAwareness,2020.1.2,Win32,60,3IWA71V4TJJ3DFHZ9N99X0QVE6DX6O,A3C59PV8Q2TV8A,3IAS3U3I0GJB4VTR7RAQ69DF5D82BM,I3AI5,I3AI5,3IAS3U3I0GJB4VTR7RAQ69DF5D82BM,3IAS3U3I0GJB4VTR7RAQ69DF5D82BM,271255,271255,,,,,,,,,,
,,,,5,9.688,0,29,29,514,1,living room with a mirror in place of fireplace. it has multiple candles on the shelf and there are two red candles,living room with a mirror in place of fireplace. it has multiple candles on the shelf and there is only on red candle,wolfe2,095_R_candle,5,38,A3C59PV8Q2TV8A,2021-01-25_14h06.58.726,MetaAwareness,2020.1.2,Win32,60,3IWA71V4TJJ3DFHZ9N99X0QVE6DX6O,A3C59PV8Q2TV8A,3IAS3U3I0GJB4VTR7RAQ69DF5D82BM,I3AI5,I3AI5,3IAS3U3I0GJB4VTR7RAQ69DF5D82BM,3IAS3U3I0GJB4VTR7RAQ69DF5D82BM,271255,271255,,,,,,,,,,
,,,,,,,,,,,,,,,,38,A3C59PV8Q2TV8A,2021-01-25_14h06.58.726,MetaAwareness,2020.1.2,Win32,60,3IWA71V4TJJ3DFHZ9N99X0QVE6DX6O,A3C59PV8Q2TV8A,3IAS3U3I0GJB4VTR7RAQ69DF5D82BM,I3AI5,I3AI5,3IAS3U3I0GJB4VTR7RAQ69DF5D82BM,3IAS3U3I0GJB4VTR7RAQ69DF5D82BM,271255,271255,6,13.204,someone laying underneath a blue beach umbrella on a crowded beach,someone laying underneath a blue beach umbrella on a crowded beach,same,1,8.768,members of a marching band crossing a track that all have feather plumes at the front of their hats,a cluttered and rustic looking cafe with 10 hanging lights,different
