consent_response.keys,consent_response.rt,key_resp_2.keys,key_resp_2.rt,user_resp.keys,user_resp.rt,trials.thisRepN,trials.thisTrialN,trials.thisN,trials.thisIndex,trials.ran,image_1_text,image_2_text,database,image,number,age,worker_ID,date,expName,psychopyVersion,OS,frameRate,hitId,workerId,assignmentId,a,tp_a,b,tp_b,c,tp_c,catch_same_resp.keys,catch_same_resp.rt,image_1_text_catch_same,image_2_text_catch_same,image_catch_same,catch_different_resp.keys,catch_different_resp.rt,image_1_text_catch_different,image_2_text_catch_different,image_catch_different
space,0.14886,space,59.193365,5,7.57087,0,0,0,185,1,it is a picture of a living room with shelves along the wall.,"it is a picture of a living room with shelves along the wall, including a large vase on the top shelf.",wolfe2,033_R_vase,4,32,A3FCZNB9E8K3CX,2021-01-25_12h43.03.081,MetaAwareness,2020.1.2,Win32,60,3W5PY7V3UQA41FMGY2P0PI292HNJYG,A3FCZNB9E8K3CX,36W0OB37HXHB1JZPWQT0FVQKLZWHZ9,7OW65,7OW65,36W0OB37HXHB1JZPWQT0FVQKLZWHZ9,36W0OB37HXHB1JZPWQT0FVQKLZWHZ9,271255,271255,,,,,,,,,,
,,,,3,6.074605,0,1,1,462,1,a bathroom with an outlet on the wall,a bathroom with no outlet on the wall,wolfe2,085_L_switchboard,4,32,A3FCZNB9E8K3CX,2021-01-25_12h43.03.081,MetaAwareness,2020.1.2,Win32,60,3W5PY7V3UQA41FMGY2P0PI292HNJYG,A3FCZNB9E8K3CX,36W0OB37HXHB1JZPWQT0FVQKLZWHZ9,7OW65,7OW65,36W0OB37HXHB1JZPWQT0FVQKLZWHZ9,36W0OB37HXHB1JZPWQT0FVQKLZWHZ9,271255,271255,,,,,,,,,,
,,,,5,3.352975,0,2,2,42,1,its a cool colored bathroom with everything you need and a window,"its a cool colored bathroom with everything you need, but now theres an extra cleaning product on the window sill",wolfe2,008_R_bottle,3,32,A3FCZNB9E8K3CX,2021-01-25_12h43.03.081,MetaAwareness,2020.1.2,Win32,60,3W5PY7V3UQA41FMGY2P0PI292HNJYG,A3FCZNB9E8K3CX,36W0OB37HXHB1JZPWQT0FVQKLZWHZ9,7OW65,7OW65,36W0OB37HXHB1JZPWQT0FVQKLZWHZ9,36W0OB37HXHB1JZPWQT0FVQKLZWHZ9,271255,271255,,,,,,,,,,
,,,,6,5.694635,0,3,3,676,1,room with a big open window and four chairs with a table and a vase,room with a big open window and four chars with a table,wolfe2,124_L_vase,5,32,A3FCZNB9E8K3CX,2021-01-25_12h43.03.081,MetaAwareness,2020.1.2,Win32,60,3W5PY7V3UQA41FMGY2P0PI292HNJYG,A3FCZNB9E8K3CX,36W0OB37HXHB1JZPWQT0FVQKLZWHZ9,7OW65,7OW65,36W0OB37HXHB1JZPWQT0FVQKLZWHZ9,36W0OB37HXHB1JZPWQT0FVQKLZWHZ9,271255,271255,,,,,,,,,,
,,,,5,4.17465,0,4,4,206,1,"a very clean white bathroom with a tub, a walk in shower, a toilet andfive neatly folded towels in a storage unit.","a clean white bathroom with a walk in shower, a tub, a toilet, and six neatly folded towels in a storage unit.",wolfe2,037_L_towel,4,32,A3FCZNB9E8K3CX,2021-01-25_12h43.03.081,MetaAwareness,2020.1.2,Win32,60,3W5PY7V3UQA41FMGY2P0PI292HNJYG,A3FCZNB9E8K3CX,36W0OB37HXHB1JZPWQT0FVQKLZWHZ9,7OW65,7OW65,36W0OB37HXHB1JZPWQT0FVQKLZWHZ9,36W0OB37HXHB1JZPWQT0FVQKLZWHZ9,271255,271255,,,,,,,,,,
,,,,3,6.266305,0,5,5,566,1,a kind of messy and cramped bedroom setting with some clothes on the bed including a hat.,a kind of messy and cramped bedroom setting with some clothes on the bed but no hat.,wolfe2,105_L_hat,1,32,A3FCZNB9E8K3CX,2021-01-25_12h43.03.081,MetaAwareness,2020.1.2,Win32,60,3W5PY7V3UQA41FMGY2P0PI292HNJYG,A3FCZNB9E8K3CX,36W0OB37HXHB1JZPWQT0FVQKLZWHZ9,7OW65,7OW65,36W0OB37HXHB1JZPWQT0FVQKLZWHZ9,36W0OB37HXHB1JZPWQT0FVQKLZWHZ9,271255,271255,,,,,,,,,,
,,,,3,3.252075,0,6,6,95,1,modern home living area with a glass door to the patio. it has a statue holder but no statue,modern home living area with a glass door to the patio. it has a statue holder with a statue on it.,wolfe2,016_R_art,3,32,A3FCZNB9E8K3CX,2021-01-25_12h43.03.081,MetaAwareness,2020.1.2,Win32,60,3W5PY7V3UQA41FMGY2P0PI292HNJYG,A3FCZNB9E8K3CX,36W0OB37HXHB1JZPWQT0FVQKLZWHZ9,7OW65,7OW65,36W0OB37HXHB1JZPWQT0FVQKLZWHZ9,36W0OB37HXHB1JZPWQT0FVQKLZWHZ9,271255,271255,,,,,,,,,,
,,,,3,3.819725,0,7,7,461,1,a dimly lit bathroom that has an extra outlet next to the mirror,a dimly lit bathroom that does not have an extra outlet,wolfe2,085_L_switchboard,3,32,A3FCZNB9E8K3CX,2021-01-25_12h43.03.081,MetaAwareness,2020.1.2,Win32,60,3W5PY7V3UQA41FMGY2P0PI292HNJYG,A3FCZNB9E8K3CX,36W0OB37HXHB1JZPWQT0FVQKLZWHZ9,7OW65,7OW65,36W0OB37HXHB1JZPWQT0FVQKLZWHZ9,36W0OB37HXHB1JZPWQT0FVQKLZWHZ9,271255,271255,,,,,,,,,,
,,,,4,5.074365,0,8,8,58,1,this is a picture of a bedroom. on a nightstand on the right there is one candle.,this is a picture of a bedroom. on a nightstand on the right there are two candles.,wolfe2,010_R_candle,8,32,A3FCZNB9E8K3CX,2021-01-25_12h43.03.081,MetaAwareness,2020.1.2,Win32,60,3W5PY7V3UQA41FMGY2P0PI292HNJYG,A3FCZNB9E8K3CX,36W0OB37HXHB1JZPWQT0FVQKLZWHZ9,7OW65,7OW65,36W0OB37HXHB1JZPWQT0FVQKLZWHZ9,36W0OB37HXHB1JZPWQT0FVQKLZWHZ9,271255,271255,,,,,,,,,,
,,,,4,2.50354,0,9,9,318,1,"a modern dining room set for four, with a wine glass missing from one setting",a modern dining room set for four,wolfe2,061_R_glass,1,32,A3FCZNB9E8K3CX,2021-01-25_12h43.03.081,MetaAwareness,2020.1.2,Win32,60,3W5PY7V3UQA41FMGY2P0PI292HNJYG,A3FCZNB9E8K3CX,36W0OB37HXHB1JZPWQT0FVQKLZWHZ9,7OW65,7OW65,36W0OB37HXHB1JZPWQT0FVQKLZWHZ9,36W0OB37HXHB1JZPWQT0FVQKLZWHZ9,271255,271255,,,,,,,,,,
,,,,3,4.98632,0,10,10,208,1,"a large white bathroom that has both a tub and a shower as well as a toilet and a bidet, and two brown towels on a shelf","a large white bathroom that has both a tub and a shower as well as a toilet and a bidet, and three brown towels on a shelf",wolfe2,037_R_towel,4,32,A3FCZNB9E8K3CX,2021-01-25_12h43.03.081,MetaAwareness,2020.1.2,Win32,60,3W5PY7V3UQA41FMGY2P0PI292HNJYG,A3FCZNB9E8K3CX,36W0OB37HXHB1JZPWQT0FVQKLZWHZ9,7OW65,7OW65,36W0OB37HXHB1JZPWQT0FVQKLZWHZ9,36W0OB37HXHB1JZPWQT0FVQKLZWHZ9,271255,271255,,,,,,,,,,
,,,,3,2.543985,0,11,11,480,1,a empty salon with 4 pictures hanging on the walls,an empty salon with 3 pictures hanging on the walls,wolfe2,089_L_poster,2,32,A3FCZNB9E8K3CX,2021-01-25_12h43.03.081,MetaAwareness,2020.1.2,Win32,60,3W5PY7V3UQA41FMGY2P0PI292HNJYG,A3FCZNB9E8K3CX,36W0OB37HXHB1JZPWQT0FVQKLZWHZ9,7OW65,7OW65,36W0OB37HXHB1JZPWQT0FVQKLZWHZ9,36W0OB37HXHB1JZPWQT0FVQKLZWHZ9,271255,271255,,,,,,,,,,
,,,,3,3.76973,0,12,12,205,1,a white bathroom with a brown shelf that has 5 rolled up towels,a white bathroom with a brown shelf that has 6 rolled up towels on it,wolfe2,037_L_towel,3,32,A3FCZNB9E8K3CX,2021-01-25_12h43.03.081,MetaAwareness,2020.1.2,Win32,60,3W5PY7V3UQA41FMGY2P0PI292HNJYG,A3FCZNB9E8K3CX,36W0OB37HXHB1JZPWQT0FVQKLZWHZ9,7OW65,7OW65,36W0OB37HXHB1JZPWQT0FVQKLZWHZ9,36W0OB37HXHB1JZPWQT0FVQKLZWHZ9,271255,271255,,,,,,,,,,
,,,,4,2.475005,0,13,13,277,1,a very contemporary living room with lots of books on display,a very contemporary living room with lots of books on display and a fireplace loaded with wood on the side,wolfe2,054_L_firewood,1,32,A3FCZNB9E8K3CX,2021-01-25_12h43.03.081,MetaAwareness,2020.1.2,Win32,60,3W5PY7V3UQA41FMGY2P0PI292HNJYG,A3FCZNB9E8K3CX,36W0OB37HXHB1JZPWQT0FVQKLZWHZ9,7OW65,7OW65,36W0OB37HXHB1JZPWQT0FVQKLZWHZ9,36W0OB37HXHB1JZPWQT0FVQKLZWHZ9,271255,271255,,,,,,,,,,
,,,,4,2.355625,0,14,14,243,1,a dimly lit hotel room with a glass table in the middle,a dimly lit hotel room with a glass table in the middle that has an item on top of it,wolfe2,046_L_remote,2,32,A3FCZNB9E8K3CX,2021-01-25_12h43.03.081,MetaAwareness,2020.1.2,Win32,60,3W5PY7V3UQA41FMGY2P0PI292HNJYG,A3FCZNB9E8K3CX,36W0OB37HXHB1JZPWQT0FVQKLZWHZ9,7OW65,7OW65,36W0OB37HXHB1JZPWQT0FVQKLZWHZ9,36W0OB37HXHB1JZPWQT0FVQKLZWHZ9,271255,271255,,,,,,,,,,
,,,,2,4.835945,0,15,15,519,1,a pink and white bedroom with a white radio on the pink desk,a pink a white bedroom with nothing on the pink desk,wolfe2,096_L_painting,5,32,A3FCZNB9E8K3CX,2021-01-25_12h43.03.081,MetaAwareness,2020.1.2,Win32,60,3W5PY7V3UQA41FMGY2P0PI292HNJYG,A3FCZNB9E8K3CX,36W0OB37HXHB1JZPWQT0FVQKLZWHZ9,7OW65,7OW65,36W0OB37HXHB1JZPWQT0FVQKLZWHZ9,36W0OB37HXHB1JZPWQT0FVQKLZWHZ9,271255,271255,,,,,,,,,,
,,,,3,3.344765,0,16,16,326,1,a high-class looking family room with a seat in front of the fireplace. the fireplace has nothing in it.,a high-class looking family room with a seat in front of the fireplace. the fireplace has a white object in it,wolfe2,062_R_flowers,1,32,A3FCZNB9E8K3CX,2021-01-25_12h43.03.081,MetaAwareness,2020.1.2,Win32,60,3W5PY7V3UQA41FMGY2P0PI292HNJYG,A3FCZNB9E8K3CX,36W0OB37HXHB1JZPWQT0FVQKLZWHZ9,7OW65,7OW65,36W0OB37HXHB1JZPWQT0FVQKLZWHZ9,36W0OB37HXHB1JZPWQT0FVQKLZWHZ9,271255,271255,,,,,,,,,,
,,,,4,2.644995,0,17,17,454,1,a nice living area with a patio overlooking the water and there is a wall sconce on the wall to the left of the patio door.,a nice living area with a patio overlooking the water,wolfe2,084_L_light,4,32,A3FCZNB9E8K3CX,2021-01-25_12h43.03.081,MetaAwareness,2020.1.2,Win32,60,3W5PY7V3UQA41FMGY2P0PI292HNJYG,A3FCZNB9E8K3CX,36W0OB37HXHB1JZPWQT0FVQKLZWHZ9,7OW65,7OW65,36W0OB37HXHB1JZPWQT0FVQKLZWHZ9,36W0OB37HXHB1JZPWQT0FVQKLZWHZ9,271255,271255,,,,,,,,,,
,,,,3,3.785765,0,18,18,236,1,a modern looking bathroom with a large shower and a large tub with a light on the left front side of the tub,a modern looking bathroom with a large shower and a large tub with two lights on the front of the tub,wolfe2,044_L_light,5,32,A3FCZNB9E8K3CX,2021-01-25_12h43.03.081,MetaAwareness,2020.1.2,Win32,60,3W5PY7V3UQA41FMGY2P0PI292HNJYG,A3FCZNB9E8K3CX,36W0OB37HXHB1JZPWQT0FVQKLZWHZ9,7OW65,7OW65,36W0OB37HXHB1JZPWQT0FVQKLZWHZ9,36W0OB37HXHB1JZPWQT0FVQKLZWHZ9,271255,271255,,,,,,,,,,
,,,,3,2.433455,0,19,19,378,1,old fashioned living room with black and white table lamps having a white object on the end table,old fashioned living room with black and white table lamps having a brownish colored object on the end table,wolfe2,071_L_art,3,32,A3FCZNB9E8K3CX,2021-01-25_12h43.03.081,MetaAwareness,2020.1.2,Win32,60,3W5PY7V3UQA41FMGY2P0PI292HNJYG,A3FCZNB9E8K3CX,36W0OB37HXHB1JZPWQT0FVQKLZWHZ9,7OW65,7OW65,36W0OB37HXHB1JZPWQT0FVQKLZWHZ9,36W0OB37HXHB1JZPWQT0FVQKLZWHZ9,271255,271255,,,,,,,,,,
,,,,3,1.792645,0,20,20,668,1,a bright sunroom with a scenic view that has 17 potted plants inside around the jacuzzi.,a bright sunroom with a scenic view that has 16 potted plants inside around the jacuzzi.,wolfe2,123_L_pot,2,32,A3FCZNB9E8K3CX,2021-01-25_12h43.03.081,MetaAwareness,2020.1.2,Win32,60,3W5PY7V3UQA41FMGY2P0PI292HNJYG,A3FCZNB9E8K3CX,36W0OB37HXHB1JZPWQT0FVQKLZWHZ9,7OW65,7OW65,36W0OB37HXHB1JZPWQT0FVQKLZWHZ9,36W0OB37HXHB1JZPWQT0FVQKLZWHZ9,271255,271255,,,,,,,,,,
,,,,4,3.651275,0,21,21,661,1,a modern bedroom with a nightstand that has a red lamp and a black toy car,a modern bedroom with a nightstand that has a red lamp,wolfe2,121_R_car,4,32,A3FCZNB9E8K3CX,2021-01-25_12h43.03.081,MetaAwareness,2020.1.2,Win32,60,3W5PY7V3UQA41FMGY2P0PI292HNJYG,A3FCZNB9E8K3CX,36W0OB37HXHB1JZPWQT0FVQKLZWHZ9,7OW65,7OW65,36W0OB37HXHB1JZPWQT0FVQKLZWHZ9,36W0OB37HXHB1JZPWQT0FVQKLZWHZ9,271255,271255,,,,,,,,,,
,,,,3,2.30314,0,22,22,69,1,a big room with with one hanging bulb handle,a big room with two hanging bulb handles,wolfe2,013_L_lamp,3,32,A3FCZNB9E8K3CX,2021-01-25_12h43.03.081,MetaAwareness,2020.1.2,Win32,60,3W5PY7V3UQA41FMGY2P0PI292HNJYG,A3FCZNB9E8K3CX,36W0OB37HXHB1JZPWQT0FVQKLZWHZ9,7OW65,7OW65,36W0OB37HXHB1JZPWQT0FVQKLZWHZ9,36W0OB37HXHB1JZPWQT0FVQKLZWHZ9,271255,271255,,,,,,,,,,
,,,,1,6.01752,0,23,23,337,1,an olive colored wall in a well decorated dining room,a brown jug sitting on a brown dresser,wolfe2,064_L_bottles,2,32,A3FCZNB9E8K3CX,2021-01-25_12h43.03.081,MetaAwareness,2020.1.2,Win32,60,3W5PY7V3UQA41FMGY2P0PI292HNJYG,A3FCZNB9E8K3CX,36W0OB37HXHB1JZPWQT0FVQKLZWHZ9,7OW65,7OW65,36W0OB37HXHB1JZPWQT0FVQKLZWHZ9,36W0OB37HXHB1JZPWQT0FVQKLZWHZ9,271255,271255,,,,,,,,,,
,,,,3,2.573895,0,24,24,652,1,a contemporary family living room with a beige decoration and a pink plant on top of the fireplace.,a contemporary family living room with a pink plant on top of the fireplace,wolfe2,120_R_art,2,32,A3FCZNB9E8K3CX,2021-01-25_12h43.03.081,MetaAwareness,2020.1.2,Win32,60,3W5PY7V3UQA41FMGY2P0PI292HNJYG,A3FCZNB9E8K3CX,36W0OB37HXHB1JZPWQT0FVQKLZWHZ9,7OW65,7OW65,36W0OB37HXHB1JZPWQT0FVQKLZWHZ9,36W0OB37HXHB1JZPWQT0FVQKLZWHZ9,271255,271255,,,,,,,,,,
,,,,3,2.363025,0,25,25,540,1,a bathroom with dark accents that has a magnifyer mirror on the right side of the sink area below the shelf,a bathroom with dark accents that has only a shelf area on the right side of the sink area,wolfe2,100_R_mirror,1,32,A3FCZNB9E8K3CX,2021-01-25_12h43.03.081,MetaAwareness,2020.1.2,Win32,60,3W5PY7V3UQA41FMGY2P0PI292HNJYG,A3FCZNB9E8K3CX,36W0OB37HXHB1JZPWQT0FVQKLZWHZ9,7OW65,7OW65,36W0OB37HXHB1JZPWQT0FVQKLZWHZ9,36W0OB37HXHB1JZPWQT0FVQKLZWHZ9,271255,271255,,,,,,,,,,
,,,,3,3.91964,0,26,26,344,1,an office bedroom that has less books above the chair,an office bedroom that has more books displayed above the chair,wolfe2,065_R_cd,1,32,A3FCZNB9E8K3CX,2021-01-25_12h43.03.081,MetaAwareness,2020.1.2,Win32,60,3W5PY7V3UQA41FMGY2P0PI292HNJYG,A3FCZNB9E8K3CX,36W0OB37HXHB1JZPWQT0FVQKLZWHZ9,7OW65,7OW65,36W0OB37HXHB1JZPWQT0FVQKLZWHZ9,36W0OB37HXHB1JZPWQT0FVQKLZWHZ9,271255,271255,,,,,,,,,,
,,,,4,3.5219,0,27,27,384,1,black and cream bedroom with bottom left handle missing off 6-drawer dresser,black and cream bedroom with all handles on the 6-drawer dresser,wolfe2,072_L_handle,1,32,A3FCZNB9E8K3CX,2021-01-25_12h43.03.081,MetaAwareness,2020.1.2,Win32,60,3W5PY7V3UQA41FMGY2P0PI292HNJYG,A3FCZNB9E8K3CX,36W0OB37HXHB1JZPWQT0FVQKLZWHZ9,7OW65,7OW65,36W0OB37HXHB1JZPWQT0FVQKLZWHZ9,36W0OB37HXHB1JZPWQT0FVQKLZWHZ9,271255,271255,,,,,,,,,,
,,,,4,2.16007,0,28,28,176,1,retro bathroom,retro bathroom with circular shelves. the shelves have tolietries,wolfe2,032_L_bottle,4,32,A3FCZNB9E8K3CX,2021-01-25_12h43.03.081,MetaAwareness,2020.1.2,Win32,60,3W5PY7V3UQA41FMGY2P0PI292HNJYG,A3FCZNB9E8K3CX,36W0OB37HXHB1JZPWQT0FVQKLZWHZ9,7OW65,7OW65,36W0OB37HXHB1JZPWQT0FVQKLZWHZ9,36W0OB37HXHB1JZPWQT0FVQKLZWHZ9,271255,271255,,,,,,,,,,
,,,,3,2.588875,0,29,29,300,1,a colorful child's room decorated in purples and pinks with three objects on the fuzzy top table.,a colorful child's room decorated in purples and pinks with four objects on the fuzzy top table.,wolfe2,058_L_clutch,1,32,A3FCZNB9E8K3CX,2021-01-25_12h43.03.081,MetaAwareness,2020.1.2,Win32,60,3W5PY7V3UQA41FMGY2P0PI292HNJYG,A3FCZNB9E8K3CX,36W0OB37HXHB1JZPWQT0FVQKLZWHZ9,7OW65,7OW65,36W0OB37HXHB1JZPWQT0FVQKLZWHZ9,36W0OB37HXHB1JZPWQT0FVQKLZWHZ9,271255,271255,,,,,,,,,,
,,,,,,,,,,,,,,,,32,A3FCZNB9E8K3CX,2021-01-25_12h43.03.081,MetaAwareness,2020.1.2,Win32,60,3W5PY7V3UQA41FMGY2P0PI292HNJYG,A3FCZNB9E8K3CX,36W0OB37HXHB1JZPWQT0FVQKLZWHZ9,7OW65,7OW65,36W0OB37HXHB1JZPWQT0FVQKLZWHZ9,36W0OB37HXHB1JZPWQT0FVQKLZWHZ9,271255,271255,6,7.67361,someone laying underneath a blue beach umbrella on a crowded beach,someone laying underneath a blue beach umbrella on a crowded beach,same,2,3.824455,members of a marching band crossing a track that all have feather plumes at the front of their hats,a cluttered and rustic looking cafe with 10 hanging lights,different
