consent_response.keys,consent_response.rt,key_resp_2.keys,key_resp_2.rt,user_resp.keys,user_resp.rt,trials.thisRepN,trials.thisTrialN,trials.thisN,trials.thisIndex,trials.ran,image_1_text,image_2_text,database,image,number,age,worker_ID,date,expName,psychopyVersion,OS,frameRate,hitId,workerId,assignmentId,a,tp_a,b,tp_b,c,tp_c,catch_same_resp.keys,catch_same_resp.rt,image_1_text_catch_same,image_2_text_catch_same,image_catch_same,catch_different_resp.keys,catch_different_resp.rt,image_1_text_catch_different,image_2_text_catch_different,image_catch_different
space,27.323045,space,18.750345,5,29.94427,0,0,0,198,1,"a bedroom with some tables and a couple of lamps, and a long table with two vases on it","a bedroom with some tables and a couple of lamps, and a long table with two vases and a small art object on it",wolfe2,035_R_fruit,4,67,A3KXJBKUEMNZV7,2021-01-25_12h52.09.776,MetaAwareness,2020.1.2,Linux x86_64,60,3UY4PIS8QSO3UZ2Y1BAJ428G4GG1N1,A3KXJBKUEMNZV7,3K5TEWLKGWEUOU5Z1BMIU1E3X0SIVO,KE5K5,KE5K5,3K5TEWLKGWEUOU5Z1BMIU1E3X0SIVO,3K5TEWLKGWEUOU5Z1BMIU1E3X0SIVO,271255,271255,,,,,,,,,,
,,,,3,24.77212,0,1,1,693,1,a bright and luminary living room with two lamps on the right and left side of the room with also a glass window overlooking the pool,a bright and luminary living room with only one lamp on the right side of the room with a glass window overlooking the pool,wolfe2,127_L_light,2,67,A3KXJBKUEMNZV7,2021-01-25_12h52.09.776,MetaAwareness,2020.1.2,Linux x86_64,60,3UY4PIS8QSO3UZ2Y1BAJ428G4GG1N1,A3KXJBKUEMNZV7,3K5TEWLKGWEUOU5Z1BMIU1E3X0SIVO,KE5K5,KE5K5,3K5TEWLKGWEUOU5Z1BMIU1E3X0SIVO,3K5TEWLKGWEUOU5Z1BMIU1E3X0SIVO,271255,271255,,,,,,,,,,
,,,,3,18.158355,0,2,2,641,1,this is a picture of a sitting room. there is a pair of shoes next to a potted plant.,this is a picture of a sitting room. there is only a potted plant on the right.,wolfe2,118_R_shoes,6,67,A3KXJBKUEMNZV7,2021-01-25_12h52.09.776,MetaAwareness,2020.1.2,Linux x86_64,60,3UY4PIS8QSO3UZ2Y1BAJ428G4GG1N1,A3KXJBKUEMNZV7,3K5TEWLKGWEUOU5Z1BMIU1E3X0SIVO,KE5K5,KE5K5,3K5TEWLKGWEUOU5Z1BMIU1E3X0SIVO,3K5TEWLKGWEUOU5Z1BMIU1E3X0SIVO,271255,271255,,,,,,,,,,
,,,,3,14.394395,0,3,3,41,1,a bathroom that has a window with white blinds with what appears to be glass cleaner on the ledge,a bathroom that has a window with white blinds and there are 2 bottles on the window ledge,wolfe2,008_L_bottle,4,67,A3KXJBKUEMNZV7,2021-01-25_12h52.09.776,MetaAwareness,2020.1.2,Linux x86_64,60,3UY4PIS8QSO3UZ2Y1BAJ428G4GG1N1,A3KXJBKUEMNZV7,3K5TEWLKGWEUOU5Z1BMIU1E3X0SIVO,KE5K5,KE5K5,3K5TEWLKGWEUOU5Z1BMIU1E3X0SIVO,3K5TEWLKGWEUOU5Z1BMIU1E3X0SIVO,271255,271255,,,,,,,,,,
,,,,3,12.16442,0,4,4,70,1,a high end modern living room with a single hanging light,a high end modern living room with two hanging lights,wolfe2,013_L_lamp,4,67,A3KXJBKUEMNZV7,2021-01-25_12h52.09.776,MetaAwareness,2020.1.2,Linux x86_64,60,3UY4PIS8QSO3UZ2Y1BAJ428G4GG1N1,A3KXJBKUEMNZV7,3K5TEWLKGWEUOU5Z1BMIU1E3X0SIVO,KE5K5,KE5K5,3K5TEWLKGWEUOU5Z1BMIU1E3X0SIVO,3K5TEWLKGWEUOU5Z1BMIU1E3X0SIVO,271255,271255,,,,,,,,,,
,,,,2,19.130155,0,5,5,506,1,a nice hotel room with double beds and there are wall outlets on the right side and in the middle of the beds,a nice hotel room with double beds and there is a wall outlet on the right side of the beds,wolfe2,093_L_switch,5,67,A3KXJBKUEMNZV7,2021-01-25_12h52.09.776,MetaAwareness,2020.1.2,Linux x86_64,60,3UY4PIS8QSO3UZ2Y1BAJ428G4GG1N1,A3KXJBKUEMNZV7,3K5TEWLKGWEUOU5Z1BMIU1E3X0SIVO,KE5K5,KE5K5,3K5TEWLKGWEUOU5Z1BMIU1E3X0SIVO,3K5TEWLKGWEUOU5Z1BMIU1E3X0SIVO,271255,271255,,,,,,,,,,
,,,,2,10.44858,0,6,6,257,1,a very elegant bedroom witha mirrored closet and nothing hanging near the closet doors.,a very elegant bedroom with a mirrored closet and a framed picture hanging to the left of the closet doors.,wolfe2,049_L_painting,2,67,A3KXJBKUEMNZV7,2021-01-25_12h52.09.776,MetaAwareness,2020.1.2,Linux x86_64,60,3UY4PIS8QSO3UZ2Y1BAJ428G4GG1N1,A3KXJBKUEMNZV7,3K5TEWLKGWEUOU5Z1BMIU1E3X0SIVO,KE5K5,KE5K5,3K5TEWLKGWEUOU5Z1BMIU1E3X0SIVO,3K5TEWLKGWEUOU5Z1BMIU1E3X0SIVO,271255,271255,,,,,,,,,,
,,,,2,5.861995,0,7,7,328,1,a soft living room with an empty fireplace,a soft living room with a decorative item inthe fireplace,wolfe2,062_R_flowers,4,67,A3KXJBKUEMNZV7,2021-01-25_12h52.09.776,MetaAwareness,2020.1.2,Linux x86_64,60,3UY4PIS8QSO3UZ2Y1BAJ428G4GG1N1,A3KXJBKUEMNZV7,3K5TEWLKGWEUOU5Z1BMIU1E3X0SIVO,KE5K5,KE5K5,3K5TEWLKGWEUOU5Z1BMIU1E3X0SIVO,3K5TEWLKGWEUOU5Z1BMIU1E3X0SIVO,271255,271255,,,,,,,,,,
,,,,1,5.802235,0,8,8,35,1,there is nothing by the lamp,there is a vase near the lamp,wolfe2,006_R_vase,3,67,A3KXJBKUEMNZV7,2021-01-25_12h52.09.776,MetaAwareness,2020.1.2,Linux x86_64,60,3UY4PIS8QSO3UZ2Y1BAJ428G4GG1N1,A3KXJBKUEMNZV7,3K5TEWLKGWEUOU5Z1BMIU1E3X0SIVO,KE5K5,KE5K5,3K5TEWLKGWEUOU5Z1BMIU1E3X0SIVO,3K5TEWLKGWEUOU5Z1BMIU1E3X0SIVO,271255,271255,,,,,,,,,,
,,,,2,8.84676,0,9,9,502,1,a living room  with huge sofasets and a fireplace that has containers,a living room with huge sofasets and a fireplace without containers,wolfe2,092_L_candles,3,67,A3KXJBKUEMNZV7,2021-01-25_12h52.09.776,MetaAwareness,2020.1.2,Linux x86_64,60,3UY4PIS8QSO3UZ2Y1BAJ428G4GG1N1,A3KXJBKUEMNZV7,3K5TEWLKGWEUOU5Z1BMIU1E3X0SIVO,KE5K5,KE5K5,3K5TEWLKGWEUOU5Z1BMIU1E3X0SIVO,3K5TEWLKGWEUOU5Z1BMIU1E3X0SIVO,271255,271255,,,,,,,,,,
,,,,2,18.810655,0,10,10,644,1,a nice tiled sitting room with a piano and a lovely seating area with what appears to be leather furniture.,"this lovely tiled sitting room has a piano underneath a painting, and nice leather seats in the middle of the room. at  the back, by the sliding glass doors, is another piece of art, for collectibles.",wolfe2,119_L_painting,4,67,A3KXJBKUEMNZV7,2021-01-25_12h52.09.776,MetaAwareness,2020.1.2,Linux x86_64,60,3UY4PIS8QSO3UZ2Y1BAJ428G4GG1N1,A3KXJBKUEMNZV7,3K5TEWLKGWEUOU5Z1BMIU1E3X0SIVO,KE5K5,KE5K5,3K5TEWLKGWEUOU5Z1BMIU1E3X0SIVO,3K5TEWLKGWEUOU5Z1BMIU1E3X0SIVO,271255,271255,,,,,,,,,,
,,,,2,36.195015,0,11,11,602,1,a house witha few of the backyard with pool. small plant in the corner of the room,a house with a view of the backyard with a pool. no plant in the corner of the room,wolfe2,110_R_plant,5,67,A3KXJBKUEMNZV7,2021-01-25_12h52.09.776,MetaAwareness,2020.1.2,Linux x86_64,60,3UY4PIS8QSO3UZ2Y1BAJ428G4GG1N1,A3KXJBKUEMNZV7,3K5TEWLKGWEUOU5Z1BMIU1E3X0SIVO,KE5K5,KE5K5,3K5TEWLKGWEUOU5Z1BMIU1E3X0SIVO,3K5TEWLKGWEUOU5Z1BMIU1E3X0SIVO,271255,271255,,,,,,,,,,
,,,,4,20.12462,0,12,12,325,1,"a quaint living room with two mirrors, a tiny table in the middle, and a foot rest","a quaint living with two mirrors, a tiny table in the middle, and a foot rest with a tan colored aparatus on it",wolfe2,062_L_flowers,4,67,A3KXJBKUEMNZV7,2021-01-25_12h52.09.776,MetaAwareness,2020.1.2,Linux x86_64,60,3UY4PIS8QSO3UZ2Y1BAJ428G4GG1N1,A3KXJBKUEMNZV7,3K5TEWLKGWEUOU5Z1BMIU1E3X0SIVO,KE5K5,KE5K5,3K5TEWLKGWEUOU5Z1BMIU1E3X0SIVO,3K5TEWLKGWEUOU5Z1BMIU1E3X0SIVO,271255,271255,,,,,,,,,,
,,,,2,10.2726,0,13,13,580,1,a bathroom with a hanging towel dispencer,a bathroom,wolfe2,106_R_toweldispenser,5,67,A3KXJBKUEMNZV7,2021-01-25_12h52.09.776,MetaAwareness,2020.1.2,Linux x86_64,60,3UY4PIS8QSO3UZ2Y1BAJ428G4GG1N1,A3KXJBKUEMNZV7,3K5TEWLKGWEUOU5Z1BMIU1E3X0SIVO,KE5K5,KE5K5,3K5TEWLKGWEUOU5Z1BMIU1E3X0SIVO,3K5TEWLKGWEUOU5Z1BMIU1E3X0SIVO,271255,271255,,,,,,,,,,
,,,,4,10.46672,0,14,14,492,1,a relaxing bedroom that is colored mostly red with a lamp in the corner.,a relaxing bedroom that is colored mostly red.,wolfe2,090_R_lamp,4,67,A3KXJBKUEMNZV7,2021-01-25_12h52.09.776,MetaAwareness,2020.1.2,Linux x86_64,60,3UY4PIS8QSO3UZ2Y1BAJ428G4GG1N1,A3KXJBKUEMNZV7,3K5TEWLKGWEUOU5Z1BMIU1E3X0SIVO,KE5K5,KE5K5,3K5TEWLKGWEUOU5Z1BMIU1E3X0SIVO,3K5TEWLKGWEUOU5Z1BMIU1E3X0SIVO,271255,271255,,,,,,,,,,
,,,,1,13.329095,0,15,15,264,1,the cream colored walls match the fireplace,the bottle of perfume sits next to the picture frame of the soon to be divorced newlywed couple on top of the fireplace,wolfe2,051_R_owl,2,67,A3KXJBKUEMNZV7,2021-01-25_12h52.09.776,MetaAwareness,2020.1.2,Linux x86_64,60,3UY4PIS8QSO3UZ2Y1BAJ428G4GG1N1,A3KXJBKUEMNZV7,3K5TEWLKGWEUOU5Z1BMIU1E3X0SIVO,KE5K5,KE5K5,3K5TEWLKGWEUOU5Z1BMIU1E3X0SIVO,3K5TEWLKGWEUOU5Z1BMIU1E3X0SIVO,271255,271255,,,,,,,,,,
,,,,4,6.93893,0,16,16,174,1,a bathroom with a soap dispenser on the wall,a bathroom with 2 soap dispensers on the wall,wolfe2,032_L_bottle,1,67,A3KXJBKUEMNZV7,2021-01-25_12h52.09.776,MetaAwareness,2020.1.2,Linux x86_64,60,3UY4PIS8QSO3UZ2Y1BAJ428G4GG1N1,A3KXJBKUEMNZV7,3K5TEWLKGWEUOU5Z1BMIU1E3X0SIVO,KE5K5,KE5K5,3K5TEWLKGWEUOU5Z1BMIU1E3X0SIVO,3K5TEWLKGWEUOU5Z1BMIU1E3X0SIVO,271255,271255,,,,,,,,,,
,,,,3,9.479465,0,17,17,552,1,a contemporary space with a box under the center window,a contemporary space with nothing under the center window,wolfe2,102_R_shoppingbag,1,67,A3KXJBKUEMNZV7,2021-01-25_12h52.09.776,MetaAwareness,2020.1.2,Linux x86_64,60,3UY4PIS8QSO3UZ2Y1BAJ428G4GG1N1,A3KXJBKUEMNZV7,3K5TEWLKGWEUOU5Z1BMIU1E3X0SIVO,KE5K5,KE5K5,3K5TEWLKGWEUOU5Z1BMIU1E3X0SIVO,3K5TEWLKGWEUOU5Z1BMIU1E3X0SIVO,271255,271255,,,,,,,,,,
,,,,3,6.215375,0,18,18,481,1,a hair salon with three pictures of women.,a hair salon with two pictures of women.,wolfe2,089_L_poster,5,67,A3KXJBKUEMNZV7,2021-01-25_12h52.09.776,MetaAwareness,2020.1.2,Linux x86_64,60,3UY4PIS8QSO3UZ2Y1BAJ428G4GG1N1,A3KXJBKUEMNZV7,3K5TEWLKGWEUOU5Z1BMIU1E3X0SIVO,KE5K5,KE5K5,3K5TEWLKGWEUOU5Z1BMIU1E3X0SIVO,3K5TEWLKGWEUOU5Z1BMIU1E3X0SIVO,271255,271255,,,,,,,,,,
,,,,3,8.90439,0,19,19,112,1,a clean looking office area with 2 circle patterns on the wall.,a clean looking office area with 3 circle patterns on the wall.,wolfe2,020_R_walldeco,2,67,A3KXJBKUEMNZV7,2021-01-25_12h52.09.776,MetaAwareness,2020.1.2,Linux x86_64,60,3UY4PIS8QSO3UZ2Y1BAJ428G4GG1N1,A3KXJBKUEMNZV7,3K5TEWLKGWEUOU5Z1BMIU1E3X0SIVO,KE5K5,KE5K5,3K5TEWLKGWEUOU5Z1BMIU1E3X0SIVO,3K5TEWLKGWEUOU5Z1BMIU1E3X0SIVO,271255,271255,,,,,,,,,,
,,,,4,30.154415,0,20,20,450,1,"a child's bedroom with a bunkbed, small green chair, square white table, shelves, and a chest of drawers including two blue drawers, one of which is missing a knob","a child's bedroom with a bunkbed, small green chair, square white table, shelves, and a chest of drawers including two blue drawers that both have knobs",wolfe2,083_R_knob,3,67,A3KXJBKUEMNZV7,2021-01-25_12h52.09.776,MetaAwareness,2020.1.2,Linux x86_64,60,3UY4PIS8QSO3UZ2Y1BAJ428G4GG1N1,A3KXJBKUEMNZV7,3K5TEWLKGWEUOU5Z1BMIU1E3X0SIVO,KE5K5,KE5K5,3K5TEWLKGWEUOU5Z1BMIU1E3X0SIVO,3K5TEWLKGWEUOU5Z1BMIU1E3X0SIVO,271255,271255,,,,,,,,,,
,,,,2,26.266605,0,21,21,565,1,a rustic looking cafe with a table that has a vase and flowers,a rustic looking cafe with tables that don't have a vase or flowers on them,wolfe2,104_R_bottle,4,67,A3KXJBKUEMNZV7,2021-01-25_12h52.09.776,MetaAwareness,2020.1.2,Linux x86_64,60,3UY4PIS8QSO3UZ2Y1BAJ428G4GG1N1,A3KXJBKUEMNZV7,3K5TEWLKGWEUOU5Z1BMIU1E3X0SIVO,KE5K5,KE5K5,3K5TEWLKGWEUOU5Z1BMIU1E3X0SIVO,3K5TEWLKGWEUOU5Z1BMIU1E3X0SIVO,271255,271255,,,,,,,,,,
,,,,3,7.81089,0,22,22,125,1,nice kitchen with an island. the island has two hanging lights above it,nice kitchen with an island. the island has three hanging lights above it,wolfe2,022_R_lamp,5,67,A3KXJBKUEMNZV7,2021-01-25_12h52.09.776,MetaAwareness,2020.1.2,Linux x86_64,60,3UY4PIS8QSO3UZ2Y1BAJ428G4GG1N1,A3KXJBKUEMNZV7,3K5TEWLKGWEUOU5Z1BMIU1E3X0SIVO,KE5K5,KE5K5,3K5TEWLKGWEUOU5Z1BMIU1E3X0SIVO,3K5TEWLKGWEUOU5Z1BMIU1E3X0SIVO,271255,271255,,,,,,,,,,
,,,,3,15.052085,0,23,23,547,1,a cluttered bathroom with many mirrors and a red glass on a shelf near the sink,a cluttered bathroom with many mirrors and two tall glasses on a shelf near the sink,wolfe2,101_R_cup,1,67,A3KXJBKUEMNZV7,2021-01-25_12h52.09.776,MetaAwareness,2020.1.2,Linux x86_64,60,3UY4PIS8QSO3UZ2Y1BAJ428G4GG1N1,A3KXJBKUEMNZV7,3K5TEWLKGWEUOU5Z1BMIU1E3X0SIVO,KE5K5,KE5K5,3K5TEWLKGWEUOU5Z1BMIU1E3X0SIVO,3K5TEWLKGWEUOU5Z1BMIU1E3X0SIVO,271255,271255,,,,,,,,,,
,,,,2,15.745025,0,24,24,104,1,an outside living space with chairs and a stained glass window.,an outside living space with a deck and chairs and a plant on the far edge.,wolfe2,018_R_plant,4,67,A3KXJBKUEMNZV7,2021-01-25_12h52.09.776,MetaAwareness,2020.1.2,Linux x86_64,60,3UY4PIS8QSO3UZ2Y1BAJ428G4GG1N1,A3KXJBKUEMNZV7,3K5TEWLKGWEUOU5Z1BMIU1E3X0SIVO,KE5K5,KE5K5,3K5TEWLKGWEUOU5Z1BMIU1E3X0SIVO,3K5TEWLKGWEUOU5Z1BMIU1E3X0SIVO,271255,271255,,,,,,,,,,
,,,,3,6.057745,0,25,25,456,1,beach home with beige walls,beach home with beige wall and latern type lighting,wolfe2,084_R_light,1,67,A3KXJBKUEMNZV7,2021-01-25_12h52.09.776,MetaAwareness,2020.1.2,Linux x86_64,60,3UY4PIS8QSO3UZ2Y1BAJ428G4GG1N1,A3KXJBKUEMNZV7,3K5TEWLKGWEUOU5Z1BMIU1E3X0SIVO,KE5K5,KE5K5,3K5TEWLKGWEUOU5Z1BMIU1E3X0SIVO,3K5TEWLKGWEUOU5Z1BMIU1E3X0SIVO,271255,271255,,,,,,,,,,
,,,,2,4.21499,0,26,26,696,1,a living room with two wall lights,a living room with one wall light,wolfe2,127_L_light,6,67,A3KXJBKUEMNZV7,2021-01-25_12h52.09.776,MetaAwareness,2020.1.2,Linux x86_64,60,3UY4PIS8QSO3UZ2Y1BAJ428G4GG1N1,A3KXJBKUEMNZV7,3K5TEWLKGWEUOU5Z1BMIU1E3X0SIVO,KE5K5,KE5K5,3K5TEWLKGWEUOU5Z1BMIU1E3X0SIVO,3K5TEWLKGWEUOU5Z1BMIU1E3X0SIVO,271255,271255,,,,,,,,,,
,,,,4,11.4772,0,27,27,584,1,a very clean dressing room.  there is a rack at the end that has some clothes hanging from it,a clean dressing room with a rack at the end and there are some clothes hanging from it.,wolfe2,107_L_shirts,3,67,A3KXJBKUEMNZV7,2021-01-25_12h52.09.776,MetaAwareness,2020.1.2,Linux x86_64,60,3UY4PIS8QSO3UZ2Y1BAJ428G4GG1N1,A3KXJBKUEMNZV7,3K5TEWLKGWEUOU5Z1BMIU1E3X0SIVO,KE5K5,KE5K5,3K5TEWLKGWEUOU5Z1BMIU1E3X0SIVO,3K5TEWLKGWEUOU5Z1BMIU1E3X0SIVO,271255,271255,,,,,,,,,,
,,,,2,14.541025,0,28,28,636,1,an old and rustic wooden room with shoes on a mat on the floor,an old and rustic wooden room without shoes on a mat on the floor,wolfe2,118_L_shoes,5,67,A3KXJBKUEMNZV7,2021-01-25_12h52.09.776,MetaAwareness,2020.1.2,Linux x86_64,60,3UY4PIS8QSO3UZ2Y1BAJ428G4GG1N1,A3KXJBKUEMNZV7,3K5TEWLKGWEUOU5Z1BMIU1E3X0SIVO,KE5K5,KE5K5,3K5TEWLKGWEUOU5Z1BMIU1E3X0SIVO,3K5TEWLKGWEUOU5Z1BMIU1E3X0SIVO,271255,271255,,,,,,,,,,
,,,,4,32.204875,0,29,29,23,1,a hotel room with a view of the city and landscape,"a hotel room with a view of the city, landscape and tower in the distance",wolfe2,004_R_electricalgrid,4,67,A3KXJBKUEMNZV7,2021-01-25_12h52.09.776,MetaAwareness,2020.1.2,Linux x86_64,60,3UY4PIS8QSO3UZ2Y1BAJ428G4GG1N1,A3KXJBKUEMNZV7,3K5TEWLKGWEUOU5Z1BMIU1E3X0SIVO,KE5K5,KE5K5,3K5TEWLKGWEUOU5Z1BMIU1E3X0SIVO,3K5TEWLKGWEUOU5Z1BMIU1E3X0SIVO,271255,271255,,,,,,,,,,
,,,,,,,,,,,,,,,,67,A3KXJBKUEMNZV7,2021-01-25_12h52.09.776,MetaAwareness,2020.1.2,Linux x86_64,60,3UY4PIS8QSO3UZ2Y1BAJ428G4GG1N1,A3KXJBKUEMNZV7,3K5TEWLKGWEUOU5Z1BMIU1E3X0SIVO,KE5K5,KE5K5,3K5TEWLKGWEUOU5Z1BMIU1E3X0SIVO,3K5TEWLKGWEUOU5Z1BMIU1E3X0SIVO,271255,271255,6,11.75884,someone laying underneath a blue beach umbrella on a crowded beach,someone laying underneath a blue beach umbrella on a crowded beach,same,1,13.445905,members of a marching band crossing a track that all have feather plumes at the front of their hats,a cluttered and rustic looking cafe with 10 hanging lights,different
