consent_response.keys,consent_response.rt,key_resp_2.keys,key_resp_2.rt,user_resp.keys,user_resp.rt,trials.thisRepN,trials.thisTrialN,trials.thisN,trials.thisIndex,trials.ran,image_1_text,image_2_text,database,image,number,age,worker_ID,date,expName,psychopyVersion,OS,frameRate,hitId,workerId,assignmentId,a,tp_a,b,tp_b,c,tp_c,catch_same_resp.keys,catch_same_resp.rt,image_1_text_catch_same,image_2_text_catch_same,image_catch_same,catch_different_resp.keys,catch_different_resp.rt,image_1_text_catch_different,image_2_text_catch_different,image_catch_different
space,6.706,space,18.213,2,12.909,0,0,0,256,1,a grand bedroom with stripped wallpaper,a grand bedroom with a vase to the right of the sofa,wolfe2,048_R_art,4,33,A3MKF1HE4UG4KM,2021-01-25_14h31.12.675,MetaAwareness,2020.1.2,MacIntel,60,3W5PY7V3UQA41FMGY2P0PI292HNJYG,A3MKF1HE4UG4KM,3F0BG9B9MQQE34J8NV55ABSO12W7Y6,9G0F5,9G0F5,3F0BG9B9MQQE34J8NV55ABSO12W7Y6,3F0BG9B9MQQE34J8NV55ABSO12W7Y6,271255,271255,,,,,,,,,,
,,,,5,12.391,0,1,1,240,1,"a bedroom with yellow carpeting and walls, and an empty black table next to the bed","a bedroom with yellow carpeting and walls, and several electronic devices on a black table next to the bed",wolfe2,045_L_musicdock,2,33,A3MKF1HE4UG4KM,2021-01-25_14h31.12.675,MetaAwareness,2020.1.2,MacIntel,60,3W5PY7V3UQA41FMGY2P0PI292HNJYG,A3MKF1HE4UG4KM,3F0BG9B9MQQE34J8NV55ABSO12W7Y6,9G0F5,9G0F5,3F0BG9B9MQQE34J8NV55ABSO12W7Y6,3F0BG9B9MQQE34J8NV55ABSO12W7Y6,271255,271255,,,,,,,,,,
,,,,5,7.608,0,2,2,149,1,"a bathroom containing a shower, toilet, sink, counter, and one shelf on the wall","a bathroom containing a shower, toilet, sink, counter, and two shelves on the wall",wolfe2,026_R_rack,4,33,A3MKF1HE4UG4KM,2021-01-25_14h31.12.675,MetaAwareness,2020.1.2,MacIntel,60,3W5PY7V3UQA41FMGY2P0PI292HNJYG,A3MKF1HE4UG4KM,3F0BG9B9MQQE34J8NV55ABSO12W7Y6,9G0F5,9G0F5,3F0BG9B9MQQE34J8NV55ABSO12W7Y6,3F0BG9B9MQQE34J8NV55ABSO12W7Y6,271255,271255,,,,,,,,,,
,,,,5,8.245,0,3,3,539,1,"a bathroom that has a long mirror, a large sink with two faucets and a mirror attached to the left","a bathroom that has a long mirror, a large sink with two faucets and a bare wall on the left",wolfe2,100_L_mirror,4,33,A3MKF1HE4UG4KM,2021-01-25_14h31.12.675,MetaAwareness,2020.1.2,MacIntel,60,3W5PY7V3UQA41FMGY2P0PI292HNJYG,A3MKF1HE4UG4KM,3F0BG9B9MQQE34J8NV55ABSO12W7Y6,9G0F5,9G0F5,3F0BG9B9MQQE34J8NV55ABSO12W7Y6,3F0BG9B9MQQE34J8NV55ABSO12W7Y6,271255,271255,,,,,,,,,,
,,,,6,6.571,0,4,4,588,1,"a dressing room with 4 large mirrors, a stool, and a clothing rack with clothes on it.","a dressing room with 4 large mirrors, a stool, and a clothing rack with some clothes on it.",wolfe2,107_R_shirts,2,33,A3MKF1HE4UG4KM,2021-01-25_14h31.12.675,MetaAwareness,2020.1.2,MacIntel,60,3W5PY7V3UQA41FMGY2P0PI292HNJYG,A3MKF1HE4UG4KM,3F0BG9B9MQQE34J8NV55ABSO12W7Y6,9G0F5,9G0F5,3F0BG9B9MQQE34J8NV55ABSO12W7Y6,3F0BG9B9MQQE34J8NV55ABSO12W7Y6,271255,271255,,,,,,,,,,
,,,,5,6.055,0,5,5,173,1,"a simple and spacious looking room with lots of seating, many windows and one beam on the ceiling","a simple and spacious looking room with lots of seating, many windows and two beams on the ceiling",wolfe2,031_R_log,5,33,A3MKF1HE4UG4KM,2021-01-25_14h31.12.675,MetaAwareness,2020.1.2,MacIntel,60,3W5PY7V3UQA41FMGY2P0PI292HNJYG,A3MKF1HE4UG4KM,3F0BG9B9MQQE34J8NV55ABSO12W7Y6,9G0F5,9G0F5,3F0BG9B9MQQE34J8NV55ABSO12W7Y6,3F0BG9B9MQQE34J8NV55ABSO12W7Y6,271255,271255,,,,,,,,,,
,,,,5,8.196,0,6,6,232,1,one of the shelves on the bookcase is empty and has no decorations.,the bookcase has every shelf full of items.,wolfe2,043_R_clock,2,33,A3MKF1HE4UG4KM,2021-01-25_14h31.12.675,MetaAwareness,2020.1.2,MacIntel,60,3W5PY7V3UQA41FMGY2P0PI292HNJYG,A3MKF1HE4UG4KM,3F0BG9B9MQQE34J8NV55ABSO12W7Y6,9G0F5,9G0F5,3F0BG9B9MQQE34J8NV55ABSO12W7Y6,3F0BG9B9MQQE34J8NV55ABSO12W7Y6,271255,271255,,,,,,,,,,
,,,,5,7.728,0,7,7,46,1,this is a bathroom with blue walls. there is a can of air freshner by the window.,this is a bathroom with blue walls. there is a can of air freshner and soap by the window.,wolfe2,008_R_bottle,8,33,A3MKF1HE4UG4KM,2021-01-25_14h31.12.675,MetaAwareness,2020.1.2,MacIntel,60,3W5PY7V3UQA41FMGY2P0PI292HNJYG,A3MKF1HE4UG4KM,3F0BG9B9MQQE34J8NV55ABSO12W7Y6,9G0F5,9G0F5,3F0BG9B9MQQE34J8NV55ABSO12W7Y6,3F0BG9B9MQQE34J8NV55ABSO12W7Y6,271255,271255,,,,,,,,,,
,,,,5,6.024,0,8,8,322,1,a set dining room table with three wine glasses,a set dining room table with four wine glasses,wolfe2,061_R_glass,6,33,A3MKF1HE4UG4KM,2021-01-25_14h31.12.675,MetaAwareness,2020.1.2,MacIntel,60,3W5PY7V3UQA41FMGY2P0PI292HNJYG,A3MKF1HE4UG4KM,3F0BG9B9MQQE34J8NV55ABSO12W7Y6,9G0F5,9G0F5,3F0BG9B9MQQE34J8NV55ABSO12W7Y6,3F0BG9B9MQQE34J8NV55ABSO12W7Y6,271255,271255,,,,,,,,,,
,,,,4,9.16,0,9,9,123,1,hanging bulp has,hanging bulp has no available,wolfe2,022_R_lamp,2,33,A3MKF1HE4UG4KM,2021-01-25_14h31.12.675,MetaAwareness,2020.1.2,MacIntel,60,3W5PY7V3UQA41FMGY2P0PI292HNJYG,A3MKF1HE4UG4KM,3F0BG9B9MQQE34J8NV55ABSO12W7Y6,9G0F5,9G0F5,3F0BG9B9MQQE34J8NV55ABSO12W7Y6,3F0BG9B9MQQE34J8NV55ABSO12W7Y6,271255,271255,,,,,,,,,,
,,,,5,7.412,0,10,10,243,1,a dimly lit hotel room with a glass table in the middle,a dimly lit hotel room with a glass table in the middle that has an item on top of it,wolfe2,046_L_remote,2,33,A3MKF1HE4UG4KM,2021-01-25_14h31.12.675,MetaAwareness,2020.1.2,MacIntel,60,3W5PY7V3UQA41FMGY2P0PI292HNJYG,A3MKF1HE4UG4KM,3F0BG9B9MQQE34J8NV55ABSO12W7Y6,9G0F5,9G0F5,3F0BG9B9MQQE34J8NV55ABSO12W7Y6,3F0BG9B9MQQE34J8NV55ABSO12W7Y6,271255,271255,,,,,,,,,,
,,,,5,5.833,0,11,11,191,1,a bedroom  with a bed and a table without fruits on top of the table,a bedroom with a bed and a table with fruits placed on top of the table,wolfe2,035_L_fruit,2,33,A3MKF1HE4UG4KM,2021-01-25_14h31.12.675,MetaAwareness,2020.1.2,MacIntel,60,3W5PY7V3UQA41FMGY2P0PI292HNJYG,A3MKF1HE4UG4KM,3F0BG9B9MQQE34J8NV55ABSO12W7Y6,9G0F5,9G0F5,3F0BG9B9MQQE34J8NV55ABSO12W7Y6,3F0BG9B9MQQE34J8NV55ABSO12W7Y6,271255,271255,,,,,,,,,,
,,,,5,14.674,0,12,12,385,1,a bedroom with a dresser in it that has five drawers with handles on i t,a bedroom with a dresser in it that has six drawers with handles on them,wolfe2,072_L_handle,2,33,A3MKF1HE4UG4KM,2021-01-25_14h31.12.675,MetaAwareness,2020.1.2,MacIntel,60,3W5PY7V3UQA41FMGY2P0PI292HNJYG,A3MKF1HE4UG4KM,3F0BG9B9MQQE34J8NV55ABSO12W7Y6,9G0F5,9G0F5,3F0BG9B9MQQE34J8NV55ABSO12W7Y6,3F0BG9B9MQQE34J8NV55ABSO12W7Y6,271255,271255,,,,,,,,,,
,,,,5,10.5,0,13,13,304,1,a glamorous pink and white bedroom,a glamorous pink and white bedroom with a purple cloth laying on a seat,wolfe2,058_R_clutch,4,33,A3MKF1HE4UG4KM,2021-01-25_14h31.12.675,MetaAwareness,2020.1.2,MacIntel,60,3W5PY7V3UQA41FMGY2P0PI292HNJYG,A3MKF1HE4UG4KM,3F0BG9B9MQQE34J8NV55ABSO12W7Y6,9G0F5,9G0F5,3F0BG9B9MQQE34J8NV55ABSO12W7Y6,3F0BG9B9MQQE34J8NV55ABSO12W7Y6,271255,271255,,,,,,,,,,
,,,,1,9.516,0,14,14,264,1,the cream colored walls match the fireplace,the bottle of perfume sits next to the picture frame of the soon to be divorced newlywed couple on top of the fireplace,wolfe2,051_R_owl,2,33,A3MKF1HE4UG4KM,2021-01-25_14h31.12.675,MetaAwareness,2020.1.2,MacIntel,60,3W5PY7V3UQA41FMGY2P0PI292HNJYG,A3MKF1HE4UG4KM,3F0BG9B9MQQE34J8NV55ABSO12W7Y6,9G0F5,9G0F5,3F0BG9B9MQQE34J8NV55ABSO12W7Y6,3F0BG9B9MQQE34J8NV55ABSO12W7Y6,271255,271255,,,,,,,,,,
,,,,4,9.4,0,15,15,250,1,a white drawer with black on top,a design insignia on front of a white drawer,wolfe2,047_R_handle,6,33,A3MKF1HE4UG4KM,2021-01-25_14h31.12.675,MetaAwareness,2020.1.2,MacIntel,60,3W5PY7V3UQA41FMGY2P0PI292HNJYG,A3MKF1HE4UG4KM,3F0BG9B9MQQE34J8NV55ABSO12W7Y6,9G0F5,9G0F5,3F0BG9B9MQQE34J8NV55ABSO12W7Y6,3F0BG9B9MQQE34J8NV55ABSO12W7Y6,271255,271255,,,,,,,,,,
,,,,5,8.061,0,16,16,113,1,a small office with a desk and two circular pieces of art hanging on the wall,a small office with a desk and three circular pieces of art hanging on the wall,wolfe2,020_R_walldeco,4,33,A3MKF1HE4UG4KM,2021-01-25_14h31.12.675,MetaAwareness,2020.1.2,MacIntel,60,3W5PY7V3UQA41FMGY2P0PI292HNJYG,A3MKF1HE4UG4KM,3F0BG9B9MQQE34J8NV55ABSO12W7Y6,9G0F5,9G0F5,3F0BG9B9MQQE34J8NV55ABSO12W7Y6,3F0BG9B9MQQE34J8NV55ABSO12W7Y6,271255,271255,,,,,,,,,,
,,,,4,10.001,0,17,17,526,1,master bedroom with carpet and a light on the wall,master bedroom with dark sheets and a mirrored wall behind the bed and a plain wall beside,wolfe2,097_R_light,4,33,A3MKF1HE4UG4KM,2021-01-25_14h31.12.675,MetaAwareness,2020.1.2,MacIntel,60,3W5PY7V3UQA41FMGY2P0PI292HNJYG,A3MKF1HE4UG4KM,3F0BG9B9MQQE34J8NV55ABSO12W7Y6,9G0F5,9G0F5,3F0BG9B9MQQE34J8NV55ABSO12W7Y6,3F0BG9B9MQQE34J8NV55ABSO12W7Y6,271255,271255,,,,,,,,,,
,,,,5,16.011,0,18,18,645,1,an open concept room with a piano and seating with a picture on the wall.,an open concept room with a seating area and piano with a blank wall on the far side.,wolfe2,119_R_painting,2,33,A3MKF1HE4UG4KM,2021-01-25_14h31.12.675,MetaAwareness,2020.1.2,MacIntel,60,3W5PY7V3UQA41FMGY2P0PI292HNJYG,A3MKF1HE4UG4KM,3F0BG9B9MQQE34J8NV55ABSO12W7Y6,9G0F5,9G0F5,3F0BG9B9MQQE34J8NV55ABSO12W7Y6,3F0BG9B9MQQE34J8NV55ABSO12W7Y6,271255,271255,,,,,,,,,,
,,,,5,9.817,0,19,19,306,1,in a child's playroom there is an empty shelf  above a mirror on a wall,in a child's playroom there is a silver toy car on a shelf above a mirror on a wall,wolfe2,059_L_car,2,33,A3MKF1HE4UG4KM,2021-01-25_14h31.12.675,MetaAwareness,2020.1.2,MacIntel,60,3W5PY7V3UQA41FMGY2P0PI292HNJYG,A3MKF1HE4UG4KM,3F0BG9B9MQQE34J8NV55ABSO12W7Y6,9G0F5,9G0F5,3F0BG9B9MQQE34J8NV55ABSO12W7Y6,3F0BG9B9MQQE34J8NV55ABSO12W7Y6,271255,271255,,,,,,,,,,
,,,,5,3.209,0,20,20,662,1,in a cafe there is a table with three chairs,in a cafe there is a table with two chairs,wolfe2,122_L_chair,1,33,A3MKF1HE4UG4KM,2021-01-25_14h31.12.675,MetaAwareness,2020.1.2,MacIntel,60,3W5PY7V3UQA41FMGY2P0PI292HNJYG,A3MKF1HE4UG4KM,3F0BG9B9MQQE34J8NV55ABSO12W7Y6,9G0F5,9G0F5,3F0BG9B9MQQE34J8NV55ABSO12W7Y6,3F0BG9B9MQQE34J8NV55ABSO12W7Y6,271255,271255,,,,,,,,,,
,,,,5,10.665,0,21,21,37,1,a bathroom that has a large mirror and doubles sinks with an area for soap to be held,a bathroom that has a large mirror and doubles sinks with an an area for soap to be held containing a bar of soap.,wolfe2,007_R_soap,1,33,A3MKF1HE4UG4KM,2021-01-25_14h31.12.675,MetaAwareness,2020.1.2,MacIntel,60,3W5PY7V3UQA41FMGY2P0PI292HNJYG,A3MKF1HE4UG4KM,3F0BG9B9MQQE34J8NV55ABSO12W7Y6,9G0F5,9G0F5,3F0BG9B9MQQE34J8NV55ABSO12W7Y6,3F0BG9B9MQQE34J8NV55ABSO12W7Y6,271255,271255,,,,,,,,,,
,,,,5,6.659,0,22,22,639,1,a pair of shoes is present in a well-lighted living area.,the shoes are no longer present in the well-lighted living area.,wolfe2,118_R_shoes,3,33,A3MKF1HE4UG4KM,2021-01-25_14h31.12.675,MetaAwareness,2020.1.2,MacIntel,60,3W5PY7V3UQA41FMGY2P0PI292HNJYG,A3MKF1HE4UG4KM,3F0BG9B9MQQE34J8NV55ABSO12W7Y6,9G0F5,9G0F5,3F0BG9B9MQQE34J8NV55ABSO12W7Y6,3F0BG9B9MQQE34J8NV55ABSO12W7Y6,271255,271255,,,,,,,,,,
,,,,5,5.106,0,23,23,157,1,a modern looking bathroom with one cup on the counter.,a modern looking bathroom with two cups on the counter.,wolfe2,028_R_vase,1,33,A3MKF1HE4UG4KM,2021-01-25_14h31.12.675,MetaAwareness,2020.1.2,MacIntel,60,3W5PY7V3UQA41FMGY2P0PI292HNJYG,A3MKF1HE4UG4KM,3F0BG9B9MQQE34J8NV55ABSO12W7Y6,9G0F5,9G0F5,3F0BG9B9MQQE34J8NV55ABSO12W7Y6,3F0BG9B9MQQE34J8NV55ABSO12W7Y6,271255,271255,,,,,,,,,,
,,,,3,10.463,0,24,24,452,1,it contains an empty wal,it contains a frame,wolfe2,084_L_light,2,33,A3MKF1HE4UG4KM,2021-01-25_14h31.12.675,MetaAwareness,2020.1.2,MacIntel,60,3W5PY7V3UQA41FMGY2P0PI292HNJYG,A3MKF1HE4UG4KM,3F0BG9B9MQQE34J8NV55ABSO12W7Y6,9G0F5,9G0F5,3F0BG9B9MQQE34J8NV55ABSO12W7Y6,3F0BG9B9MQQE34J8NV55ABSO12W7Y6,271255,271255,,,,,,,,,,
,,,,2,9.433,0,25,25,268,1,a modern living room with painted white walls,flat speakers hung against the wall in a living room,wolfe2,052_L_speaker,3,33,A3MKF1HE4UG4KM,2021-01-25_14h31.12.675,MetaAwareness,2020.1.2,MacIntel,60,3W5PY7V3UQA41FMGY2P0PI292HNJYG,A3MKF1HE4UG4KM,3F0BG9B9MQQE34J8NV55ABSO12W7Y6,9G0F5,9G0F5,3F0BG9B9MQQE34J8NV55ABSO12W7Y6,3F0BG9B9MQQE34J8NV55ABSO12W7Y6,271255,271255,,,,,,,,,,
,,,,4,5.667,0,26,26,100,1,an airy living room with nothing in the entertainment center shelf,an airy living room with something in the entertainment center shelf,wolfe2,017_R_wood,4,33,A3MKF1HE4UG4KM,2021-01-25_14h31.12.675,MetaAwareness,2020.1.2,MacIntel,60,3W5PY7V3UQA41FMGY2P0PI292HNJYG,A3MKF1HE4UG4KM,3F0BG9B9MQQE34J8NV55ABSO12W7Y6,9G0F5,9G0F5,3F0BG9B9MQQE34J8NV55ABSO12W7Y6,3F0BG9B9MQQE34J8NV55ABSO12W7Y6,271255,271255,,,,,,,,,,
,,,,5,7.287,0,27,27,301,1,a colorful bedroom with pink and purple fluffy objects around,a colorful bedroom with a purple diary on the fluffy tablet,wolfe2,058_L_clutch,2,33,A3MKF1HE4UG4KM,2021-01-25_14h31.12.675,MetaAwareness,2020.1.2,MacIntel,60,3W5PY7V3UQA41FMGY2P0PI292HNJYG,A3MKF1HE4UG4KM,3F0BG9B9MQQE34J8NV55ABSO12W7Y6,9G0F5,9G0F5,3F0BG9B9MQQE34J8NV55ABSO12W7Y6,3F0BG9B9MQQE34J8NV55ABSO12W7Y6,271255,271255,,,,,,,,,,
,,,,5,22.77,0,28,28,378,1,old fashioned living room with black and white table lamps having a white object on the end table,old fashioned living room with black and white table lamps having a brownish colored object on the end table,wolfe2,071_L_art,3,33,A3MKF1HE4UG4KM,2021-01-25_14h31.12.675,MetaAwareness,2020.1.2,MacIntel,60,3W5PY7V3UQA41FMGY2P0PI292HNJYG,A3MKF1HE4UG4KM,3F0BG9B9MQQE34J8NV55ABSO12W7Y6,9G0F5,9G0F5,3F0BG9B9MQQE34J8NV55ABSO12W7Y6,3F0BG9B9MQQE34J8NV55ABSO12W7Y6,271255,271255,,,,,,,,,,
,,,,5,4.903,0,29,29,74,1,an apartment with a hanging light over the breakfast nook.,an apartment with two hanging lights over the breakfast nook.,wolfe2,013_L_lamp,9,33,A3MKF1HE4UG4KM,2021-01-25_14h31.12.675,MetaAwareness,2020.1.2,MacIntel,60,3W5PY7V3UQA41FMGY2P0PI292HNJYG,A3MKF1HE4UG4KM,3F0BG9B9MQQE34J8NV55ABSO12W7Y6,9G0F5,9G0F5,3F0BG9B9MQQE34J8NV55ABSO12W7Y6,3F0BG9B9MQQE34J8NV55ABSO12W7Y6,271255,271255,,,,,,,,,,
,,,,,,,,,,,,,,,,33,A3MKF1HE4UG4KM,2021-01-25_14h31.12.675,MetaAwareness,2020.1.2,MacIntel,60,3W5PY7V3UQA41FMGY2P0PI292HNJYG,A3MKF1HE4UG4KM,3F0BG9B9MQQE34J8NV55ABSO12W7Y6,9G0F5,9G0F5,3F0BG9B9MQQE34J8NV55ABSO12W7Y6,3F0BG9B9MQQE34J8NV55ABSO12W7Y6,271255,271255,6,8.524,someone laying underneath a blue beach umbrella on a crowded beach,someone laying underneath a blue beach umbrella on a crowded beach,same,1,6.488,members of a marching band crossing a track that all have feather plumes at the front of their hats,a cluttered and rustic looking cafe with 10 hanging lights,different
