consent_response.keys,consent_response.rt,key_resp_2.keys,key_resp_2.rt,user_resp.keys,user_resp.rt,trials.thisRepN,trials.thisTrialN,trials.thisN,trials.thisIndex,trials.ran,image_1_text,image_2_text,database,image,number,age,worker_ID,date,expName,psychopyVersion,OS,frameRate,hitId,workerId,assignmentId,a,tp_a,b,tp_b,c,tp_c,catch_same_resp.keys,catch_same_resp.rt,image_1_text_catch_same,image_2_text_catch_same,image_catch_same,catch_different_resp.keys,catch_different_resp.rt,image_1_text_catch_different,image_2_text_catch_different,image_catch_different
space,9.61,space,8.231,1,6.85,0,0,0,155,1,a shower stall without a soap dish,a shower stall with a soap dish,wolfe2,027_R_soapdish,3,39,A3U6IA3JUSFZ2M,2021-01-25_16h43.18.326,MetaAwareness,2020.1.2,Win32,60,3TZ0XG8CBVN0GXIPZM0T1B04DYC892,A3U6IA3JUSFZ2M,39N5ACM9HFQO89F0B576BGQISNSP9H,9AN95,9AN95,39N5ACM9HFQO89F0B576BGQISNSP9H,39N5ACM9HFQO89F0B576BGQISNSP9H,271255,271255,,,,,,,,,,
,,,,5,16.349,0,1,1,585,1,a dressing room at a retailer with 3 unique stalls where at the end there is a clothes rack with 2 white garments on the far left,a dressing room at a retailer with 3 unique stalls where at the end there is a clothes rack with 1 white garment on the far left,wolfe2,107_L_shirts,4,39,A3U6IA3JUSFZ2M,2021-01-25_16h43.18.326,MetaAwareness,2020.1.2,Win32,60,3TZ0XG8CBVN0GXIPZM0T1B04DYC892,A3U6IA3JUSFZ2M,39N5ACM9HFQO89F0B576BGQISNSP9H,9AN95,9AN95,39N5ACM9HFQO89F0B576BGQISNSP9H,39N5ACM9HFQO89F0B576BGQISNSP9H,271255,271255,,,,,,,,,,
,,,,5,7.778,0,2,2,621,1,a big hall with several furniture and night lamp present,a big hall with several furniture and lights are present,wolfe2,115_L_pot,1,39,A3U6IA3JUSFZ2M,2021-01-25_16h43.18.326,MetaAwareness,2020.1.2,Win32,60,3TZ0XG8CBVN0GXIPZM0T1B04DYC892,A3U6IA3JUSFZ2M,39N5ACM9HFQO89F0B576BGQISNSP9H,9AN95,9AN95,39N5ACM9HFQO89F0B576BGQISNSP9H,39N5ACM9HFQO89F0B576BGQISNSP9H,271255,271255,,,,,,,,,,
,,,,3,6.328,0,3,3,424,1,a fully stocked kitchen with an empty shelf on top,a fully stocked kicthen with bowls on the top shelves,wolfe2,079_L_bowl,1,39,A3U6IA3JUSFZ2M,2021-01-25_16h43.18.326,MetaAwareness,2020.1.2,Win32,60,3TZ0XG8CBVN0GXIPZM0T1B04DYC892,A3U6IA3JUSFZ2M,39N5ACM9HFQO89F0B576BGQISNSP9H,9AN95,9AN95,39N5ACM9HFQO89F0B576BGQISNSP9H,39N5ACM9HFQO89F0B576BGQISNSP9H,271255,271255,,,,,,,,,,
,,,,5,8.766,0,4,4,281,1,a children's bedroom with 2 decorative rugs,a children's bedroom with 3 decrative rugs,wolfe2,055_L_carpet,2,39,A3U6IA3JUSFZ2M,2021-01-25_16h43.18.326,MetaAwareness,2020.1.2,Win32,60,3TZ0XG8CBVN0GXIPZM0T1B04DYC892,A3U6IA3JUSFZ2M,39N5ACM9HFQO89F0B576BGQISNSP9H,9AN95,9AN95,39N5ACM9HFQO89F0B576BGQISNSP9H,39N5ACM9HFQO89F0B576BGQISNSP9H,271255,271255,,,,,,,,,,
,,,,4,7.525,0,5,5,431,1,a modern kitchen with modern lights and utensils,a modern kitchen with modern lights and utensils and added plant beside the cupboard,wolfe2,080_L_plant,4,39,A3U6IA3JUSFZ2M,2021-01-25_16h43.18.326,MetaAwareness,2020.1.2,Win32,60,3TZ0XG8CBVN0GXIPZM0T1B04DYC892,A3U6IA3JUSFZ2M,39N5ACM9HFQO89F0B576BGQISNSP9H,9AN95,9AN95,39N5ACM9HFQO89F0B576BGQISNSP9H,39N5ACM9HFQO89F0B576BGQISNSP9H,271255,271255,,,,,,,,,,
,,,,4,7.935,0,6,6,521,1,"a pink themed decorated room, with a radio sitting on top of the pink desk",a pink themed decorated room with an empty pink desk,wolfe2,096_R_painting,4,39,A3U6IA3JUSFZ2M,2021-01-25_16h43.18.326,MetaAwareness,2020.1.2,Win32,60,3TZ0XG8CBVN0GXIPZM0T1B04DYC892,A3U6IA3JUSFZ2M,39N5ACM9HFQO89F0B576BGQISNSP9H,9AN95,9AN95,39N5ACM9HFQO89F0B576BGQISNSP9H,39N5ACM9HFQO89F0B576BGQISNSP9H,271255,271255,,,,,,,,,,
,,,,4,4.732,0,7,7,456,1,beach home with beige walls,beach home with beige wall and latern type lighting,wolfe2,084_R_light,1,39,A3U6IA3JUSFZ2M,2021-01-25_16h43.18.326,MetaAwareness,2020.1.2,Win32,60,3TZ0XG8CBVN0GXIPZM0T1B04DYC892,A3U6IA3JUSFZ2M,39N5ACM9HFQO89F0B576BGQISNSP9H,9AN95,9AN95,39N5ACM9HFQO89F0B576BGQISNSP9H,39N5ACM9HFQO89F0B576BGQISNSP9H,271255,271255,,,,,,,,,,
,,,,2,4.554,0,8,8,437,1,there is nothing appear in the under the stool set chamber,a small piece appear under the chamber,wolfe2,081_R_football,1,39,A3U6IA3JUSFZ2M,2021-01-25_16h43.18.326,MetaAwareness,2020.1.2,Win32,60,3TZ0XG8CBVN0GXIPZM0T1B04DYC892,A3U6IA3JUSFZ2M,39N5ACM9HFQO89F0B576BGQISNSP9H,9AN95,9AN95,39N5ACM9HFQO89F0B576BGQISNSP9H,39N5ACM9HFQO89F0B576BGQISNSP9H,271255,271255,,,,,,,,,,
,,,,5,6.145,0,9,9,120,1,a beautiful modern kitchen with 2 ceiling lights,a beautiful modern kitchen with 3 hanging ceiling lights,wolfe2,022_L_lamp,1,39,A3U6IA3JUSFZ2M,2021-01-25_16h43.18.326,MetaAwareness,2020.1.2,Win32,60,3TZ0XG8CBVN0GXIPZM0T1B04DYC892,A3U6IA3JUSFZ2M,39N5ACM9HFQO89F0B576BGQISNSP9H,9AN95,9AN95,39N5ACM9HFQO89F0B576BGQISNSP9H,39N5ACM9HFQO89F0B576BGQISNSP9H,271255,271255,,,,,,,,,,
,,,,5,11.243,0,10,10,238,1,a white and blue bathroom with white countertop and sink,a white and blue bathroom with a white countertop and sink with silver handles.,wolfe2,044_R_light,3,39,A3U6IA3JUSFZ2M,2021-01-25_16h43.18.326,MetaAwareness,2020.1.2,Win32,60,3TZ0XG8CBVN0GXIPZM0T1B04DYC892,A3U6IA3JUSFZ2M,39N5ACM9HFQO89F0B576BGQISNSP9H,9AN95,9AN95,39N5ACM9HFQO89F0B576BGQISNSP9H,39N5ACM9HFQO89F0B576BGQISNSP9H,271255,271255,,,,,,,,,,
,,,,4,6.857,0,11,11,657,1,a small white bed table with a toy car and lamp on top.,a small white bed table with a lamp on top.,wolfe2,121_L_car,3,39,A3U6IA3JUSFZ2M,2021-01-25_16h43.18.326,MetaAwareness,2020.1.2,Win32,60,3TZ0XG8CBVN0GXIPZM0T1B04DYC892,A3U6IA3JUSFZ2M,39N5ACM9HFQO89F0B576BGQISNSP9H,9AN95,9AN95,39N5ACM9HFQO89F0B576BGQISNSP9H,39N5ACM9HFQO89F0B576BGQISNSP9H,271255,271255,,,,,,,,,,
,,,,3,15.582,0,12,12,97,1,a modern looking house with no logs in their fireplace,a modern looking house with a log in their fireplace,wolfe2,017_R_wood,1,39,A3U6IA3JUSFZ2M,2021-01-25_16h43.18.326,MetaAwareness,2020.1.2,Win32,60,3TZ0XG8CBVN0GXIPZM0T1B04DYC892,A3U6IA3JUSFZ2M,39N5ACM9HFQO89F0B576BGQISNSP9H,9AN95,9AN95,39N5ACM9HFQO89F0B576BGQISNSP9H,39N5ACM9HFQO89F0B576BGQISNSP9H,271255,271255,,,,,,,,,,
,,,,4,9.175,0,13,13,406,1,a bathroom with a big mirror and no towel rack,a bathroom with a big mirror and a towel rack next to the mirror,wolfe2,076_L_hook,1,39,A3U6IA3JUSFZ2M,2021-01-25_16h43.18.326,MetaAwareness,2020.1.2,Win32,60,3TZ0XG8CBVN0GXIPZM0T1B04DYC892,A3U6IA3JUSFZ2M,39N5ACM9HFQO89F0B576BGQISNSP9H,9AN95,9AN95,39N5ACM9HFQO89F0B576BGQISNSP9H,39N5ACM9HFQO89F0B576BGQISNSP9H,271255,271255,,,,,,,,,,
,,,,4,7.44,0,14,14,126,1,a large kitchen with two green items  hanging above the center,a large kitchen that has three green items hanging above the center,wolfe2,022_R_lamp,6,39,A3U6IA3JUSFZ2M,2021-01-25_16h43.18.326,MetaAwareness,2020.1.2,Win32,60,3TZ0XG8CBVN0GXIPZM0T1B04DYC892,A3U6IA3JUSFZ2M,39N5ACM9HFQO89F0B576BGQISNSP9H,9AN95,9AN95,39N5ACM9HFQO89F0B576BGQISNSP9H,39N5ACM9HFQO89F0B576BGQISNSP9H,271255,271255,,,,,,,,,,
,,,,5,8.918,0,15,15,666,1,a room that looks like it may be in a library that has some tables and 12 empty chairs,a room that looks like it may be in a library that has some tables and 11 empty chairs,wolfe2,122_R_chair,5,39,A3U6IA3JUSFZ2M,2021-01-25_16h43.18.326,MetaAwareness,2020.1.2,Win32,60,3TZ0XG8CBVN0GXIPZM0T1B04DYC892,A3U6IA3JUSFZ2M,39N5ACM9HFQO89F0B576BGQISNSP9H,9AN95,9AN95,39N5ACM9HFQO89F0B576BGQISNSP9H,39N5ACM9HFQO89F0B576BGQISNSP9H,271255,271255,,,,,,,,,,
,,,,5,5.539,0,16,16,218,1,"a modern dining room with dark wood furniture, a tan rug, and two pieces of art on the wall","a modern dining room with dark wood furniture, a tan rug, and three pieces of art on the wall",wolfe2,040_R_painting,2,39,A3U6IA3JUSFZ2M,2021-01-25_16h43.18.326,MetaAwareness,2020.1.2,Win32,60,3TZ0XG8CBVN0GXIPZM0T1B04DYC892,A3U6IA3JUSFZ2M,39N5ACM9HFQO89F0B576BGQISNSP9H,9AN95,9AN95,39N5ACM9HFQO89F0B576BGQISNSP9H,39N5ACM9HFQO89F0B576BGQISNSP9H,271255,271255,,,,,,,,,,
,,,,5,7.401,0,17,17,9,1,a special event dining room with 7 napkins on the closest table,a special event dining room with 8 napkins on the closest table,wolfe2,002_L_napkin,2,39,A3U6IA3JUSFZ2M,2021-01-25_16h43.18.326,MetaAwareness,2020.1.2,Win32,60,3TZ0XG8CBVN0GXIPZM0T1B04DYC892,A3U6IA3JUSFZ2M,39N5ACM9HFQO89F0B576BGQISNSP9H,9AN95,9AN95,39N5ACM9HFQO89F0B576BGQISNSP9H,39N5ACM9HFQO89F0B576BGQISNSP9H,271255,271255,,,,,,,,,,
,,,,4,5.563,0,18,18,377,1,a very coy old school looking living room,a very cozy old school looking living room with some flowers on one of the end tables,wolfe2,071_L_art,2,39,A3U6IA3JUSFZ2M,2021-01-25_16h43.18.326,MetaAwareness,2020.1.2,Win32,60,3TZ0XG8CBVN0GXIPZM0T1B04DYC892,A3U6IA3JUSFZ2M,39N5ACM9HFQO89F0B576BGQISNSP9H,9AN95,9AN95,39N5ACM9HFQO89F0B576BGQISNSP9H,39N5ACM9HFQO89F0B576BGQISNSP9H,271255,271255,,,,,,,,,,
,,,,6,11.313,0,19,19,682,1,a living room with a small coffee table next to the couch,a living room without a small coffee table next to the couch,wolfe2,125_L_sofa,4,39,A3U6IA3JUSFZ2M,2021-01-25_16h43.18.326,MetaAwareness,2020.1.2,Win32,60,3TZ0XG8CBVN0GXIPZM0T1B04DYC892,A3U6IA3JUSFZ2M,39N5ACM9HFQO89F0B576BGQISNSP9H,9AN95,9AN95,39N5ACM9HFQO89F0B576BGQISNSP9H,39N5ACM9HFQO89F0B576BGQISNSP9H,271255,271255,,,,,,,,,,
,,,,5,4.445,0,20,20,53,1,a warm bedroom with a nightstand with two candlesticks,a warm bedroom with a nightstand with three candlesticks,wolfe2,010_L_candle,5,39,A3U6IA3JUSFZ2M,2021-01-25_16h43.18.326,MetaAwareness,2020.1.2,Win32,60,3TZ0XG8CBVN0GXIPZM0T1B04DYC892,A3U6IA3JUSFZ2M,39N5ACM9HFQO89F0B576BGQISNSP9H,9AN95,9AN95,39N5ACM9HFQO89F0B576BGQISNSP9H,39N5ACM9HFQO89F0B576BGQISNSP9H,271255,271255,,,,,,,,,,
,,,,5,6.906,0,21,21,525,1,a bedroom without a light on the wall,a bedroom with nothing on the wall,wolfe2,097_R_light,3,39,A3U6IA3JUSFZ2M,2021-01-25_16h43.18.326,MetaAwareness,2020.1.2,Win32,60,3TZ0XG8CBVN0GXIPZM0T1B04DYC892,A3U6IA3JUSFZ2M,39N5ACM9HFQO89F0B576BGQISNSP9H,9AN95,9AN95,39N5ACM9HFQO89F0B576BGQISNSP9H,39N5ACM9HFQO89F0B576BGQISNSP9H,271255,271255,,,,,,,,,,
,,,,5,9.174,0,22,22,68,1,modernistic living and dining combination with single hanging white light over the dining table,modernistic living and dining combination with double hanging white lights over the dining table,wolfe2,013_L_lamp,2,39,A3U6IA3JUSFZ2M,2021-01-25_16h43.18.326,MetaAwareness,2020.1.2,Win32,60,3TZ0XG8CBVN0GXIPZM0T1B04DYC892,A3U6IA3JUSFZ2M,39N5ACM9HFQO89F0B576BGQISNSP9H,9AN95,9AN95,39N5ACM9HFQO89F0B576BGQISNSP9H,39N5ACM9HFQO89F0B576BGQISNSP9H,271255,271255,,,,,,,,,,
,,,,3,7.473,0,23,23,1,1,antique-style room decorated in green and beige,antiques-style room with a small mirror to the left of a curtain,wolfe2,001_L_mirror,3,39,A3U6IA3JUSFZ2M,2021-01-25_16h43.18.326,MetaAwareness,2020.1.2,Win32,60,3TZ0XG8CBVN0GXIPZM0T1B04DYC892,A3U6IA3JUSFZ2M,39N5ACM9HFQO89F0B576BGQISNSP9H,9AN95,9AN95,39N5ACM9HFQO89F0B576BGQISNSP9H,39N5ACM9HFQO89F0B576BGQISNSP9H,271255,271255,,,,,,,,,,
,,,,4,7.925,0,24,24,507,1,a small hotel room with two wall outlets near the beds,a small hotel room with one wall outlet near the beds,wolfe2,093_L_switch,6,39,A3U6IA3JUSFZ2M,2021-01-25_16h43.18.326,MetaAwareness,2020.1.2,Win32,60,3TZ0XG8CBVN0GXIPZM0T1B04DYC892,A3U6IA3JUSFZ2M,39N5ACM9HFQO89F0B576BGQISNSP9H,9AN95,9AN95,39N5ACM9HFQO89F0B576BGQISNSP9H,39N5ACM9HFQO89F0B576BGQISNSP9H,271255,271255,,,,,,,,,,
,,,,5,7.39,0,25,25,2,1,a room with green walls and a swan picture,a room with green walls a swan pcture and a sconce on the wall,wolfe2,001_L_mirror,4,39,A3U6IA3JUSFZ2M,2021-01-25_16h43.18.326,MetaAwareness,2020.1.2,Win32,60,3TZ0XG8CBVN0GXIPZM0T1B04DYC892,A3U6IA3JUSFZ2M,39N5ACM9HFQO89F0B576BGQISNSP9H,9AN95,9AN95,39N5ACM9HFQO89F0B576BGQISNSP9H,39N5ACM9HFQO89F0B576BGQISNSP9H,271255,271255,,,,,,,,,,
,,,,3,6.047,0,26,26,65,1,a bathroom with a big bathtub with no overflow,a bathroom with a big bathtub with an overflow,wolfe2,012_R_tubaccesory,3,39,A3U6IA3JUSFZ2M,2021-01-25_16h43.18.326,MetaAwareness,2020.1.2,Win32,60,3TZ0XG8CBVN0GXIPZM0T1B04DYC892,A3U6IA3JUSFZ2M,39N5ACM9HFQO89F0B576BGQISNSP9H,9AN95,9AN95,39N5ACM9HFQO89F0B576BGQISNSP9H,39N5ACM9HFQO89F0B576BGQISNSP9H,271255,271255,,,,,,,,,,
,,,,3,8.793,0,27,27,540,1,a bathroom with dark accents that has a magnifyer mirror on the right side of the sink area below the shelf,a bathroom with dark accents that has only a shelf area on the right side of the sink area,wolfe2,100_R_mirror,1,39,A3U6IA3JUSFZ2M,2021-01-25_16h43.18.326,MetaAwareness,2020.1.2,Win32,60,3TZ0XG8CBVN0GXIPZM0T1B04DYC892,A3U6IA3JUSFZ2M,39N5ACM9HFQO89F0B576BGQISNSP9H,9AN95,9AN95,39N5ACM9HFQO89F0B576BGQISNSP9H,39N5ACM9HFQO89F0B576BGQISNSP9H,271255,271255,,,,,,,,,,
,,,,4,11.194,0,28,28,16,1,"a living room with wood paneled windows that look out on a quiet, serene mountain lake",a living room with wood paneled windows that look out onto a mountain lake that appears to have three ducks or swans swimming in it,wolfe2,003_L_ducks,3,39,A3U6IA3JUSFZ2M,2021-01-25_16h43.18.326,MetaAwareness,2020.1.2,Win32,60,3TZ0XG8CBVN0GXIPZM0T1B04DYC892,A3U6IA3JUSFZ2M,39N5ACM9HFQO89F0B576BGQISNSP9H,9AN95,9AN95,39N5ACM9HFQO89F0B576BGQISNSP9H,39N5ACM9HFQO89F0B576BGQISNSP9H,271255,271255,,,,,,,,,,
,,,,4,10.927,0,29,29,553,1,a hotel room with a small office space that has a small box that holds something,a hotel room with a small office space,wolfe2,102_R_shoppingbag,2,39,A3U6IA3JUSFZ2M,2021-01-25_16h43.18.326,MetaAwareness,2020.1.2,Win32,60,3TZ0XG8CBVN0GXIPZM0T1B04DYC892,A3U6IA3JUSFZ2M,39N5ACM9HFQO89F0B576BGQISNSP9H,9AN95,9AN95,39N5ACM9HFQO89F0B576BGQISNSP9H,39N5ACM9HFQO89F0B576BGQISNSP9H,271255,271255,,,,,,,,,,
,,,,,,,,,,,,,,,,39,A3U6IA3JUSFZ2M,2021-01-25_16h43.18.326,MetaAwareness,2020.1.2,Win32,60,3TZ0XG8CBVN0GXIPZM0T1B04DYC892,A3U6IA3JUSFZ2M,39N5ACM9HFQO89F0B576BGQISNSP9H,9AN95,9AN95,39N5ACM9HFQO89F0B576BGQISNSP9H,39N5ACM9HFQO89F0B576BGQISNSP9H,271255,271255,6,10.75,someone laying underneath a blue beach umbrella on a crowded beach,someone laying underneath a blue beach umbrella on a crowded beach,same,1,10.111,members of a marching band crossing a track that all have feather plumes at the front of their hats,a cluttered and rustic looking cafe with 10 hanging lights,different
