consent_response.keys,consent_response.rt,key_resp_2.keys,key_resp_2.rt,user_resp.keys,user_resp.rt,trials.thisRepN,trials.thisTrialN,trials.thisN,trials.thisIndex,trials.ran,image_1_text,image_2_text,database,image,number,age,worker_ID,date,expName,psychopyVersion,OS,frameRate,hitId,workerId,assignmentId,a,tp_a,b,tp_b,c,tp_c,catch_same_resp.keys,catch_same_resp.rt,image_1_text_catch_same,image_2_text_catch_same,image_catch_same,catch_different_resp.keys,catch_different_resp.rt,image_1_text_catch_different,image_2_text_catch_different,image_catch_different
space,112.37314,space,37.96187,2,16.615975,0,0,0,470,1,a long view of an eating area and living room with a covered dish on the lowest shelf,a long view of an eating area and living room with nothing on the lowest shelf,wolfe2,086_L_book,5,40,A7O82NXM2PI12,2021-01-25_16h36.58.971,MetaAwareness,2020.1.2,Win32,60,3TZ0XG8CBVN0GXIPZM0T1B04DYC892,A7O82NXM2PI12,3Z7VU45IPZK0X8EBU1QFN8AD4ABZ13,IU7Z5,IU7Z5,3Z7VU45IPZK0X8EBU1QFN8AD4ABZ13,3Z7VU45IPZK0X8EBU1QFN8AD4ABZ13,271255,271255,,,,,,,,,,
,,,,2,7.1412,0,1,1,652,1,a contemporary family living room with a beige decoration and a pink plant on top of the fireplace.,a contemporary family living room with a pink plant on top of the fireplace,wolfe2,120_R_art,2,40,A7O82NXM2PI12,2021-01-25_16h36.58.971,MetaAwareness,2020.1.2,Win32,60,3TZ0XG8CBVN0GXIPZM0T1B04DYC892,A7O82NXM2PI12,3Z7VU45IPZK0X8EBU1QFN8AD4ABZ13,IU7Z5,IU7Z5,3Z7VU45IPZK0X8EBU1QFN8AD4ABZ13,3Z7VU45IPZK0X8EBU1QFN8AD4ABZ13,271255,271255,,,,,,,,,,
,,,,2,15.945675,0,2,2,551,1,a modern powder room with devorations and gifts on the floor,a modern powder room with steps to the outside,wolfe2,102_L_shoppingbag,4,40,A7O82NXM2PI12,2021-01-25_16h36.58.971,MetaAwareness,2020.1.2,Win32,60,3TZ0XG8CBVN0GXIPZM0T1B04DYC892,A7O82NXM2PI12,3Z7VU45IPZK0X8EBU1QFN8AD4ABZ13,IU7Z5,IU7Z5,3Z7VU45IPZK0X8EBU1QFN8AD4ABZ13,3Z7VU45IPZK0X8EBU1QFN8AD4ABZ13,271255,271255,,,,,,,,,,
,,,,2,9.33673,0,3,3,517,1,a modern looking girls office with something on the counter   num_enter,a modern looking girls room with nothing on the counter,wolfe2,096_L_painting,3,40,A7O82NXM2PI12,2021-01-25_16h36.58.971,MetaAwareness,2020.1.2,Win32,60,3TZ0XG8CBVN0GXIPZM0T1B04DYC892,A7O82NXM2PI12,3Z7VU45IPZK0X8EBU1QFN8AD4ABZ13,IU7Z5,IU7Z5,3Z7VU45IPZK0X8EBU1QFN8AD4ABZ13,3Z7VU45IPZK0X8EBU1QFN8AD4ABZ13,271255,271255,,,,,,,,,,
,,,,3,24.53666,0,4,4,474,1,a disorganized bathroom with a towel holder attached to the wall,a disorganized bathroom without a towel holder on the wall,wolfe2,087_R_towelhandle,1,40,A7O82NXM2PI12,2021-01-25_16h36.58.971,MetaAwareness,2020.1.2,Win32,60,3TZ0XG8CBVN0GXIPZM0T1B04DYC892,A7O82NXM2PI12,3Z7VU45IPZK0X8EBU1QFN8AD4ABZ13,IU7Z5,IU7Z5,3Z7VU45IPZK0X8EBU1QFN8AD4ABZ13,3Z7VU45IPZK0X8EBU1QFN8AD4ABZ13,271255,271255,,,,,,,,,,
,,,,3,8.93228,0,5,5,215,1,the beautiful light colored living room has no ceiling vents,the beautiful light colored living room has a ceiling vent above the couch.,wolfe2,039_R_ventilator,2,40,A7O82NXM2PI12,2021-01-25_16h36.58.971,MetaAwareness,2020.1.2,Win32,60,3TZ0XG8CBVN0GXIPZM0T1B04DYC892,A7O82NXM2PI12,3Z7VU45IPZK0X8EBU1QFN8AD4ABZ13,IU7Z5,IU7Z5,3Z7VU45IPZK0X8EBU1QFN8AD4ABZ13,3Z7VU45IPZK0X8EBU1QFN8AD4ABZ13,271255,271255,,,,,,,,,,
,,,,2,14.02663,0,6,6,335,1,an eating or hangout area next to a fireplace with open doors,"an eating or hangout area next to a fireplace with open doors to outside, and a computer on the desk on the upper level",wolfe2,063_R_laptop,3,40,A7O82NXM2PI12,2021-01-25_16h36.58.971,MetaAwareness,2020.1.2,Win32,60,3TZ0XG8CBVN0GXIPZM0T1B04DYC892,A7O82NXM2PI12,3Z7VU45IPZK0X8EBU1QFN8AD4ABZ13,IU7Z5,IU7Z5,3Z7VU45IPZK0X8EBU1QFN8AD4ABZ13,3Z7VU45IPZK0X8EBU1QFN8AD4ABZ13,271255,271255,,,,,,,,,,
,,,,3,5.97192,0,7,7,461,1,a dimly lit bathroom that has an extra outlet next to the mirror,a dimly lit bathroom that does not have an extra outlet,wolfe2,085_L_switchboard,3,40,A7O82NXM2PI12,2021-01-25_16h36.58.971,MetaAwareness,2020.1.2,Win32,60,3TZ0XG8CBVN0GXIPZM0T1B04DYC892,A7O82NXM2PI12,3Z7VU45IPZK0X8EBU1QFN8AD4ABZ13,IU7Z5,IU7Z5,3Z7VU45IPZK0X8EBU1QFN8AD4ABZ13,3Z7VU45IPZK0X8EBU1QFN8AD4ABZ13,271255,271255,,,,,,,,,,
,,,,3,4.737165,0,8,8,223,1,a kitchen with a bowl that has no items,a kitchen wit a bowel that contains some food items,wolfe2,041_R_fruit,5,40,A7O82NXM2PI12,2021-01-25_16h36.58.971,MetaAwareness,2020.1.2,Win32,60,3TZ0XG8CBVN0GXIPZM0T1B04DYC892,A7O82NXM2PI12,3Z7VU45IPZK0X8EBU1QFN8AD4ABZ13,IU7Z5,IU7Z5,3Z7VU45IPZK0X8EBU1QFN8AD4ABZ13,3Z7VU45IPZK0X8EBU1QFN8AD4ABZ13,271255,271255,,,,,,,,,,
,,,,3,5.410255,0,9,9,123,1,hanging bulp has,hanging bulp has no available,wolfe2,022_R_lamp,2,40,A7O82NXM2PI12,2021-01-25_16h36.58.971,MetaAwareness,2020.1.2,Win32,60,3TZ0XG8CBVN0GXIPZM0T1B04DYC892,A7O82NXM2PI12,3Z7VU45IPZK0X8EBU1QFN8AD4ABZ13,IU7Z5,IU7Z5,3Z7VU45IPZK0X8EBU1QFN8AD4ABZ13,3Z7VU45IPZK0X8EBU1QFN8AD4ABZ13,271255,271255,,,,,,,,,,
,,,,2,26.35433,0,10,10,561,1,this comfy cafe has large plush chairs and small tables. on top of each table is a nice candle.,"each table in this lovely and small cafe has a small candle on top of it. there is also a small vase on the second table from center, it appears to be brown or black.",wolfe2,104_L_bottle,3,40,A7O82NXM2PI12,2021-01-25_16h36.58.971,MetaAwareness,2020.1.2,Win32,60,3TZ0XG8CBVN0GXIPZM0T1B04DYC892,A7O82NXM2PI12,3Z7VU45IPZK0X8EBU1QFN8AD4ABZ13,IU7Z5,IU7Z5,3Z7VU45IPZK0X8EBU1QFN8AD4ABZ13,3Z7VU45IPZK0X8EBU1QFN8AD4ABZ13,271255,271255,,,,,,,,,,
,,,,5,54.69275,0,11,11,637,1,"a lived in apartment with the owner's furniture, shoes and plant",a lived in apartment with the owner's furniture and plant,wolfe2,118_L_shoes,6,40,A7O82NXM2PI12,2021-01-25_16h36.58.971,MetaAwareness,2020.1.2,Win32,60,3TZ0XG8CBVN0GXIPZM0T1B04DYC892,A7O82NXM2PI12,3Z7VU45IPZK0X8EBU1QFN8AD4ABZ13,IU7Z5,IU7Z5,3Z7VU45IPZK0X8EBU1QFN8AD4ABZ13,3Z7VU45IPZK0X8EBU1QFN8AD4ABZ13,271255,271255,,,,,,,,,,
,,,,4,12.621285,0,12,12,578,1,it is a picture of what looks like a reception area of an office and there is a paper towel dispenser near the sinks.,it is a picutre of what looks like a reception area of an office and there is no paper towel dispenser next to the sinks.,wolfe2,106_R_toweldispenser,2,40,A7O82NXM2PI12,2021-01-25_16h36.58.971,MetaAwareness,2020.1.2,Win32,60,3TZ0XG8CBVN0GXIPZM0T1B04DYC892,A7O82NXM2PI12,3Z7VU45IPZK0X8EBU1QFN8AD4ABZ13,IU7Z5,IU7Z5,3Z7VU45IPZK0X8EBU1QFN8AD4ABZ13,3Z7VU45IPZK0X8EBU1QFN8AD4ABZ13,271255,271255,,,,,,,,,,
,,,,4,12.916285,0,13,13,275,1,a cabinet in a bathroom with the bottom drawer missing a handle,a cabinet in a bathroom with the bottom dresser having a handle,wolfe2,053_R_handle,3,40,A7O82NXM2PI12,2021-01-25_16h36.58.971,MetaAwareness,2020.1.2,Win32,60,3TZ0XG8CBVN0GXIPZM0T1B04DYC892,A7O82NXM2PI12,3Z7VU45IPZK0X8EBU1QFN8AD4ABZ13,IU7Z5,IU7Z5,3Z7VU45IPZK0X8EBU1QFN8AD4ABZ13,3Z7VU45IPZK0X8EBU1QFN8AD4ABZ13,271255,271255,,,,,,,,,,
,,,,2,5.32184,0,14,14,460,1,a tissue holder on the wall,a clear wall,wolfe2,085_L_switchboard,2,40,A7O82NXM2PI12,2021-01-25_16h36.58.971,MetaAwareness,2020.1.2,Win32,60,3TZ0XG8CBVN0GXIPZM0T1B04DYC892,A7O82NXM2PI12,3Z7VU45IPZK0X8EBU1QFN8AD4ABZ13,IU7Z5,IU7Z5,3Z7VU45IPZK0X8EBU1QFN8AD4ABZ13,3Z7VU45IPZK0X8EBU1QFN8AD4ABZ13,271255,271255,,,,,,,,,,
,,,,4,8.22065,0,15,15,603,1,a living room with a decorative pot,a living room without a decrative pot,wolfe2,111_L_pot,1,40,A7O82NXM2PI12,2021-01-25_16h36.58.971,MetaAwareness,2020.1.2,Win32,60,3TZ0XG8CBVN0GXIPZM0T1B04DYC892,A7O82NXM2PI12,3Z7VU45IPZK0X8EBU1QFN8AD4ABZ13,IU7Z5,IU7Z5,3Z7VU45IPZK0X8EBU1QFN8AD4ABZ13,3Z7VU45IPZK0X8EBU1QFN8AD4ABZ13,271255,271255,,,,,,,,,,
,,,,3,17.910855,0,16,16,280,1,"a room that looks like a study with lots of books on shelves, brown coloring, and an empty fireplace","a room that looks like a study with lots of books on shelves, brown coloring, and a fireplace with wood in it",wolfe2,054_R_firewood,5,40,A7O82NXM2PI12,2021-01-25_16h36.58.971,MetaAwareness,2020.1.2,Win32,60,3TZ0XG8CBVN0GXIPZM0T1B04DYC892,A7O82NXM2PI12,3Z7VU45IPZK0X8EBU1QFN8AD4ABZ13,IU7Z5,IU7Z5,3Z7VU45IPZK0X8EBU1QFN8AD4ABZ13,3Z7VU45IPZK0X8EBU1QFN8AD4ABZ13,271255,271255,,,,,,,,,,
,,,,3,7.06998,0,17,17,418,1,a light green themed bathroom missing a handle on the faucet,a light green themed bathroom with both faucet handles present,wolfe2,078_L_faucet,1,40,A7O82NXM2PI12,2021-01-25_16h36.58.971,MetaAwareness,2020.1.2,Win32,60,3TZ0XG8CBVN0GXIPZM0T1B04DYC892,A7O82NXM2PI12,3Z7VU45IPZK0X8EBU1QFN8AD4ABZ13,IU7Z5,IU7Z5,3Z7VU45IPZK0X8EBU1QFN8AD4ABZ13,3Z7VU45IPZK0X8EBU1QFN8AD4ABZ13,271255,271255,,,,,,,,,,
,,,,3,7.24032,0,18,18,504,1,two beds with yellow sheets and a small gold box on the wall between the beds,two beds with yellow sheets and nothing on the wall in between the beds,wolfe2,093_L_switch,1,40,A7O82NXM2PI12,2021-01-25_16h36.58.971,MetaAwareness,2020.1.2,Win32,60,3TZ0XG8CBVN0GXIPZM0T1B04DYC892,A7O82NXM2PI12,3Z7VU45IPZK0X8EBU1QFN8AD4ABZ13,IU7Z5,IU7Z5,3Z7VU45IPZK0X8EBU1QFN8AD4ABZ13,3Z7VU45IPZK0X8EBU1QFN8AD4ABZ13,271255,271255,,,,,,,,,,
,,,,2,6.778155,0,19,19,107,1,a modern-style house with a lot of grey and white shades,a modern style house with a lot of grey and white shades with overhead lighting attached to the wall,wolfe2,019_L_lamp_sized,4,40,A7O82NXM2PI12,2021-01-25_16h36.58.971,MetaAwareness,2020.1.2,Win32,60,3TZ0XG8CBVN0GXIPZM0T1B04DYC892,A7O82NXM2PI12,3Z7VU45IPZK0X8EBU1QFN8AD4ABZ13,IU7Z5,IU7Z5,3Z7VU45IPZK0X8EBU1QFN8AD4ABZ13,3Z7VU45IPZK0X8EBU1QFN8AD4ABZ13,271255,271255,,,,,,,,,,
,,,,2,0.08923,0,20,20,422,1,water pipe not available in this,water pipe has installed,wolfe2,078_R_faucet,2,40,A7O82NXM2PI12,2021-01-25_16h36.58.971,MetaAwareness,2020.1.2,Win32,60,3TZ0XG8CBVN0GXIPZM0T1B04DYC892,A7O82NXM2PI12,3Z7VU45IPZK0X8EBU1QFN8AD4ABZ13,IU7Z5,IU7Z5,3Z7VU45IPZK0X8EBU1QFN8AD4ABZ13,3Z7VU45IPZK0X8EBU1QFN8AD4ABZ13,271255,271255,,,,,,,,,,
,,,,3,13.62478,0,21,21,555,1,"a double vanity with a tan countertop, white sinks, cherry cabinets, a wall hook, and a wall sized mirror","a double vanity with a tan countertop, white sinks, cherry cabinets, and a wall sized mirror",wolfe2,103_L_hook,3,40,A7O82NXM2PI12,2021-01-25_16h36.58.971,MetaAwareness,2020.1.2,Win32,60,3TZ0XG8CBVN0GXIPZM0T1B04DYC892,A7O82NXM2PI12,3Z7VU45IPZK0X8EBU1QFN8AD4ABZ13,IU7Z5,IU7Z5,3Z7VU45IPZK0X8EBU1QFN8AD4ABZ13,3Z7VU45IPZK0X8EBU1QFN8AD4ABZ13,271255,271255,,,,,,,,,,
,,,,2,5.318025,0,22,22,256,1,a grand bedroom with stripped wallpaper,a grand bedroom with a vase to the right of the sofa,wolfe2,048_R_art,4,40,A7O82NXM2PI12,2021-01-25_16h36.58.971,MetaAwareness,2020.1.2,Win32,60,3TZ0XG8CBVN0GXIPZM0T1B04DYC892,A7O82NXM2PI12,3Z7VU45IPZK0X8EBU1QFN8AD4ABZ13,IU7Z5,IU7Z5,3Z7VU45IPZK0X8EBU1QFN8AD4ABZ13,3Z7VU45IPZK0X8EBU1QFN8AD4ABZ13,271255,271255,,,,,,,,,,
,,,,5,18.45242,0,23,23,181,1,a very nice contemporary living room with a shelf with serveral nice pieces of art on display.,a very nice contemporary living room with a shelf with several nice pieces of art on display as well as a very nice vase.,wolfe2,033_L_vase,1,40,A7O82NXM2PI12,2021-01-25_16h36.58.971,MetaAwareness,2020.1.2,Win32,60,3TZ0XG8CBVN0GXIPZM0T1B04DYC892,A7O82NXM2PI12,3Z7VU45IPZK0X8EBU1QFN8AD4ABZ13,IU7Z5,IU7Z5,3Z7VU45IPZK0X8EBU1QFN8AD4ABZ13,3Z7VU45IPZK0X8EBU1QFN8AD4ABZ13,271255,271255,,,,,,,,,,
,,,,6,9.31675,0,24,24,129,1,a patio with a tv,a patio with a tv and remote,wolfe2,023_L_remote,6,40,A7O82NXM2PI12,2021-01-25_16h36.58.971,MetaAwareness,2020.1.2,Win32,60,3TZ0XG8CBVN0GXIPZM0T1B04DYC892,A7O82NXM2PI12,3Z7VU45IPZK0X8EBU1QFN8AD4ABZ13,IU7Z5,IU7Z5,3Z7VU45IPZK0X8EBU1QFN8AD4ABZ13,3Z7VU45IPZK0X8EBU1QFN8AD4ABZ13,271255,271255,,,,,,,,,,
,,,,2,10.831975,0,25,25,454,1,a nice living area with a patio overlooking the water and there is a wall sconce on the wall to the left of the patio door.,a nice living area with a patio overlooking the water,wolfe2,084_L_light,4,40,A7O82NXM2PI12,2021-01-25_16h36.58.971,MetaAwareness,2020.1.2,Win32,60,3TZ0XG8CBVN0GXIPZM0T1B04DYC892,A7O82NXM2PI12,3Z7VU45IPZK0X8EBU1QFN8AD4ABZ13,IU7Z5,IU7Z5,3Z7VU45IPZK0X8EBU1QFN8AD4ABZ13,3Z7VU45IPZK0X8EBU1QFN8AD4ABZ13,271255,271255,,,,,,,,,,
,,,,4,10.17694,0,26,26,557,1,"a bathroom with beige colored walls, with a mirror, a towel holder, a towel hook, and electrical fixtures on the wall","a bathroom with beige colored walls, with a mirror, a towel holder, and electrical fixtures on the wall",wolfe2,103_R_hook,3,40,A7O82NXM2PI12,2021-01-25_16h36.58.971,MetaAwareness,2020.1.2,Win32,60,3TZ0XG8CBVN0GXIPZM0T1B04DYC892,A7O82NXM2PI12,3Z7VU45IPZK0X8EBU1QFN8AD4ABZ13,IU7Z5,IU7Z5,3Z7VU45IPZK0X8EBU1QFN8AD4ABZ13,3Z7VU45IPZK0X8EBU1QFN8AD4ABZ13,271255,271255,,,,,,,,,,
,,,,4,10.814345,0,27,27,305,1,a child's bedroom decorated in primary colors and an empty space above the red and white wardrobe.,a child's bedroom decorated in primary colors and a car sitting on top of the red and white wardrobe.,wolfe2,059_L_car,1,40,A7O82NXM2PI12,2021-01-25_16h36.58.971,MetaAwareness,2020.1.2,Win32,60,3TZ0XG8CBVN0GXIPZM0T1B04DYC892,A7O82NXM2PI12,3Z7VU45IPZK0X8EBU1QFN8AD4ABZ13,IU7Z5,IU7Z5,3Z7VU45IPZK0X8EBU1QFN8AD4ABZ13,3Z7VU45IPZK0X8EBU1QFN8AD4ABZ13,271255,271255,,,,,,,,,,
,,,,3,21.680145,0,28,28,384,1,black and cream bedroom with bottom left handle missing off 6-drawer dresser,black and cream bedroom with all handles on the 6-drawer dresser,wolfe2,072_L_handle,1,40,A7O82NXM2PI12,2021-01-25_16h36.58.971,MetaAwareness,2020.1.2,Win32,60,3TZ0XG8CBVN0GXIPZM0T1B04DYC892,A7O82NXM2PI12,3Z7VU45IPZK0X8EBU1QFN8AD4ABZ13,IU7Z5,IU7Z5,3Z7VU45IPZK0X8EBU1QFN8AD4ABZ13,3Z7VU45IPZK0X8EBU1QFN8AD4ABZ13,271255,271255,,,,,,,,,,
,,,,4,9.86547,0,29,29,698,1,a very spacious and tall living room of a huge house with a light on one side of the wall,a very spacious and tall living room of a huge house,wolfe2,127_R_light,2,40,A7O82NXM2PI12,2021-01-25_16h36.58.971,MetaAwareness,2020.1.2,Win32,60,3TZ0XG8CBVN0GXIPZM0T1B04DYC892,A7O82NXM2PI12,3Z7VU45IPZK0X8EBU1QFN8AD4ABZ13,IU7Z5,IU7Z5,3Z7VU45IPZK0X8EBU1QFN8AD4ABZ13,3Z7VU45IPZK0X8EBU1QFN8AD4ABZ13,271255,271255,,,,,,,,,,
,,,,,,,,,,,,,,,,40,A7O82NXM2PI12,2021-01-25_16h36.58.971,MetaAwareness,2020.1.2,Win32,60,3TZ0XG8CBVN0GXIPZM0T1B04DYC892,A7O82NXM2PI12,3Z7VU45IPZK0X8EBU1QFN8AD4ABZ13,IU7Z5,IU7Z5,3Z7VU45IPZK0X8EBU1QFN8AD4ABZ13,3Z7VU45IPZK0X8EBU1QFN8AD4ABZ13,271255,271255,6,9.704955,someone laying underneath a blue beach umbrella on a crowded beach,someone laying underneath a blue beach umbrella on a crowded beach,same,1,14.773265,members of a marching band crossing a track that all have feather plumes at the front of their hats,a cluttered and rustic looking cafe with 10 hanging lights,different
