consent_response.keys,consent_response.rt,key_resp_2.keys,key_resp_2.rt,user_resp.keys,user_resp.rt,trials.thisRepN,trials.thisTrialN,trials.thisN,trials.thisIndex,trials.ran,image_1_text,image_2_text,database,image,number,age,worker_ID,date,expName,psychopyVersion,OS,frameRate,hitId,workerId,assignmentId,a,tp_a,b,tp_b,c,tp_c,catch_same_resp.keys,catch_same_resp.rt,image_1_text_catch_same,image_2_text_catch_same,image_catch_same,catch_different_resp.keys,catch_different_resp.rt,image_1_text_catch_different,image_2_text_catch_different,image_catch_different
space,7.104105,space,10.67027,1,7.48321,0,0,0,224,1,it is an empty wall,it has a water pipe,wolfe2,042_L_tap,1,47,ACW4O8CBAIAWM,2021-01-25_15h32.39.004,MetaAwareness,2020.1.2,Win32,60,3W5PY7V3UQA41FMGY2P0PI292HNJYG,ACW4O8CBAIAWM,3LBXNTKX0SYTHIHRXWHN5TCLUMQ9XE,XNBL5,XNBL5,3LBXNTKX0SYTHIHRXWHN5TCLUMQ9XE,3LBXNTKX0SYTHIHRXWHN5TCLUMQ9XE,271255,271255,,,,,,,,,,
,,,,3,11.20632,0,1,1,353,1,an empty office with 1 huge picture on the wall,an empty office with a couple artwork pictures,wolfe2,067_L_painting,1,47,ACW4O8CBAIAWM,2021-01-25_15h32.39.004,MetaAwareness,2020.1.2,Win32,60,3W5PY7V3UQA41FMGY2P0PI292HNJYG,ACW4O8CBAIAWM,3LBXNTKX0SYTHIHRXWHN5TCLUMQ9XE,XNBL5,XNBL5,3LBXNTKX0SYTHIHRXWHN5TCLUMQ9XE,3LBXNTKX0SYTHIHRXWHN5TCLUMQ9XE,271255,271255,,,,,,,,,,
,,,,5,11.793195,0,2,2,650,1,a living room with a screen door to the outside and a flower and two gold statues on the mantle,a living room with a screen door to the outside and a flower and one gold statue on the mantle,wolfe2,120_L_art,4,47,ACW4O8CBAIAWM,2021-01-25_15h32.39.004,MetaAwareness,2020.1.2,Win32,60,3W5PY7V3UQA41FMGY2P0PI292HNJYG,ACW4O8CBAIAWM,3LBXNTKX0SYTHIHRXWHN5TCLUMQ9XE,XNBL5,XNBL5,3LBXNTKX0SYTHIHRXWHN5TCLUMQ9XE,3LBXNTKX0SYTHIHRXWHN5TCLUMQ9XE,271255,271255,,,,,,,,,,
,,,,5,4.352645,0,3,3,515,1,a room with four candles displayed by the mirror,a room with three candles displayed by the miror,wolfe2,095_R_candle,7,47,ACW4O8CBAIAWM,2021-01-25_15h32.39.004,MetaAwareness,2020.1.2,Win32,60,3W5PY7V3UQA41FMGY2P0PI292HNJYG,ACW4O8CBAIAWM,3LBXNTKX0SYTHIHRXWHN5TCLUMQ9XE,XNBL5,XNBL5,3LBXNTKX0SYTHIHRXWHN5TCLUMQ9XE,3LBXNTKX0SYTHIHRXWHN5TCLUMQ9XE,271255,271255,,,,,,,,,,
,,,,5,6.960225,0,4,4,0,1,a bedroom with a swan picture and blue walls,a bedroom with a swan picture and blue walls and a hanging mirror near the corner of the room,wolfe2,001_L_mirror,2,47,ACW4O8CBAIAWM,2021-01-25_15h32.39.004,MetaAwareness,2020.1.2,Win32,60,3W5PY7V3UQA41FMGY2P0PI292HNJYG,ACW4O8CBAIAWM,3LBXNTKX0SYTHIHRXWHN5TCLUMQ9XE,XNBL5,XNBL5,3LBXNTKX0SYTHIHRXWHN5TCLUMQ9XE,3LBXNTKX0SYTHIHRXWHN5TCLUMQ9XE,271255,271255,,,,,,,,,,
,,,,5,11.721645,0,5,5,687,1,a media room with a large angled sofa coverd with black fabric. the sofa faces a media wall with screen and shelving. there's a candle set on the lowest shelf.,a media room with a large angled sofa covered with black fabric. the sofa faces a media wall with screen and shelving.,wolfe2,126_L_candles,2,47,ACW4O8CBAIAWM,2021-01-25_15h32.39.004,MetaAwareness,2020.1.2,Win32,60,3W5PY7V3UQA41FMGY2P0PI292HNJYG,ACW4O8CBAIAWM,3LBXNTKX0SYTHIHRXWHN5TCLUMQ9XE,XNBL5,XNBL5,3LBXNTKX0SYTHIHRXWHN5TCLUMQ9XE,3LBXNTKX0SYTHIHRXWHN5TCLUMQ9XE,271255,271255,,,,,,,,,,
,,,,4,9.006845,0,6,6,297,1,there is a rathe large stain on the rug at the library.,there is a white trashcan on the rug at the library.,wolfe2,057_R_bin,2,47,ACW4O8CBAIAWM,2021-01-25_15h32.39.004,MetaAwareness,2020.1.2,Win32,60,3W5PY7V3UQA41FMGY2P0PI292HNJYG,ACW4O8CBAIAWM,3LBXNTKX0SYTHIHRXWHN5TCLUMQ9XE,XNBL5,XNBL5,3LBXNTKX0SYTHIHRXWHN5TCLUMQ9XE,3LBXNTKX0SYTHIHRXWHN5TCLUMQ9XE,271255,271255,,,,,,,,,,
,,,,5,11.215215,0,7,7,111,1,a desk sits in the corner of the room with some decorations on the wall.,a desk sits in the corner of the room with three decorations of circles o the wall.,wolfe2,020_L_walldeco,3,47,ACW4O8CBAIAWM,2021-01-25_15h32.39.004,MetaAwareness,2020.1.2,Win32,60,3W5PY7V3UQA41FMGY2P0PI292HNJYG,ACW4O8CBAIAWM,3LBXNTKX0SYTHIHRXWHN5TCLUMQ9XE,XNBL5,XNBL5,3LBXNTKX0SYTHIHRXWHN5TCLUMQ9XE,3LBXNTKX0SYTHIHRXWHN5TCLUMQ9XE,271255,271255,,,,,,,,,,
,,,,5,3.446635,0,8,8,408,1,bathroom with big mirror,bathroom with big mirror and hook for hand towels above the sink,wolfe2,076_L_hook,4,47,ACW4O8CBAIAWM,2021-01-25_15h32.39.004,MetaAwareness,2020.1.2,Win32,60,3W5PY7V3UQA41FMGY2P0PI292HNJYG,ACW4O8CBAIAWM,3LBXNTKX0SYTHIHRXWHN5TCLUMQ9XE,XNBL5,XNBL5,3LBXNTKX0SYTHIHRXWHN5TCLUMQ9XE,3LBXNTKX0SYTHIHRXWHN5TCLUMQ9XE,271255,271255,,,,,,,,,,
,,,,5,8.114405,0,9,9,325,1,"a quaint living room with two mirrors, a tiny table in the middle, and a foot rest","a quaint living with two mirrors, a tiny table in the middle, and a foot rest with a tan colored aparatus on it",wolfe2,062_L_flowers,4,47,ACW4O8CBAIAWM,2021-01-25_15h32.39.004,MetaAwareness,2020.1.2,Win32,60,3W5PY7V3UQA41FMGY2P0PI292HNJYG,ACW4O8CBAIAWM,3LBXNTKX0SYTHIHRXWHN5TCLUMQ9XE,XNBL5,XNBL5,3LBXNTKX0SYTHIHRXWHN5TCLUMQ9XE,3LBXNTKX0SYTHIHRXWHN5TCLUMQ9XE,271255,271255,,,,,,,,,,
,,,,6,5.178745,0,10,10,204,1,a gorgeous white and wood bathroom includes small shelves near the bath and shower for washcloths and decor.,a gorgeous white and wood bathroom includes small shelves near the bath and shower for washcloths and decor.,wolfe2,037_L_towel,2,47,ACW4O8CBAIAWM,2021-01-25_15h32.39.004,MetaAwareness,2020.1.2,Win32,60,3W5PY7V3UQA41FMGY2P0PI292HNJYG,ACW4O8CBAIAWM,3LBXNTKX0SYTHIHRXWHN5TCLUMQ9XE,XNBL5,XNBL5,3LBXNTKX0SYTHIHRXWHN5TCLUMQ9XE,3LBXNTKX0SYTHIHRXWHN5TCLUMQ9XE,271255,271255,,,,,,,,,,
,,,,2,11.103585,0,11,11,489,1,fancy bedroom with a small lamp in the corner.,fancy bedrom with nothing in the corner.,wolfe2,090_L_lamp,4,47,ACW4O8CBAIAWM,2021-01-25_15h32.39.004,MetaAwareness,2020.1.2,Win32,60,3W5PY7V3UQA41FMGY2P0PI292HNJYG,ACW4O8CBAIAWM,3LBXNTKX0SYTHIHRXWHN5TCLUMQ9XE,XNBL5,XNBL5,3LBXNTKX0SYTHIHRXWHN5TCLUMQ9XE,3LBXNTKX0SYTHIHRXWHN5TCLUMQ9XE,271255,271255,,,,,,,,,,
,,,,3,11.79345,0,12,12,505,1,a bedroom with large painting on the wall with a switch between two beds,a beautiful bedroom with a large paining on the wall and missing switch between two beds,wolfe2,093_L_switch,3,47,ACW4O8CBAIAWM,2021-01-25_15h32.39.004,MetaAwareness,2020.1.2,Win32,60,3W5PY7V3UQA41FMGY2P0PI292HNJYG,ACW4O8CBAIAWM,3LBXNTKX0SYTHIHRXWHN5TCLUMQ9XE,XNBL5,XNBL5,3LBXNTKX0SYTHIHRXWHN5TCLUMQ9XE,3LBXNTKX0SYTHIHRXWHN5TCLUMQ9XE,271255,271255,,,,,,,,,,
,,,,5,15.40842,0,13,13,395,1,aa nice kitchen with marble counter tops an island and a what looks like pasta next to a double oven,a nice well lit kitchen with hardwood floors and what looks like dry pasta next to a double oven.,wolfe2,073_L_coffeemug,4,47,ACW4O8CBAIAWM,2021-01-25_15h32.39.004,MetaAwareness,2020.1.2,Win32,60,3W5PY7V3UQA41FMGY2P0PI292HNJYG,ACW4O8CBAIAWM,3LBXNTKX0SYTHIHRXWHN5TCLUMQ9XE,XNBL5,XNBL5,3LBXNTKX0SYTHIHRXWHN5TCLUMQ9XE,3LBXNTKX0SYTHIHRXWHN5TCLUMQ9XE,271255,271255,,,,,,,,,,
,,,,3,9.429605,0,14,14,91,1,a sleek and pale living room with nothing on the pillar,a sleek and pale living room with a black statue on top of the pillar,wolfe2,016_L_art,1,47,ACW4O8CBAIAWM,2021-01-25_15h32.39.004,MetaAwareness,2020.1.2,Win32,60,3W5PY7V3UQA41FMGY2P0PI292HNJYG,ACW4O8CBAIAWM,3LBXNTKX0SYTHIHRXWHN5TCLUMQ9XE,XNBL5,XNBL5,3LBXNTKX0SYTHIHRXWHN5TCLUMQ9XE,3LBXNTKX0SYTHIHRXWHN5TCLUMQ9XE,271255,271255,,,,,,,,,,
,,,,5,7.488945,0,15,15,488,1,a cozy bedroom with mirror closets.,a cozy bedroom with mirror closets and a lamp in the corner.,wolfe2,090_L_lamp,3,47,ACW4O8CBAIAWM,2021-01-25_15h32.39.004,MetaAwareness,2020.1.2,Win32,60,3W5PY7V3UQA41FMGY2P0PI292HNJYG,ACW4O8CBAIAWM,3LBXNTKX0SYTHIHRXWHN5TCLUMQ9XE,XNBL5,XNBL5,3LBXNTKX0SYTHIHRXWHN5TCLUMQ9XE,3LBXNTKX0SYTHIHRXWHN5TCLUMQ9XE,271255,271255,,,,,,,,,,
,,,,3,12.13252,0,16,16,597,1,a living room with an orange pillow on the couch.,a living room with no pillow on the couch.,wolfe2,109_R_pillow,1,47,ACW4O8CBAIAWM,2021-01-25_15h32.39.004,MetaAwareness,2020.1.2,Win32,60,3W5PY7V3UQA41FMGY2P0PI292HNJYG,ACW4O8CBAIAWM,3LBXNTKX0SYTHIHRXWHN5TCLUMQ9XE,XNBL5,XNBL5,3LBXNTKX0SYTHIHRXWHN5TCLUMQ9XE,3LBXNTKX0SYTHIHRXWHN5TCLUMQ9XE,271255,271255,,,,,,,,,,
,,,,5,8.636445,0,17,17,202,1,lit and spacious kitchen with a color combination of red and white,"lit and spacious kitchen with a color combination of red and white, bowls in the middle",wolfe2,036_R_bowl,4,47,ACW4O8CBAIAWM,2021-01-25_15h32.39.004,MetaAwareness,2020.1.2,Win32,60,3W5PY7V3UQA41FMGY2P0PI292HNJYG,ACW4O8CBAIAWM,3LBXNTKX0SYTHIHRXWHN5TCLUMQ9XE,XNBL5,XNBL5,3LBXNTKX0SYTHIHRXWHN5TCLUMQ9XE,3LBXNTKX0SYTHIHRXWHN5TCLUMQ9XE,271255,271255,,,,,,,,,,
,,,,5,8.298915,0,18,18,421,1,a bathroom with a faucet and left side handle.,a bathroom with a faucet and left and right side handle.,wolfe2,078_R_faucet,1,47,ACW4O8CBAIAWM,2021-01-25_15h32.39.004,MetaAwareness,2020.1.2,Win32,60,3W5PY7V3UQA41FMGY2P0PI292HNJYG,ACW4O8CBAIAWM,3LBXNTKX0SYTHIHRXWHN5TCLUMQ9XE,XNBL5,XNBL5,3LBXNTKX0SYTHIHRXWHN5TCLUMQ9XE,3LBXNTKX0SYTHIHRXWHN5TCLUMQ9XE,271255,271255,,,,,,,,,,
,,,,5,6.2433,0,19,19,198,1,"a bedroom with some tables and a couple of lamps, and a long table with two vases on it","a bedroom with some tables and a couple of lamps, and a long table with two vases and a small art object on it",wolfe2,035_R_fruit,4,47,ACW4O8CBAIAWM,2021-01-25_15h32.39.004,MetaAwareness,2020.1.2,Win32,60,3W5PY7V3UQA41FMGY2P0PI292HNJYG,ACW4O8CBAIAWM,3LBXNTKX0SYTHIHRXWHN5TCLUMQ9XE,XNBL5,XNBL5,3LBXNTKX0SYTHIHRXWHN5TCLUMQ9XE,3LBXNTKX0SYTHIHRXWHN5TCLUMQ9XE,271255,271255,,,,,,,,,,
,,,,5,4.760885,0,20,20,221,1,room  with chair and table.  two lamp is hang theres is no fruit in the bowl,"room with chair and table. two  lamp is hanging, there is fruit in the bowel",wolfe2,041_L_fruit,1,47,ACW4O8CBAIAWM,2021-01-25_15h32.39.004,MetaAwareness,2020.1.2,Win32,60,3W5PY7V3UQA41FMGY2P0PI292HNJYG,ACW4O8CBAIAWM,3LBXNTKX0SYTHIHRXWHN5TCLUMQ9XE,XNBL5,XNBL5,3LBXNTKX0SYTHIHRXWHN5TCLUMQ9XE,3LBXNTKX0SYTHIHRXWHN5TCLUMQ9XE,271255,271255,,,,,,,,,,
,,,,5,2.283235,0,21,21,129,1,a patio with a tv,a patio with a tv and remote,wolfe2,023_L_remote,6,47,ACW4O8CBAIAWM,2021-01-25_15h32.39.004,MetaAwareness,2020.1.2,Win32,60,3W5PY7V3UQA41FMGY2P0PI292HNJYG,ACW4O8CBAIAWM,3LBXNTKX0SYTHIHRXWHN5TCLUMQ9XE,XNBL5,XNBL5,3LBXNTKX0SYTHIHRXWHN5TCLUMQ9XE,3LBXNTKX0SYTHIHRXWHN5TCLUMQ9XE,271255,271255,,,,,,,,,,
,,,,5,8.89164,0,22,22,33,1,"bedroom with four pictures,a mirroe and bed table with lamp","bedroom with four pictures on the wall, a mirror and bed table with lampand vase",wolfe2,006_L_vase,4,47,ACW4O8CBAIAWM,2021-01-25_15h32.39.004,MetaAwareness,2020.1.2,Win32,60,3W5PY7V3UQA41FMGY2P0PI292HNJYG,ACW4O8CBAIAWM,3LBXNTKX0SYTHIHRXWHN5TCLUMQ9XE,XNBL5,XNBL5,3LBXNTKX0SYTHIHRXWHN5TCLUMQ9XE,3LBXNTKX0SYTHIHRXWHN5TCLUMQ9XE,271255,271255,,,,,,,,,,
,,,,5,9.831485,0,23,23,41,1,a bathroom that has a window with white blinds with what appears to be glass cleaner on the ledge,a bathroom that has a window with white blinds and there are 2 bottles on the window ledge,wolfe2,008_L_bottle,4,47,ACW4O8CBAIAWM,2021-01-25_15h32.39.004,MetaAwareness,2020.1.2,Win32,60,3W5PY7V3UQA41FMGY2P0PI292HNJYG,ACW4O8CBAIAWM,3LBXNTKX0SYTHIHRXWHN5TCLUMQ9XE,XNBL5,XNBL5,3LBXNTKX0SYTHIHRXWHN5TCLUMQ9XE,3LBXNTKX0SYTHIHRXWHN5TCLUMQ9XE,271255,271255,,,,,,,,,,
,,,,5,4.074925,0,24,24,549,1,a well lit white living room with a white box,a well lit white living room,wolfe2,102_L_shoppingbag,2,47,ACW4O8CBAIAWM,2021-01-25_15h32.39.004,MetaAwareness,2020.1.2,Win32,60,3W5PY7V3UQA41FMGY2P0PI292HNJYG,ACW4O8CBAIAWM,3LBXNTKX0SYTHIHRXWHN5TCLUMQ9XE,XNBL5,XNBL5,3LBXNTKX0SYTHIHRXWHN5TCLUMQ9XE,3LBXNTKX0SYTHIHRXWHN5TCLUMQ9XE,271255,271255,,,,,,,,,,
,,,,5,3.85274,0,25,25,72,1,there are table and chairs at the office kitchen with one lamp hang on the top of ceiling,there are table and chairs at the office kitchen with two lamps hang on the top of ceiling,wolfe2,013_L_lamp,7,47,ACW4O8CBAIAWM,2021-01-25_15h32.39.004,MetaAwareness,2020.1.2,Win32,60,3W5PY7V3UQA41FMGY2P0PI292HNJYG,ACW4O8CBAIAWM,3LBXNTKX0SYTHIHRXWHN5TCLUMQ9XE,XNBL5,XNBL5,3LBXNTKX0SYTHIHRXWHN5TCLUMQ9XE,3LBXNTKX0SYTHIHRXWHN5TCLUMQ9XE,271255,271255,,,,,,,,,,
,,,,6,4.80076,0,26,26,525,1,a bedroom without a light on the wall,a bedroom with nothing on the wall,wolfe2,097_R_light,3,47,ACW4O8CBAIAWM,2021-01-25_15h32.39.004,MetaAwareness,2020.1.2,Win32,60,3W5PY7V3UQA41FMGY2P0PI292HNJYG,ACW4O8CBAIAWM,3LBXNTKX0SYTHIHRXWHN5TCLUMQ9XE,XNBL5,XNBL5,3LBXNTKX0SYTHIHRXWHN5TCLUMQ9XE,3LBXNTKX0SYTHIHRXWHN5TCLUMQ9XE,271255,271255,,,,,,,,,,
,,,,5,12.677735,0,27,27,699,1,"a large sitting room in a house with two sofas, a dog, and two lights on the wall","a large sitting room in a  house with two sofas, a dog in a dog bed, and one light on the wall",wolfe2,127_R_light,3,47,ACW4O8CBAIAWM,2021-01-25_15h32.39.004,MetaAwareness,2020.1.2,Win32,60,3W5PY7V3UQA41FMGY2P0PI292HNJYG,ACW4O8CBAIAWM,3LBXNTKX0SYTHIHRXWHN5TCLUMQ9XE,XNBL5,XNBL5,3LBXNTKX0SYTHIHRXWHN5TCLUMQ9XE,3LBXNTKX0SYTHIHRXWHN5TCLUMQ9XE,271255,271255,,,,,,,,,,
,,,,5,5.06136,0,28,28,457,1,a living room with a scenic view,a living room with a scenic view and wall light,wolfe2,084_R_light,6,47,ACW4O8CBAIAWM,2021-01-25_15h32.39.004,MetaAwareness,2020.1.2,Win32,60,3W5PY7V3UQA41FMGY2P0PI292HNJYG,ACW4O8CBAIAWM,3LBXNTKX0SYTHIHRXWHN5TCLUMQ9XE,XNBL5,XNBL5,3LBXNTKX0SYTHIHRXWHN5TCLUMQ9XE,3LBXNTKX0SYTHIHRXWHN5TCLUMQ9XE,271255,271255,,,,,,,,,,
,,,,4,11.025715,0,29,29,522,1,bed room with hot and pillow there is a light in the wall,bed room withpillow and hot .  no light is on the wall,wolfe2,097_L_light,1,47,ACW4O8CBAIAWM,2021-01-25_15h32.39.004,MetaAwareness,2020.1.2,Win32,60,3W5PY7V3UQA41FMGY2P0PI292HNJYG,ACW4O8CBAIAWM,3LBXNTKX0SYTHIHRXWHN5TCLUMQ9XE,XNBL5,XNBL5,3LBXNTKX0SYTHIHRXWHN5TCLUMQ9XE,3LBXNTKX0SYTHIHRXWHN5TCLUMQ9XE,271255,271255,,,,,,,,,,
,,,,,,,,,,,,,,,,47,ACW4O8CBAIAWM,2021-01-25_15h32.39.004,MetaAwareness,2020.1.2,Win32,60,3W5PY7V3UQA41FMGY2P0PI292HNJYG,ACW4O8CBAIAWM,3LBXNTKX0SYTHIHRXWHN5TCLUMQ9XE,XNBL5,XNBL5,3LBXNTKX0SYTHIHRXWHN5TCLUMQ9XE,3LBXNTKX0SYTHIHRXWHN5TCLUMQ9XE,271255,271255,6,6.8325,someone laying underneath a blue beach umbrella on a crowded beach,someone laying underneath a blue beach umbrella on a crowded beach,same,1,4.965325,members of a marching band crossing a track that all have feather plumes at the front of their hats,a cluttered and rustic looking cafe with 10 hanging lights,different
