consent_response.keys,consent_response.rt,key_resp_2.keys,key_resp_2.rt,user_resp.keys,user_resp.rt,trials.thisRepN,trials.thisTrialN,trials.thisN,trials.thisIndex,trials.ran,image_1_text,image_2_text,database,image,number,age,worker_ID,date,expName,psychopyVersion,OS,frameRate,hitId,workerId,assignmentId,a,tp_a,b,tp_b,c,tp_c,catch_same_resp.keys,catch_same_resp.rt,image_1_text_catch_same,image_2_text_catch_same,image_catch_same,catch_different_resp.keys,catch_different_resp.rt,image_1_text_catch_different,image_2_text_catch_different,image_catch_different
space,20.964,space,64.038,5,195.286,0,0,0,119,1,a room with a pink desk and a wall desk with a monitor and a black mat.,an open space room with matching chairs and pink desk with a yellow wall commputer and black keyboard.,wolfe2,021_R_keyboard,5,41,AH93UJ6OQU0QA,2021-01-25_17h08.39.749,MetaAwareness,2020.1.2,Win32,60,3IWA71V4TJJ3DFHZ9N99X0QVE6DX6O,AH93UJ6OQU0QA,3XUHV3NRVL1DU5F0P2MKQRJPK045H6,RVUX5,RVUX5,3XUHV3NRVL1DU5F0P2MKQRJPK045H6,3XUHV3NRVL1DU5F0P2MKQRJPK045H6,271255,271255,,,,,,,,,,
,,,,4,0.296,0,1,1,557,1,"a bathroom with beige colored walls, with a mirror, a towel holder, a towel hook, and electrical fixtures on the wall","a bathroom with beige colored walls, with a mirror, a towel holder, and electrical fixtures on the wall",wolfe2,103_R_hook,3,41,AH93UJ6OQU0QA,2021-01-25_17h08.39.749,MetaAwareness,2020.1.2,Win32,60,3IWA71V4TJJ3DFHZ9N99X0QVE6DX6O,AH93UJ6OQU0QA,3XUHV3NRVL1DU5F0P2MKQRJPK045H6,RVUX5,RVUX5,3XUHV3NRVL1DU5F0P2MKQRJPK045H6,3XUHV3NRVL1DU5F0P2MKQRJPK045H6,271255,271255,,,,,,,,,,
,,,,6,3.207,0,2,2,538,1,a modern looking bathroom that has a retractable mirror on the side of the wall,a modern looking bathroom that has a side mirror without a retractable mirror,wolfe2,100_L_mirror,2,41,AH93UJ6OQU0QA,2021-01-25_17h08.39.749,MetaAwareness,2020.1.2,Win32,60,3IWA71V4TJJ3DFHZ9N99X0QVE6DX6O,AH93UJ6OQU0QA,3XUHV3NRVL1DU5F0P2MKQRJPK045H6,RVUX5,RVUX5,3XUHV3NRVL1DU5F0P2MKQRJPK045H6,3XUHV3NRVL1DU5F0P2MKQRJPK045H6,271255,271255,,,,,,,,,,
,,,,4,2.421,0,3,3,549,1,a well lit white living room with a white box,a well lit white living room,wolfe2,102_L_shoppingbag,2,41,AH93UJ6OQU0QA,2021-01-25_17h08.39.749,MetaAwareness,2020.1.2,Win32,60,3IWA71V4TJJ3DFHZ9N99X0QVE6DX6O,AH93UJ6OQU0QA,3XUHV3NRVL1DU5F0P2MKQRJPK045H6,RVUX5,RVUX5,3XUHV3NRVL1DU5F0P2MKQRJPK045H6,3XUHV3NRVL1DU5F0P2MKQRJPK045H6,271255,271255,,,,,,,,,,
,,,,5,1.583,0,4,4,622,1,a fancy looking kitchen area. there is an island in the center and a section off to the side that looks like a dinning room. there is a plant in a pot near a window on the counter.,a fancy looking kitchen area. there is an island in the center and a section off to the side that looks like a dinning area. there is nothing on the counter near the window.,wolfe2,115_L_pot,2,41,AH93UJ6OQU0QA,2021-01-25_17h08.39.749,MetaAwareness,2020.1.2,Win32,60,3IWA71V4TJJ3DFHZ9N99X0QVE6DX6O,AH93UJ6OQU0QA,3XUHV3NRVL1DU5F0P2MKQRJPK045H6,RVUX5,RVUX5,3XUHV3NRVL1DU5F0P2MKQRJPK045H6,3XUHV3NRVL1DU5F0P2MKQRJPK045H6,271255,271255,,,,,,,,,,
,,,,3,1.796,0,5,5,408,1,bathroom with big mirror,bathroom with big mirror and hook for hand towels above the sink,wolfe2,076_L_hook,4,41,AH93UJ6OQU0QA,2021-01-25_17h08.39.749,MetaAwareness,2020.1.2,Win32,60,3IWA71V4TJJ3DFHZ9N99X0QVE6DX6O,AH93UJ6OQU0QA,3XUHV3NRVL1DU5F0P2MKQRJPK045H6,RVUX5,RVUX5,3XUHV3NRVL1DU5F0P2MKQRJPK045H6,3XUHV3NRVL1DU5F0P2MKQRJPK045H6,271255,271255,,,,,,,,,,
,,,,6,3.822,0,6,6,24,1,"a combined home office and living space with a modern look and feel, with the wall above the couch being empty","a combined home office and living space with a modern look and feel, with the wall above the couch containing a mirror with three panels",wolfe2,005_L_mirror,1,41,AH93UJ6OQU0QA,2021-01-25_17h08.39.749,MetaAwareness,2020.1.2,Win32,60,3IWA71V4TJJ3DFHZ9N99X0QVE6DX6O,AH93UJ6OQU0QA,3XUHV3NRVL1DU5F0P2MKQRJPK045H6,RVUX5,RVUX5,3XUHV3NRVL1DU5F0P2MKQRJPK045H6,3XUHV3NRVL1DU5F0P2MKQRJPK045H6,271255,271255,,,,,,,,,,
,,,,4,1.714,0,7,7,203,1,towels well aranged,more towels on a rack,wolfe2,037_L_towel,1,41,AH93UJ6OQU0QA,2021-01-25_17h08.39.749,MetaAwareness,2020.1.2,Win32,60,3IWA71V4TJJ3DFHZ9N99X0QVE6DX6O,AH93UJ6OQU0QA,3XUHV3NRVL1DU5F0P2MKQRJPK045H6,RVUX5,RVUX5,3XUHV3NRVL1DU5F0P2MKQRJPK045H6,3XUHV3NRVL1DU5F0P2MKQRJPK045H6,271255,271255,,,,,,,,,,
,,,,5,1.237,0,8,8,624,1,a kitchen and cabinets with a plant on the counter,a kitchen and cabinets with a large spacious counter,wolfe2,115_R_pot,2,41,AH93UJ6OQU0QA,2021-01-25_17h08.39.749,MetaAwareness,2020.1.2,Win32,60,3IWA71V4TJJ3DFHZ9N99X0QVE6DX6O,AH93UJ6OQU0QA,3XUHV3NRVL1DU5F0P2MKQRJPK045H6,RVUX5,RVUX5,3XUHV3NRVL1DU5F0P2MKQRJPK045H6,3XUHV3NRVL1DU5F0P2MKQRJPK045H6,271255,271255,,,,,,,,,,
,,,,2,1.457,0,9,9,527,1,a green t shirt laying on the ground of a modern bedroom,a sleek and modern bedroom with white tile flooring,wolfe2,098_L_slippers,1,41,AH93UJ6OQU0QA,2021-01-25_17h08.39.749,MetaAwareness,2020.1.2,Win32,60,3IWA71V4TJJ3DFHZ9N99X0QVE6DX6O,AH93UJ6OQU0QA,3XUHV3NRVL1DU5F0P2MKQRJPK045H6,RVUX5,RVUX5,3XUHV3NRVL1DU5F0P2MKQRJPK045H6,3XUHV3NRVL1DU5F0P2MKQRJPK045H6,271255,271255,,,,,,,,,,
,,,,4,1.885,0,10,10,676,1,room with a big open window and four chairs with a table and a vase,room with a big open window and four chars with a table,wolfe2,124_L_vase,5,41,AH93UJ6OQU0QA,2021-01-25_17h08.39.749,MetaAwareness,2020.1.2,Win32,60,3IWA71V4TJJ3DFHZ9N99X0QVE6DX6O,AH93UJ6OQU0QA,3XUHV3NRVL1DU5F0P2MKQRJPK045H6,RVUX5,RVUX5,3XUHV3NRVL1DU5F0P2MKQRJPK045H6,3XUHV3NRVL1DU5F0P2MKQRJPK045H6,271255,271255,,,,,,,,,,
,,,,6,1.327,0,11,11,461,1,a dimly lit bathroom that has an extra outlet next to the mirror,a dimly lit bathroom that does not have an extra outlet,wolfe2,085_L_switchboard,3,41,AH93UJ6OQU0QA,2021-01-25_17h08.39.749,MetaAwareness,2020.1.2,Win32,60,3IWA71V4TJJ3DFHZ9N99X0QVE6DX6O,AH93UJ6OQU0QA,3XUHV3NRVL1DU5F0P2MKQRJPK045H6,RVUX5,RVUX5,3XUHV3NRVL1DU5F0P2MKQRJPK045H6,3XUHV3NRVL1DU5F0P2MKQRJPK045H6,271255,271255,,,,,,,,,,
,,,,2,1.401,0,12,12,616,1,an open lounge with a small tree near large windows,an open lounge with large windows,wolfe2,113_R_plant,4,41,AH93UJ6OQU0QA,2021-01-25_17h08.39.749,MetaAwareness,2020.1.2,Win32,60,3IWA71V4TJJ3DFHZ9N99X0QVE6DX6O,AH93UJ6OQU0QA,3XUHV3NRVL1DU5F0P2MKQRJPK045H6,RVUX5,RVUX5,3XUHV3NRVL1DU5F0P2MKQRJPK045H6,3XUHV3NRVL1DU5F0P2MKQRJPK045H6,271255,271255,,,,,,,,,,
,,,,4,1.218,0,13,13,394,1,white kitchen with marble countertops has plenty of space for things.,white kitchen with marble countertops has plenty of space for things.,wolfe2,073_L_coffeemug,3,41,AH93UJ6OQU0QA,2021-01-25_17h08.39.749,MetaAwareness,2020.1.2,Win32,60,3IWA71V4TJJ3DFHZ9N99X0QVE6DX6O,AH93UJ6OQU0QA,3XUHV3NRVL1DU5F0P2MKQRJPK045H6,RVUX5,RVUX5,3XUHV3NRVL1DU5F0P2MKQRJPK045H6,3XUHV3NRVL1DU5F0P2MKQRJPK045H6,271255,271255,,,,,,,,,,
,,,,6,1.11,0,14,14,48,1,there is a study desk in the bedroom near the window.there are two windows in the background with a fence and trees.,there is a round tan rug under the study desk extending to the first leg of the bed. there are two windows in the background with a fence and trees.,wolfe2,009_R_carpet,4,41,AH93UJ6OQU0QA,2021-01-25_17h08.39.749,MetaAwareness,2020.1.2,Win32,60,3IWA71V4TJJ3DFHZ9N99X0QVE6DX6O,AH93UJ6OQU0QA,3XUHV3NRVL1DU5F0P2MKQRJPK045H6,RVUX5,RVUX5,3XUHV3NRVL1DU5F0P2MKQRJPK045H6,3XUHV3NRVL1DU5F0P2MKQRJPK045H6,271255,271255,,,,,,,,,,
,,,,5,1.082,0,15,15,417,1,"it's a home kitchen next to the backyard with four seets at the counter, very modern and clean","still a home kitchen thats very modern and clean, but the four seats all have foot pedals now, while the other kitchen only three seats did.",wolfe2,077_R_footrest,3,41,AH93UJ6OQU0QA,2021-01-25_17h08.39.749,MetaAwareness,2020.1.2,Win32,60,3IWA71V4TJJ3DFHZ9N99X0QVE6DX6O,AH93UJ6OQU0QA,3XUHV3NRVL1DU5F0P2MKQRJPK045H6,RVUX5,RVUX5,3XUHV3NRVL1DU5F0P2MKQRJPK045H6,3XUHV3NRVL1DU5F0P2MKQRJPK045H6,271255,271255,,,,,,,,,,
,,,,2,1.117,0,16,16,693,1,a bright and luminary living room with two lamps on the right and left side of the room with also a glass window overlooking the pool,a bright and luminary living room with only one lamp on the right side of the room with a glass window overlooking the pool,wolfe2,127_L_light,2,41,AH93UJ6OQU0QA,2021-01-25_17h08.39.749,MetaAwareness,2020.1.2,Win32,60,3IWA71V4TJJ3DFHZ9N99X0QVE6DX6O,AH93UJ6OQU0QA,3XUHV3NRVL1DU5F0P2MKQRJPK045H6,RVUX5,RVUX5,3XUHV3NRVL1DU5F0P2MKQRJPK045H6,3XUHV3NRVL1DU5F0P2MKQRJPK045H6,271255,271255,,,,,,,,,,
,,,,1,2.855,0,17,17,615,1,it seems to be a hangout area in a store with many plants and rustic scenic decorations and a lookout window to nature,"a hangout area in a store with one less plant by the large window, the area is still rustic with a nice lookout view to nature",wolfe2,113_R_plant,3,41,AH93UJ6OQU0QA,2021-01-25_17h08.39.749,MetaAwareness,2020.1.2,Win32,60,3IWA71V4TJJ3DFHZ9N99X0QVE6DX6O,AH93UJ6OQU0QA,3XUHV3NRVL1DU5F0P2MKQRJPK045H6,RVUX5,RVUX5,3XUHV3NRVL1DU5F0P2MKQRJPK045H6,3XUHV3NRVL1DU5F0P2MKQRJPK045H6,271255,271255,,,,,,,,,,
,,,,6,2.341,0,18,18,504,1,two beds with yellow sheets and a small gold box on the wall between the beds,two beds with yellow sheets and nothing on the wall in between the beds,wolfe2,093_L_switch,1,41,AH93UJ6OQU0QA,2021-01-25_17h08.39.749,MetaAwareness,2020.1.2,Win32,60,3IWA71V4TJJ3DFHZ9N99X0QVE6DX6O,AH93UJ6OQU0QA,3XUHV3NRVL1DU5F0P2MKQRJPK045H6,RVUX5,RVUX5,3XUHV3NRVL1DU5F0P2MKQRJPK045H6,3XUHV3NRVL1DU5F0P2MKQRJPK045H6,271255,271255,,,,,,,,,,
,,,,5,0.917,0,19,19,158,1,the bathroom has a filling bathtub with a dark sink and counter with a gray towel the the left waiting to be used.,the bathroom has a filling bathtub with a dark sink and counter with 2 gray towels to the left waiting to be used.,wolfe2,028_R_vase,3,41,AH93UJ6OQU0QA,2021-01-25_17h08.39.749,MetaAwareness,2020.1.2,Win32,60,3IWA71V4TJJ3DFHZ9N99X0QVE6DX6O,AH93UJ6OQU0QA,3XUHV3NRVL1DU5F0P2MKQRJPK045H6,RVUX5,RVUX5,3XUHV3NRVL1DU5F0P2MKQRJPK045H6,3XUHV3NRVL1DU5F0P2MKQRJPK045H6,271255,271255,,,,,,,,,,
,,,,2,1.304,0,20,20,120,1,a beautiful modern kitchen with 2 ceiling lights,a beautiful modern kitchen with 3 hanging ceiling lights,wolfe2,022_L_lamp,1,41,AH93UJ6OQU0QA,2021-01-25_17h08.39.749,MetaAwareness,2020.1.2,Win32,60,3IWA71V4TJJ3DFHZ9N99X0QVE6DX6O,AH93UJ6OQU0QA,3XUHV3NRVL1DU5F0P2MKQRJPK045H6,RVUX5,RVUX5,3XUHV3NRVL1DU5F0P2MKQRJPK045H6,3XUHV3NRVL1DU5F0P2MKQRJPK045H6,271255,271255,,,,,,,,,,
,,,,3,1.256,0,21,21,416,1,a clean kitchen with four stools and one missing a footrest.,a clean kitchen with four stools that all have footrests.,wolfe2,077_R_footrest,1,41,AH93UJ6OQU0QA,2021-01-25_17h08.39.749,MetaAwareness,2020.1.2,Win32,60,3IWA71V4TJJ3DFHZ9N99X0QVE6DX6O,AH93UJ6OQU0QA,3XUHV3NRVL1DU5F0P2MKQRJPK045H6,RVUX5,RVUX5,3XUHV3NRVL1DU5F0P2MKQRJPK045H6,3XUHV3NRVL1DU5F0P2MKQRJPK045H6,271255,271255,,,,,,,,,,
,,,,4,1.355,0,22,22,577,1,inside a building with something hanging up on the wall to get paper towels,a living room with nothing on the wall hung up,wolfe2,106_R_toweldispenser,1,41,AH93UJ6OQU0QA,2021-01-25_17h08.39.749,MetaAwareness,2020.1.2,Win32,60,3IWA71V4TJJ3DFHZ9N99X0QVE6DX6O,AH93UJ6OQU0QA,3XUHV3NRVL1DU5F0P2MKQRJPK045H6,RVUX5,RVUX5,3XUHV3NRVL1DU5F0P2MKQRJPK045H6,3XUHV3NRVL1DU5F0P2MKQRJPK045H6,271255,271255,,,,,,,,,,
,,,,5,1.339,0,23,23,52,1,a bedroom with many mirrors and a single candle,a bedroom with many mirrors and two candles,wolfe2,010_L_candle,4,41,AH93UJ6OQU0QA,2021-01-25_17h08.39.749,MetaAwareness,2020.1.2,Win32,60,3IWA71V4TJJ3DFHZ9N99X0QVE6DX6O,AH93UJ6OQU0QA,3XUHV3NRVL1DU5F0P2MKQRJPK045H6,RVUX5,RVUX5,3XUHV3NRVL1DU5F0P2MKQRJPK045H6,3XUHV3NRVL1DU5F0P2MKQRJPK045H6,271255,271255,,,,,,,,,,
,,,,1,1.111,0,24,24,16,1,"a living room with wood paneled windows that look out on a quiet, serene mountain lake",a living room with wood paneled windows that look out onto a mountain lake that appears to have three ducks or swans swimming in it,wolfe2,003_L_ducks,3,41,AH93UJ6OQU0QA,2021-01-25_17h08.39.749,MetaAwareness,2020.1.2,Win32,60,3IWA71V4TJJ3DFHZ9N99X0QVE6DX6O,AH93UJ6OQU0QA,3XUHV3NRVL1DU5F0P2MKQRJPK045H6,RVUX5,RVUX5,3XUHV3NRVL1DU5F0P2MKQRJPK045H6,3XUHV3NRVL1DU5F0P2MKQRJPK045H6,271255,271255,,,,,,,,,,
,,,,4,1.474,0,25,25,597,1,a living room with an orange pillow on the couch.,a living room with no pillow on the couch.,wolfe2,109_R_pillow,1,41,AH93UJ6OQU0QA,2021-01-25_17h08.39.749,MetaAwareness,2020.1.2,Win32,60,3IWA71V4TJJ3DFHZ9N99X0QVE6DX6O,AH93UJ6OQU0QA,3XUHV3NRVL1DU5F0P2MKQRJPK045H6,RVUX5,RVUX5,3XUHV3NRVL1DU5F0P2MKQRJPK045H6,3XUHV3NRVL1DU5F0P2MKQRJPK045H6,271255,271255,,,,,,,,,,
,,,,6,1.035,0,26,26,378,1,old fashioned living room with black and white table lamps having a white object on the end table,old fashioned living room with black and white table lamps having a brownish colored object on the end table,wolfe2,071_L_art,3,41,AH93UJ6OQU0QA,2021-01-25_17h08.39.749,MetaAwareness,2020.1.2,Win32,60,3IWA71V4TJJ3DFHZ9N99X0QVE6DX6O,AH93UJ6OQU0QA,3XUHV3NRVL1DU5F0P2MKQRJPK045H6,RVUX5,RVUX5,3XUHV3NRVL1DU5F0P2MKQRJPK045H6,3XUHV3NRVL1DU5F0P2MKQRJPK045H6,271255,271255,,,,,,,,,,
,,,,5,1.154,0,27,27,497,1,"a darky, fancy restroom with deep red walls and gold trim mirrors","a dark, fancy restroom with deep red walls, gold trim mirrors and a white frame",wolfe2,091_R_airfreshener,2,41,AH93UJ6OQU0QA,2021-01-25_17h08.39.749,MetaAwareness,2020.1.2,Win32,60,3IWA71V4TJJ3DFHZ9N99X0QVE6DX6O,AH93UJ6OQU0QA,3XUHV3NRVL1DU5F0P2MKQRJPK045H6,RVUX5,RVUX5,3XUHV3NRVL1DU5F0P2MKQRJPK045H6,3XUHV3NRVL1DU5F0P2MKQRJPK045H6,271255,271255,,,,,,,,,,
,,,,2,1.045,0,28,28,393,1,the kitchen is very nice because of the flower,the kitchen is very nice because of the flowers,wolfe2,073_L_coffeemug,2,41,AH93UJ6OQU0QA,2021-01-25_17h08.39.749,MetaAwareness,2020.1.2,Win32,60,3IWA71V4TJJ3DFHZ9N99X0QVE6DX6O,AH93UJ6OQU0QA,3XUHV3NRVL1DU5F0P2MKQRJPK045H6,RVUX5,RVUX5,3XUHV3NRVL1DU5F0P2MKQRJPK045H6,3XUHV3NRVL1DU5F0P2MKQRJPK045H6,271255,271255,,,,,,,,,,
,,,,3,1.055,0,29,29,313,1,a bright two toneliving room with a white pillow on the sofa,a bright two tone living room with a black pillow on the sofa,wolfe2,060_R_pillow,4,41,AH93UJ6OQU0QA,2021-01-25_17h08.39.749,MetaAwareness,2020.1.2,Win32,60,3IWA71V4TJJ3DFHZ9N99X0QVE6DX6O,AH93UJ6OQU0QA,3XUHV3NRVL1DU5F0P2MKQRJPK045H6,RVUX5,RVUX5,3XUHV3NRVL1DU5F0P2MKQRJPK045H6,3XUHV3NRVL1DU5F0P2MKQRJPK045H6,271255,271255,,,,,,,,,,
,,,,,,,,,,,,,,,,41,AH93UJ6OQU0QA,2021-01-25_17h08.39.749,MetaAwareness,2020.1.2,Win32,60,3IWA71V4TJJ3DFHZ9N99X0QVE6DX6O,AH93UJ6OQU0QA,3XUHV3NRVL1DU5F0P2MKQRJPK045H6,RVUX5,RVUX5,3XUHV3NRVL1DU5F0P2MKQRJPK045H6,3XUHV3NRVL1DU5F0P2MKQRJPK045H6,271255,271255,6,1.179,someone laying underneath a blue beach umbrella on a crowded beach,someone laying underneath a blue beach umbrella on a crowded beach,same,5,1.344,members of a marching band crossing a track that all have feather plumes at the front of their hats,a cluttered and rustic looking cafe with 10 hanging lights,different
