consent_response.keys,consent_response.rt,key_resp_2.keys,key_resp_2.rt,user_resp.keys,user_resp.rt,trials.thisRepN,trials.thisTrialN,trials.thisN,trials.thisIndex,trials.ran,image_1_text,image_2_text,database,image,number,age,worker_ID,date,expName,psychopyVersion,OS,frameRate,hitId,workerId,assignmentId,a,tp_a,b,tp_b,c,tp_c,catch_same_resp.keys,catch_same_resp.rt,image_1_text_catch_same,image_2_text_catch_same,image_catch_same,catch_different_resp.keys,catch_different_resp.rt,image_1_text_catch_different,image_2_text_catch_different,image_catch_different
space,7.947995,space,22.005165,5,6.27112,0,0,0,242,1,it is a picture of a hotel room with nothing on the bed side table.,it is a picture of a hotel room with a number of electronics on the bed side table.,wolfe2,045_R_musicdock,4,44,AHPOOKYE7V04D,2021-01-25_15h55.11.643,MetaAwareness,2020.1.2,Win32,60,3TZ0XG8CBVN0GXIPZM0T1B04DYC892,AHPOOKYE7V04D,3DOCMVPBTOH9UQ7HW0DJPSG7XXANNK,BMOD5,BMOD5,3DOCMVPBTOH9UQ7HW0DJPSG7XXANNK,3DOCMVPBTOH9UQ7HW0DJPSG7XXANNK,271255,271255,,,,,,,,,,
,,,,5,7.50011,0,1,1,582,1,a mirrored fitting room with clothes hangin on both sides of the clothes rack,a mirrored fitting room with clothes inside the left support of the clothes rack,wolfe2,107_L_shirts,1,44,AHPOOKYE7V04D,2021-01-25_15h55.11.643,MetaAwareness,2020.1.2,Win32,60,3TZ0XG8CBVN0GXIPZM0T1B04DYC892,AHPOOKYE7V04D,3DOCMVPBTOH9UQ7HW0DJPSG7XXANNK,BMOD5,BMOD5,3DOCMVPBTOH9UQ7HW0DJPSG7XXANNK,3DOCMVPBTOH9UQ7HW0DJPSG7XXANNK,271255,271255,,,,,,,,,,
,,,,5,4.421015,0,2,2,344,1,an office bedroom that has less books above the chair,an office bedroom that has more books displayed above the chair,wolfe2,065_R_cd,1,44,AHPOOKYE7V04D,2021-01-25_15h55.11.643,MetaAwareness,2020.1.2,Win32,60,3TZ0XG8CBVN0GXIPZM0T1B04DYC892,AHPOOKYE7V04D,3DOCMVPBTOH9UQ7HW0DJPSG7XXANNK,BMOD5,BMOD5,3DOCMVPBTOH9UQ7HW0DJPSG7XXANNK,3DOCMVPBTOH9UQ7HW0DJPSG7XXANNK,271255,271255,,,,,,,,,,
,,,,5,5.36711,0,3,3,339,1,a bottle sits on top of a wooden buffet table,2 bottles sits on top of a wooden buffet table,wolfe2,064_R_bottles,3,44,AHPOOKYE7V04D,2021-01-25_15h55.11.643,MetaAwareness,2020.1.2,Win32,60,3TZ0XG8CBVN0GXIPZM0T1B04DYC892,AHPOOKYE7V04D,3DOCMVPBTOH9UQ7HW0DJPSG7XXANNK,BMOD5,BMOD5,3DOCMVPBTOH9UQ7HW0DJPSG7XXANNK,3DOCMVPBTOH9UQ7HW0DJPSG7XXANNK,271255,271255,,,,,,,,,,
,,,,4,4.82095,0,4,4,378,1,old fashioned living room with black and white table lamps having a white object on the end table,old fashioned living room with black and white table lamps having a brownish colored object on the end table,wolfe2,071_L_art,3,44,AHPOOKYE7V04D,2021-01-25_15h55.11.643,MetaAwareness,2020.1.2,Win32,60,3TZ0XG8CBVN0GXIPZM0T1B04DYC892,AHPOOKYE7V04D,3DOCMVPBTOH9UQ7HW0DJPSG7XXANNK,BMOD5,BMOD5,3DOCMVPBTOH9UQ7HW0DJPSG7XXANNK,3DOCMVPBTOH9UQ7HW0DJPSG7XXANNK,271255,271255,,,,,,,,,,
,,,,4,2.89051,0,5,5,667,1,theres a hot tub with a bowl to the left of it,theres a hot tub with nothing around it,wolfe2,123_L_pot,1,44,AHPOOKYE7V04D,2021-01-25_15h55.11.643,MetaAwareness,2020.1.2,Win32,60,3TZ0XG8CBVN0GXIPZM0T1B04DYC892,AHPOOKYE7V04D,3DOCMVPBTOH9UQ7HW0DJPSG7XXANNK,BMOD5,BMOD5,3DOCMVPBTOH9UQ7HW0DJPSG7XXANNK,3DOCMVPBTOH9UQ7HW0DJPSG7XXANNK,271255,271255,,,,,,,,,,
,,,,3,5.67052,0,6,6,465,1,a bathroom with an electric outlet near the sink,a bathroom that doesn't have an extra outlet by the sink,wolfe2,085_R_switchboard,5,44,AHPOOKYE7V04D,2021-01-25_15h55.11.643,MetaAwareness,2020.1.2,Win32,60,3TZ0XG8CBVN0GXIPZM0T1B04DYC892,AHPOOKYE7V04D,3DOCMVPBTOH9UQ7HW0DJPSG7XXANNK,BMOD5,BMOD5,3DOCMVPBTOH9UQ7HW0DJPSG7XXANNK,3DOCMVPBTOH9UQ7HW0DJPSG7XXANNK,271255,271255,,,,,,,,,,
,,,,5,5.868685,0,7,7,546,1,a sophisticated and modern bathroom containing a lighted shelf with a red cup and other stemware and vessels and containers on it,a sophisticated and modern bathroom containing a lighted shelf with stemware and other vessels and containers on it,wolfe2,101_L_cup,4,44,AHPOOKYE7V04D,2021-01-25_15h55.11.643,MetaAwareness,2020.1.2,Win32,60,3TZ0XG8CBVN0GXIPZM0T1B04DYC892,AHPOOKYE7V04D,3DOCMVPBTOH9UQ7HW0DJPSG7XXANNK,BMOD5,BMOD5,3DOCMVPBTOH9UQ7HW0DJPSG7XXANNK,3DOCMVPBTOH9UQ7HW0DJPSG7XXANNK,271255,271255,,,,,,,,,,
,,,,5,4.22364,0,8,8,556,1,a brown bathroom with a small tear in the wall next to the mirror,a brown bathroom without a small tear in the wall next to the mirror,wolfe2,103_L_hook,5,44,AHPOOKYE7V04D,2021-01-25_15h55.11.643,MetaAwareness,2020.1.2,Win32,60,3TZ0XG8CBVN0GXIPZM0T1B04DYC892,AHPOOKYE7V04D,3DOCMVPBTOH9UQ7HW0DJPSG7XXANNK,BMOD5,BMOD5,3DOCMVPBTOH9UQ7HW0DJPSG7XXANNK,3DOCMVPBTOH9UQ7HW0DJPSG7XXANNK,271255,271255,,,,,,,,,,
,,,,3,8.76822,0,9,9,277,1,a very contemporary living room with lots of books on display,a very contemporary living room with lots of books on display and a fireplace loaded with wood on the side,wolfe2,054_L_firewood,1,44,AHPOOKYE7V04D,2021-01-25_15h55.11.643,MetaAwareness,2020.1.2,Win32,60,3TZ0XG8CBVN0GXIPZM0T1B04DYC892,AHPOOKYE7V04D,3DOCMVPBTOH9UQ7HW0DJPSG7XXANNK,BMOD5,BMOD5,3DOCMVPBTOH9UQ7HW0DJPSG7XXANNK,3DOCMVPBTOH9UQ7HW0DJPSG7XXANNK,271255,271255,,,,,,,,,,
,,,,3,7.767365,0,10,10,439,1,there is a black bookcase in a bedroom with a pink toy scooter.,there is an unidentified object next to the black bookcase in the bedroom,wolfe2,081_R_football,4,44,AHPOOKYE7V04D,2021-01-25_15h55.11.643,MetaAwareness,2020.1.2,Win32,60,3TZ0XG8CBVN0GXIPZM0T1B04DYC892,AHPOOKYE7V04D,3DOCMVPBTOH9UQ7HW0DJPSG7XXANNK,BMOD5,BMOD5,3DOCMVPBTOH9UQ7HW0DJPSG7XXANNK,3DOCMVPBTOH9UQ7HW0DJPSG7XXANNK,271255,271255,,,,,,,,,,
,,,,4,7.136515,0,11,11,406,1,a bathroom with a big mirror and no towel rack,a bathroom with a big mirror and a towel rack next to the mirror,wolfe2,076_L_hook,1,44,AHPOOKYE7V04D,2021-01-25_15h55.11.643,MetaAwareness,2020.1.2,Win32,60,3TZ0XG8CBVN0GXIPZM0T1B04DYC892,AHPOOKYE7V04D,3DOCMVPBTOH9UQ7HW0DJPSG7XXANNK,BMOD5,BMOD5,3DOCMVPBTOH9UQ7HW0DJPSG7XXANNK,3DOCMVPBTOH9UQ7HW0DJPSG7XXANNK,271255,271255,,,,,,,,,,
,,,,3,3.71644,0,12,12,59,1,a cluttered bathroom with white tiles that has a double sink with a pink soap bottle by the left sink.,a cluttered bathroom with white tiles that has a double sink with a pink soap bottle by the left sink and a brown soap bottle by the right sink.,wolfe2,011_R_parfum,1,44,AHPOOKYE7V04D,2021-01-25_15h55.11.643,MetaAwareness,2020.1.2,Win32,60,3TZ0XG8CBVN0GXIPZM0T1B04DYC892,AHPOOKYE7V04D,3DOCMVPBTOH9UQ7HW0DJPSG7XXANNK,BMOD5,BMOD5,3DOCMVPBTOH9UQ7HW0DJPSG7XXANNK,3DOCMVPBTOH9UQ7HW0DJPSG7XXANNK,271255,271255,,,,,,,,,,
,,,,3,3.734145,0,13,13,338,1,there is a white vase and tray next to the mirror on this desk.,"there is a white vase, tray and lantern next to the mirror on this desk.",wolfe2,064_R_bottles,1,44,AHPOOKYE7V04D,2021-01-25_15h55.11.643,MetaAwareness,2020.1.2,Win32,60,3TZ0XG8CBVN0GXIPZM0T1B04DYC892,AHPOOKYE7V04D,3DOCMVPBTOH9UQ7HW0DJPSG7XXANNK,BMOD5,BMOD5,3DOCMVPBTOH9UQ7HW0DJPSG7XXANNK,3DOCMVPBTOH9UQ7HW0DJPSG7XXANNK,271255,271255,,,,,,,,,,
,,,,3,6.253405,0,14,14,42,1,its a cool colored bathroom with everything you need and a window,"its a cool colored bathroom with everything you need, but now theres an extra cleaning product on the window sill",wolfe2,008_R_bottle,3,44,AHPOOKYE7V04D,2021-01-25_15h55.11.643,MetaAwareness,2020.1.2,Win32,60,3TZ0XG8CBVN0GXIPZM0T1B04DYC892,AHPOOKYE7V04D,3DOCMVPBTOH9UQ7HW0DJPSG7XXANNK,BMOD5,BMOD5,3DOCMVPBTOH9UQ7HW0DJPSG7XXANNK,3DOCMVPBTOH9UQ7HW0DJPSG7XXANNK,271255,271255,,,,,,,,,,
,,,,4,3.45203,0,15,15,415,1,a kitchen with four tall chairs and one of the chairs has not leg pedal,a kitchen with four tall charis and all of the chairs have leg pedal,wolfe2,077_L_footrest,5,44,AHPOOKYE7V04D,2021-01-25_15h55.11.643,MetaAwareness,2020.1.2,Win32,60,3TZ0XG8CBVN0GXIPZM0T1B04DYC892,AHPOOKYE7V04D,3DOCMVPBTOH9UQ7HW0DJPSG7XXANNK,BMOD5,BMOD5,3DOCMVPBTOH9UQ7HW0DJPSG7XXANNK,3DOCMVPBTOH9UQ7HW0DJPSG7XXANNK,271255,271255,,,,,,,,,,
,,,,6,5.86592,0,16,16,8,1,"a restaurant dining room with the tables set with cups, plates, silverware and folded orange towels at almost every seat.","a restaurant dining room with table set, containing plates, cups, silverware, and folded orange towels at every seat.",wolfe2,002_L_napkin,1,44,AHPOOKYE7V04D,2021-01-25_15h55.11.643,MetaAwareness,2020.1.2,Win32,60,3TZ0XG8CBVN0GXIPZM0T1B04DYC892,AHPOOKYE7V04D,3DOCMVPBTOH9UQ7HW0DJPSG7XXANNK,BMOD5,BMOD5,3DOCMVPBTOH9UQ7HW0DJPSG7XXANNK,3DOCMVPBTOH9UQ7HW0DJPSG7XXANNK,271255,271255,,,,,,,,,,
,,,,5,5.6945,0,17,17,196,1,a warm colored bedroom with two lights on the desk near the bed.,a warm colored bedroom with two lights and a red decoration on the desk near the bed.,wolfe2,035_R_fruit,1,44,AHPOOKYE7V04D,2021-01-25_15h55.11.643,MetaAwareness,2020.1.2,Win32,60,3TZ0XG8CBVN0GXIPZM0T1B04DYC892,AHPOOKYE7V04D,3DOCMVPBTOH9UQ7HW0DJPSG7XXANNK,BMOD5,BMOD5,3DOCMVPBTOH9UQ7HW0DJPSG7XXANNK,3DOCMVPBTOH9UQ7HW0DJPSG7XXANNK,271255,271255,,,,,,,,,,
,,,,5,7.31699,0,18,18,218,1,"a modern dining room with dark wood furniture, a tan rug, and two pieces of art on the wall","a modern dining room with dark wood furniture, a tan rug, and three pieces of art on the wall",wolfe2,040_R_painting,2,44,AHPOOKYE7V04D,2021-01-25_15h55.11.643,MetaAwareness,2020.1.2,Win32,60,3TZ0XG8CBVN0GXIPZM0T1B04DYC892,AHPOOKYE7V04D,3DOCMVPBTOH9UQ7HW0DJPSG7XXANNK,BMOD5,BMOD5,3DOCMVPBTOH9UQ7HW0DJPSG7XXANNK,3DOCMVPBTOH9UQ7HW0DJPSG7XXANNK,271255,271255,,,,,,,,,,
,,,,5,5.4934,0,19,19,252,1,a very nice bedroom with a glass vase off to one end.,a very nice bedroom with a glass vase off to one end that has another glass vase on top of it.,wolfe2,048_L_art,1,44,AHPOOKYE7V04D,2021-01-25_15h55.11.643,MetaAwareness,2020.1.2,Win32,60,3TZ0XG8CBVN0GXIPZM0T1B04DYC892,AHPOOKYE7V04D,3DOCMVPBTOH9UQ7HW0DJPSG7XXANNK,BMOD5,BMOD5,3DOCMVPBTOH9UQ7HW0DJPSG7XXANNK,3DOCMVPBTOH9UQ7HW0DJPSG7XXANNK,271255,271255,,,,,,,,,,
,,,,1,7.916515,0,20,20,592,1,i see a well organized closet.  i would get lost in a closet this organized.  the photo on the dresser does give this a little poof and makes it not appear so startched.,"missing the photo on the dresser, it makes it evident that someone lives here with something a part of them.  without it, just plain and bland.",wolfe2,108_R_boa,1,44,AHPOOKYE7V04D,2021-01-25_15h55.11.643,MetaAwareness,2020.1.2,Win32,60,3TZ0XG8CBVN0GXIPZM0T1B04DYC892,AHPOOKYE7V04D,3DOCMVPBTOH9UQ7HW0DJPSG7XXANNK,BMOD5,BMOD5,3DOCMVPBTOH9UQ7HW0DJPSG7XXANNK,3DOCMVPBTOH9UQ7HW0DJPSG7XXANNK,271255,271255,,,,,,,,,,
,,,,2,3.911885,0,21,21,612,1,a plant in the corner of  hotel,a corner with no plant,wolfe2,113_L_plant,3,44,AHPOOKYE7V04D,2021-01-25_15h55.11.643,MetaAwareness,2020.1.2,Win32,60,3TZ0XG8CBVN0GXIPZM0T1B04DYC892,AHPOOKYE7V04D,3DOCMVPBTOH9UQ7HW0DJPSG7XXANNK,BMOD5,BMOD5,3DOCMVPBTOH9UQ7HW0DJPSG7XXANNK,3DOCMVPBTOH9UQ7HW0DJPSG7XXANNK,271255,271255,,,,,,,,,,
,,,,5,4.647605,0,22,22,333,1,an open design kitchen and living room with a nice desk space,an open design kitchen and living room with a book on top of a nice desk space,wolfe2,063_L_laptop,4,44,AHPOOKYE7V04D,2021-01-25_15h55.11.643,MetaAwareness,2020.1.2,Win32,60,3TZ0XG8CBVN0GXIPZM0T1B04DYC892,AHPOOKYE7V04D,3DOCMVPBTOH9UQ7HW0DJPSG7XXANNK,BMOD5,BMOD5,3DOCMVPBTOH9UQ7HW0DJPSG7XXANNK,3DOCMVPBTOH9UQ7HW0DJPSG7XXANNK,271255,271255,,,,,,,,,,
,,,,3,9.566585,0,23,23,569,1,a bedroom that is cluttered with clothes and a hat on top of the bed,a bedroom that is cluttered with a cheetah print bedspread and clothes on the bed,wolfe2,105_R_hat,2,44,AHPOOKYE7V04D,2021-01-25_15h55.11.643,MetaAwareness,2020.1.2,Win32,60,3TZ0XG8CBVN0GXIPZM0T1B04DYC892,AHPOOKYE7V04D,3DOCMVPBTOH9UQ7HW0DJPSG7XXANNK,BMOD5,BMOD5,3DOCMVPBTOH9UQ7HW0DJPSG7XXANNK,3DOCMVPBTOH9UQ7HW0DJPSG7XXANNK,271255,271255,,,,,,,,,,
,,,,4,3.739855,0,24,24,167,1,a spacious living room with one exposed beam on the ceiling.,a spacious living room with two exposed beams on the ceiling.,wolfe2,031_L_log,1,44,AHPOOKYE7V04D,2021-01-25_15h55.11.643,MetaAwareness,2020.1.2,Win32,60,3TZ0XG8CBVN0GXIPZM0T1B04DYC892,AHPOOKYE7V04D,3DOCMVPBTOH9UQ7HW0DJPSG7XXANNK,BMOD5,BMOD5,3DOCMVPBTOH9UQ7HW0DJPSG7XXANNK,3DOCMVPBTOH9UQ7HW0DJPSG7XXANNK,271255,271255,,,,,,,,,,
,,,,5,3.98114,0,25,25,225,1,a modern looking bathroom with two marble ceramic sinks,a modern looking bathroom with two marble ceramic sinks with shiny metallic faucets,wolfe2,042_L_tap,2,44,AHPOOKYE7V04D,2021-01-25_15h55.11.643,MetaAwareness,2020.1.2,Win32,60,3TZ0XG8CBVN0GXIPZM0T1B04DYC892,AHPOOKYE7V04D,3DOCMVPBTOH9UQ7HW0DJPSG7XXANNK,BMOD5,BMOD5,3DOCMVPBTOH9UQ7HW0DJPSG7XXANNK,3DOCMVPBTOH9UQ7HW0DJPSG7XXANNK,271255,271255,,,,,,,,,,
,,,,4,2.75958,0,26,26,157,1,a modern looking bathroom with one cup on the counter.,a modern looking bathroom with two cups on the counter.,wolfe2,028_R_vase,1,44,AHPOOKYE7V04D,2021-01-25_15h55.11.643,MetaAwareness,2020.1.2,Win32,60,3TZ0XG8CBVN0GXIPZM0T1B04DYC892,AHPOOKYE7V04D,3DOCMVPBTOH9UQ7HW0DJPSG7XXANNK,BMOD5,BMOD5,3DOCMVPBTOH9UQ7HW0DJPSG7XXANNK,3DOCMVPBTOH9UQ7HW0DJPSG7XXANNK,271255,271255,,,,,,,,,,
,,,,5,4.896105,0,27,27,182,1,a tidy living room in neutral tones with shelves full of decor along one wall,a tidy living room in neutral tones with shelves full of decor including a large vase along one wall,wolfe2,033_L_vase,2,44,AHPOOKYE7V04D,2021-01-25_15h55.11.643,MetaAwareness,2020.1.2,Win32,60,3TZ0XG8CBVN0GXIPZM0T1B04DYC892,AHPOOKYE7V04D,3DOCMVPBTOH9UQ7HW0DJPSG7XXANNK,BMOD5,BMOD5,3DOCMVPBTOH9UQ7HW0DJPSG7XXANNK,3DOCMVPBTOH9UQ7HW0DJPSG7XXANNK,271255,271255,,,,,,,,,,
,,,,4,5.636165,0,28,28,272,1,a large stone bathroom that has a cabinet with one lower drawer,a large stone bathroom that has a cabinet with two lower drawers,wolfe2,053_L_handle,4,44,AHPOOKYE7V04D,2021-01-25_15h55.11.643,MetaAwareness,2020.1.2,Win32,60,3TZ0XG8CBVN0GXIPZM0T1B04DYC892,AHPOOKYE7V04D,3DOCMVPBTOH9UQ7HW0DJPSG7XXANNK,BMOD5,BMOD5,3DOCMVPBTOH9UQ7HW0DJPSG7XXANNK,3DOCMVPBTOH9UQ7HW0DJPSG7XXANNK,271255,271255,,,,,,,,,,
,,,,4,4.469715,0,29,29,170,1,a furnished living room with a l shaped couch.  the ceiling has a single beam going across it,a furnished living room with a l shaped couch.  the ceiling has two beams going across it,wolfe2,031_R_log,2,44,AHPOOKYE7V04D,2021-01-25_15h55.11.643,MetaAwareness,2020.1.2,Win32,60,3TZ0XG8CBVN0GXIPZM0T1B04DYC892,AHPOOKYE7V04D,3DOCMVPBTOH9UQ7HW0DJPSG7XXANNK,BMOD5,BMOD5,3DOCMVPBTOH9UQ7HW0DJPSG7XXANNK,3DOCMVPBTOH9UQ7HW0DJPSG7XXANNK,271255,271255,,,,,,,,,,
,,,,,,,,,,,,,,,,44,AHPOOKYE7V04D,2021-01-25_15h55.11.643,MetaAwareness,2020.1.2,Win32,60,3TZ0XG8CBVN0GXIPZM0T1B04DYC892,AHPOOKYE7V04D,3DOCMVPBTOH9UQ7HW0DJPSG7XXANNK,BMOD5,BMOD5,3DOCMVPBTOH9UQ7HW0DJPSG7XXANNK,3DOCMVPBTOH9UQ7HW0DJPSG7XXANNK,271255,271255,6,7.09151,someone laying underneath a blue beach umbrella on a crowded beach,someone laying underneath a blue beach umbrella on a crowded beach,same,1,3.419615,members of a marching band crossing a track that all have feather plumes at the front of their hats,a cluttered and rustic looking cafe with 10 hanging lights,different
