consent_response.keys,consent_response.rt,key_resp_2.keys,key_resp_2.rt,user_resp.keys,user_resp.rt,trials.thisRepN,trials.thisTrialN,trials.thisN,trials.thisIndex,trials.ran,image_1_text,image_2_text,database,image,number,age,worker_ID,date,expName,psychopyVersion,OS,frameRate,hitId,workerId,assignmentId,a,tp_a,b,tp_b,c,tp_c,catch_same_resp.keys,catch_same_resp.rt,image_1_text_catch_same,image_2_text_catch_same,image_catch_same,catch_different_resp.keys,catch_different_resp.rt,image_1_text_catch_different,image_2_text_catch_different,image_catch_different
space,2.99659,space,13.703635,2,5.811895,0,0,0,429,1,it contains one plant,it contains two plants,wolfe2,080_L_plant,1,29,ASVU8IUWURJTW,2021-01-25_14h35.00.258,MetaAwareness,2020.1.2,Win32,60,3W5PY7V3UQA41FMGY2P0PI292HNJYG,ASVU8IUWURJTW,3H0W84IWBL5QFIMWW8RH8PR8K2NERZ,W80H5,W80H5,3H0W84IWBL5QFIMWW8RH8PR8K2NERZ,3H0W84IWBL5QFIMWW8RH8PR8K2NERZ,271255,271255,,,,,,,,,,
,,,,3,13.217335,0,1,1,115,1,a office with brick wall surrounding and desks and chairs around with one office desk without keyboard on the top,a office with brick wall surrounding and desks and chairs around with one office desk with keyboard on the top,wolfe2,021_L_keyboard,6,29,ASVU8IUWURJTW,2021-01-25_14h35.00.258,MetaAwareness,2020.1.2,Win32,60,3W5PY7V3UQA41FMGY2P0PI292HNJYG,ASVU8IUWURJTW,3H0W84IWBL5QFIMWW8RH8PR8K2NERZ,W80H5,W80H5,3H0W84IWBL5QFIMWW8RH8PR8K2NERZ,3H0W84IWBL5QFIMWW8RH8PR8K2NERZ,271255,271255,,,,,,,,,,
,,,,4,8.893065,0,2,2,177,1,"a modern-looking bathroom with two shelves, one of which is empty and the other of which has one white bottle","a modern-looking bathroom with two shelves, one of which is empty and the other of which has two white bottles",wolfe2,032_R_bottle,1,29,ASVU8IUWURJTW,2021-01-25_14h35.00.258,MetaAwareness,2020.1.2,Win32,60,3W5PY7V3UQA41FMGY2P0PI292HNJYG,ASVU8IUWURJTW,3H0W84IWBL5QFIMWW8RH8PR8K2NERZ,W80H5,W80H5,3H0W84IWBL5QFIMWW8RH8PR8K2NERZ,3H0W84IWBL5QFIMWW8RH8PR8K2NERZ,271255,271255,,,,,,,,,,
,,,,5,7.76983,0,3,3,317,1,a luxurious and decorated dining room with glasses,a luxurious and decorated dining room with various drinking glasses,wolfe2,061_L_glass,8,29,ASVU8IUWURJTW,2021-01-25_14h35.00.258,MetaAwareness,2020.1.2,Win32,60,3W5PY7V3UQA41FMGY2P0PI292HNJYG,ASVU8IUWURJTW,3H0W84IWBL5QFIMWW8RH8PR8K2NERZ,W80H5,W80H5,3H0W84IWBL5QFIMWW8RH8PR8K2NERZ,3H0W84IWBL5QFIMWW8RH8PR8K2NERZ,271255,271255,,,,,,,,,,
,,,,5,4.9876,0,4,4,364,1,living room with fireplace and shelf with some decorations,living room with fireplace with four more decorations on upper shelf,wolfe2,069_L_things,4,29,ASVU8IUWURJTW,2021-01-25_14h35.00.258,MetaAwareness,2020.1.2,Win32,60,3W5PY7V3UQA41FMGY2P0PI292HNJYG,ASVU8IUWURJTW,3H0W84IWBL5QFIMWW8RH8PR8K2NERZ,W80H5,W80H5,3H0W84IWBL5QFIMWW8RH8PR8K2NERZ,3H0W84IWBL5QFIMWW8RH8PR8K2NERZ,271255,271255,,,,,,,,,,
,,,,5,9.67487,0,5,5,142,1,"a modern looking living room with plenty of natural light, and plenty of clean looking white with 5 decorative pieces on the back shelf","a modern looking living room with plenty of natural light, and plenty of clean looking white with 6 decorative pieces on the back shelf",wolfe2,025_L_vase,2,29,ASVU8IUWURJTW,2021-01-25_14h35.00.258,MetaAwareness,2020.1.2,Win32,60,3W5PY7V3UQA41FMGY2P0PI292HNJYG,ASVU8IUWURJTW,3H0W84IWBL5QFIMWW8RH8PR8K2NERZ,W80H5,W80H5,3H0W84IWBL5QFIMWW8RH8PR8K2NERZ,3H0W84IWBL5QFIMWW8RH8PR8K2NERZ,271255,271255,,,,,,,,,,
,,,,4,7.386275,0,6,6,135,1,a big room with sinks and two sets of towels below it,a big room with sinks and three sets of towels below it,wolfe2,024_L_towels,2,29,ASVU8IUWURJTW,2021-01-25_14h35.00.258,MetaAwareness,2020.1.2,Win32,60,3W5PY7V3UQA41FMGY2P0PI292HNJYG,ASVU8IUWURJTW,3H0W84IWBL5QFIMWW8RH8PR8K2NERZ,W80H5,W80H5,3H0W84IWBL5QFIMWW8RH8PR8K2NERZ,3H0W84IWBL5QFIMWW8RH8PR8K2NERZ,271255,271255,,,,,,,,,,
,,,,5,6.336475,0,7,7,621,1,a big hall with several furniture and night lamp present,a big hall with several furniture and lights are present,wolfe2,115_L_pot,1,29,ASVU8IUWURJTW,2021-01-25_14h35.00.258,MetaAwareness,2020.1.2,Win32,60,3W5PY7V3UQA41FMGY2P0PI292HNJYG,ASVU8IUWURJTW,3H0W84IWBL5QFIMWW8RH8PR8K2NERZ,W80H5,W80H5,3H0W84IWBL5QFIMWW8RH8PR8K2NERZ,3H0W84IWBL5QFIMWW8RH8PR8K2NERZ,271255,271255,,,,,,,,,,
,,,,4,6.02069,0,8,8,272,1,a large stone bathroom that has a cabinet with one lower drawer,a large stone bathroom that has a cabinet with two lower drawers,wolfe2,053_L_handle,4,29,ASVU8IUWURJTW,2021-01-25_14h35.00.258,MetaAwareness,2020.1.2,Win32,60,3W5PY7V3UQA41FMGY2P0PI292HNJYG,ASVU8IUWURJTW,3H0W84IWBL5QFIMWW8RH8PR8K2NERZ,W80H5,W80H5,3H0W84IWBL5QFIMWW8RH8PR8K2NERZ,3H0W84IWBL5QFIMWW8RH8PR8K2NERZ,271255,271255,,,,,,,,,,
,,,,4,5.19865,0,9,9,371,1,a white modern looking living room with 1 hanging lamp on the wall,a white modern looking living room with 2 hanging lamps on the wall,wolfe2,070_R_lamp,1,29,ASVU8IUWURJTW,2021-01-25_14h35.00.258,MetaAwareness,2020.1.2,Win32,60,3W5PY7V3UQA41FMGY2P0PI292HNJYG,ASVU8IUWURJTW,3H0W84IWBL5QFIMWW8RH8PR8K2NERZ,W80H5,W80H5,3H0W84IWBL5QFIMWW8RH8PR8K2NERZ,3H0W84IWBL5QFIMWW8RH8PR8K2NERZ,271255,271255,,,,,,,,,,
,,,,4,8.229165,0,10,10,105,1,outside portion of house with one light on top of exit,outside section of a house with two lights on top of exit,wolfe2,019_L_lamp_sized,1,29,ASVU8IUWURJTW,2021-01-25_14h35.00.258,MetaAwareness,2020.1.2,Win32,60,3W5PY7V3UQA41FMGY2P0PI292HNJYG,ASVU8IUWURJTW,3H0W84IWBL5QFIMWW8RH8PR8K2NERZ,W80H5,W80H5,3H0W84IWBL5QFIMWW8RH8PR8K2NERZ,3H0W84IWBL5QFIMWW8RH8PR8K2NERZ,271255,271255,,,,,,,,,,
,,,,4,9.38559,0,11,11,464,1,a clean and light bathroom with an electrical outlet next to the mirror,a clean and light bathroom without any electrical outlet next to the mirror,wolfe2,085_R_switchboard,3,29,ASVU8IUWURJTW,2021-01-25_14h35.00.258,MetaAwareness,2020.1.2,Win32,60,3W5PY7V3UQA41FMGY2P0PI292HNJYG,ASVU8IUWURJTW,3H0W84IWBL5QFIMWW8RH8PR8K2NERZ,W80H5,W80H5,3H0W84IWBL5QFIMWW8RH8PR8K2NERZ,3H0W84IWBL5QFIMWW8RH8PR8K2NERZ,271255,271255,,,,,,,,,,
,,,,2,13.002995,0,12,12,232,1,one of the shelves on the bookcase is empty and has no decorations.,the bookcase has every shelf full of items.,wolfe2,043_R_clock,2,29,ASVU8IUWURJTW,2021-01-25_14h35.00.258,MetaAwareness,2020.1.2,Win32,60,3W5PY7V3UQA41FMGY2P0PI292HNJYG,ASVU8IUWURJTW,3H0W84IWBL5QFIMWW8RH8PR8K2NERZ,W80H5,W80H5,3H0W84IWBL5QFIMWW8RH8PR8K2NERZ,3H0W84IWBL5QFIMWW8RH8PR8K2NERZ,271255,271255,,,,,,,,,,
,,,,5,6.78624,0,13,13,344,1,an office bedroom that has less books above the chair,an office bedroom that has more books displayed above the chair,wolfe2,065_R_cd,1,29,ASVU8IUWURJTW,2021-01-25_14h35.00.258,MetaAwareness,2020.1.2,Win32,60,3W5PY7V3UQA41FMGY2P0PI292HNJYG,ASVU8IUWURJTW,3H0W84IWBL5QFIMWW8RH8PR8K2NERZ,W80H5,W80H5,3H0W84IWBL5QFIMWW8RH8PR8K2NERZ,3H0W84IWBL5QFIMWW8RH8PR8K2NERZ,271255,271255,,,,,,,,,,
,,,,5,6.922445,0,14,14,206,1,"a very clean white bathroom with a tub, a walk in shower, a toilet andfive neatly folded towels in a storage unit.","a clean white bathroom with a walk in shower, a tub, a toilet, and six neatly folded towels in a storage unit.",wolfe2,037_L_towel,4,29,ASVU8IUWURJTW,2021-01-25_14h35.00.258,MetaAwareness,2020.1.2,Win32,60,3W5PY7V3UQA41FMGY2P0PI292HNJYG,ASVU8IUWURJTW,3H0W84IWBL5QFIMWW8RH8PR8K2NERZ,W80H5,W80H5,3H0W84IWBL5QFIMWW8RH8PR8K2NERZ,3H0W84IWBL5QFIMWW8RH8PR8K2NERZ,271255,271255,,,,,,,,,,
,,,,5,16.401095,0,15,15,653,1,a living room with large couches by a fireplace with 3 objects resting above it,a living room with large couches by a fireplace with 2 objects resting above it,wolfe2,120_R_art,3,29,ASVU8IUWURJTW,2021-01-25_14h35.00.258,MetaAwareness,2020.1.2,Win32,60,3W5PY7V3UQA41FMGY2P0PI292HNJYG,ASVU8IUWURJTW,3H0W84IWBL5QFIMWW8RH8PR8K2NERZ,W80H5,W80H5,3H0W84IWBL5QFIMWW8RH8PR8K2NERZ,3H0W84IWBL5QFIMWW8RH8PR8K2NERZ,271255,271255,,,,,,,,,,
,,,,4,7.473275,0,16,16,318,1,"a modern dining room set for four, with a wine glass missing from one setting",a modern dining room set for four,wolfe2,061_R_glass,1,29,ASVU8IUWURJTW,2021-01-25_14h35.00.258,MetaAwareness,2020.1.2,Win32,60,3W5PY7V3UQA41FMGY2P0PI292HNJYG,ASVU8IUWURJTW,3H0W84IWBL5QFIMWW8RH8PR8K2NERZ,W80H5,W80H5,3H0W84IWBL5QFIMWW8RH8PR8K2NERZ,3H0W84IWBL5QFIMWW8RH8PR8K2NERZ,271255,271255,,,,,,,,,,
,,,,5,8.50834,0,17,17,498,1,a large bathroom with three sinks and an object displayed from the mirrors reflection,a large bathroom with three sinks with an object not being reflected from the mirror.,wolfe2,091_R_airfreshener,3,29,ASVU8IUWURJTW,2021-01-25_14h35.00.258,MetaAwareness,2020.1.2,Win32,60,3W5PY7V3UQA41FMGY2P0PI292HNJYG,ASVU8IUWURJTW,3H0W84IWBL5QFIMWW8RH8PR8K2NERZ,W80H5,W80H5,3H0W84IWBL5QFIMWW8RH8PR8K2NERZ,3H0W84IWBL5QFIMWW8RH8PR8K2NERZ,271255,271255,,,,,,,,,,
,,,,4,5.134255,0,18,18,49,1,a white bedroom with 1 candle on the nightstand,a white bedroom with 2 candles on the nightstand,wolfe2,010_L_candle,1,29,ASVU8IUWURJTW,2021-01-25_14h35.00.258,MetaAwareness,2020.1.2,Win32,60,3W5PY7V3UQA41FMGY2P0PI292HNJYG,ASVU8IUWURJTW,3H0W84IWBL5QFIMWW8RH8PR8K2NERZ,W80H5,W80H5,3H0W84IWBL5QFIMWW8RH8PR8K2NERZ,3H0W84IWBL5QFIMWW8RH8PR8K2NERZ,271255,271255,,,,,,,,,,
,,,,5,7.734975,0,19,19,265,1,room with many decorations near or on the wall,room with many decorations near or on the wall including a small glass owl.,wolfe2,051_R_owl,3,29,ASVU8IUWURJTW,2021-01-25_14h35.00.258,MetaAwareness,2020.1.2,Win32,60,3W5PY7V3UQA41FMGY2P0PI292HNJYG,ASVU8IUWURJTW,3H0W84IWBL5QFIMWW8RH8PR8K2NERZ,W80H5,W80H5,3H0W84IWBL5QFIMWW8RH8PR8K2NERZ,3H0W84IWBL5QFIMWW8RH8PR8K2NERZ,271255,271255,,,,,,,,,,
,,,,4,8.65048,0,20,20,438,1,a child's looking room with childrens toys on the floor. there is no toy in the corner by the shelf with the radio on it.,a child's looking room with childrens toys on the floor. there is a toy in the corner by the shelf with the radio on it.,wolfe2,081_R_football,2,29,ASVU8IUWURJTW,2021-01-25_14h35.00.258,MetaAwareness,2020.1.2,Win32,60,3W5PY7V3UQA41FMGY2P0PI292HNJYG,ASVU8IUWURJTW,3H0W84IWBL5QFIMWW8RH8PR8K2NERZ,W80H5,W80H5,3H0W84IWBL5QFIMWW8RH8PR8K2NERZ,3H0W84IWBL5QFIMWW8RH8PR8K2NERZ,271255,271255,,,,,,,,,,
,,,,4,18.47782,0,21,21,552,1,a contemporary space with a box under the center window,a contemporary space with nothing under the center window,wolfe2,102_R_shoppingbag,1,29,ASVU8IUWURJTW,2021-01-25_14h35.00.258,MetaAwareness,2020.1.2,Win32,60,3W5PY7V3UQA41FMGY2P0PI292HNJYG,ASVU8IUWURJTW,3H0W84IWBL5QFIMWW8RH8PR8K2NERZ,W80H5,W80H5,3H0W84IWBL5QFIMWW8RH8PR8K2NERZ,3H0W84IWBL5QFIMWW8RH8PR8K2NERZ,271255,271255,,,,,,,,,,
,,,,5,4.10776,0,22,22,525,1,a bedroom without a light on the wall,a bedroom with nothing on the wall,wolfe2,097_R_light,3,29,ASVU8IUWURJTW,2021-01-25_14h35.00.258,MetaAwareness,2020.1.2,Win32,60,3W5PY7V3UQA41FMGY2P0PI292HNJYG,ASVU8IUWURJTW,3H0W84IWBL5QFIMWW8RH8PR8K2NERZ,W80H5,W80H5,3H0W84IWBL5QFIMWW8RH8PR8K2NERZ,3H0W84IWBL5QFIMWW8RH8PR8K2NERZ,271255,271255,,,,,,,,,,
,,,,4,13.058965,0,23,23,625,1,it is a picture of a kitchen with a plant next to the oven and under a light.,it is a picture of a kitchen with nothing on the counter next to the oven.,wolfe2,115_R_pot,3,29,ASVU8IUWURJTW,2021-01-25_14h35.00.258,MetaAwareness,2020.1.2,Win32,60,3W5PY7V3UQA41FMGY2P0PI292HNJYG,ASVU8IUWURJTW,3H0W84IWBL5QFIMWW8RH8PR8K2NERZ,W80H5,W80H5,3H0W84IWBL5QFIMWW8RH8PR8K2NERZ,3H0W84IWBL5QFIMWW8RH8PR8K2NERZ,271255,271255,,,,,,,,,,
,,,,5,18.337015,0,24,24,6,1,it's a very elegant colored bedroom with fancy paintings and colors all around,"it's still very elegantly colored bedroom with fancy art and decorations, but theres a mirror on the wall now as well.",wolfe2,001_R_mirror,3,29,ASVU8IUWURJTW,2021-01-25_14h35.00.258,MetaAwareness,2020.1.2,Win32,60,3W5PY7V3UQA41FMGY2P0PI292HNJYG,ASVU8IUWURJTW,3H0W84IWBL5QFIMWW8RH8PR8K2NERZ,W80H5,W80H5,3H0W84IWBL5QFIMWW8RH8PR8K2NERZ,3H0W84IWBL5QFIMWW8RH8PR8K2NERZ,271255,271255,,,,,,,,,,
,,,,5,7.840475,0,25,25,348,1,a themed living room with red and black decor and a sofa. there is black vases on one side,a themed living room with red and black decor and a sofa. there is black vases on one side and a white one on the other,wolfe2,066_L_vase,3,29,ASVU8IUWURJTW,2021-01-25_14h35.00.258,MetaAwareness,2020.1.2,Win32,60,3W5PY7V3UQA41FMGY2P0PI292HNJYG,ASVU8IUWURJTW,3H0W84IWBL5QFIMWW8RH8PR8K2NERZ,W80H5,W80H5,3H0W84IWBL5QFIMWW8RH8PR8K2NERZ,3H0W84IWBL5QFIMWW8RH8PR8K2NERZ,271255,271255,,,,,,,,,,
,,,,4,4.277785,0,26,26,139,1,there are two stacks of towels folded under the sink in the bathroom.,there are three stacks of folded towels under the sink in the bathroom.,wolfe2,024_R_towels,2,29,ASVU8IUWURJTW,2021-01-25_14h35.00.258,MetaAwareness,2020.1.2,Win32,60,3W5PY7V3UQA41FMGY2P0PI292HNJYG,ASVU8IUWURJTW,3H0W84IWBL5QFIMWW8RH8PR8K2NERZ,W80H5,W80H5,3H0W84IWBL5QFIMWW8RH8PR8K2NERZ,3H0W84IWBL5QFIMWW8RH8PR8K2NERZ,271255,271255,,,,,,,,,,
,,,,4,6.091455,0,27,27,324,1,"a living room decorated in white and red, and with an empty fireplace to one side.","a living room decorated in white and red, and with a portrait in front of the fireplace to one side.",wolfe2,062_L_flowers,1,29,ASVU8IUWURJTW,2021-01-25_14h35.00.258,MetaAwareness,2020.1.2,Win32,60,3W5PY7V3UQA41FMGY2P0PI292HNJYG,ASVU8IUWURJTW,3H0W84IWBL5QFIMWW8RH8PR8K2NERZ,W80H5,W80H5,3H0W84IWBL5QFIMWW8RH8PR8K2NERZ,3H0W84IWBL5QFIMWW8RH8PR8K2NERZ,271255,271255,,,,,,,,,,
,,,,5,8.1728,0,28,28,336,1,"a dining room with table and chairs, a window view, and one bottle under a mirror","a dining room with table and chairs, a window view, and bottles under a mirror",wolfe2,064_L_bottles,1,29,ASVU8IUWURJTW,2021-01-25_14h35.00.258,MetaAwareness,2020.1.2,Win32,60,3W5PY7V3UQA41FMGY2P0PI292HNJYG,ASVU8IUWURJTW,3H0W84IWBL5QFIMWW8RH8PR8K2NERZ,W80H5,W80H5,3H0W84IWBL5QFIMWW8RH8PR8K2NERZ,3H0W84IWBL5QFIMWW8RH8PR8K2NERZ,271255,271255,,,,,,,,,,
,,,,4,4.97003,0,29,29,76,1,a room with a couch and a large hanging light,a room with a couch and two large hanging lights,wolfe2,013_R_lamp,3,29,ASVU8IUWURJTW,2021-01-25_14h35.00.258,MetaAwareness,2020.1.2,Win32,60,3W5PY7V3UQA41FMGY2P0PI292HNJYG,ASVU8IUWURJTW,3H0W84IWBL5QFIMWW8RH8PR8K2NERZ,W80H5,W80H5,3H0W84IWBL5QFIMWW8RH8PR8K2NERZ,3H0W84IWBL5QFIMWW8RH8PR8K2NERZ,271255,271255,,,,,,,,,,
,,,,,,,,,,,,,,,,29,ASVU8IUWURJTW,2021-01-25_14h35.00.258,MetaAwareness,2020.1.2,Win32,60,3W5PY7V3UQA41FMGY2P0PI292HNJYG,ASVU8IUWURJTW,3H0W84IWBL5QFIMWW8RH8PR8K2NERZ,W80H5,W80H5,3H0W84IWBL5QFIMWW8RH8PR8K2NERZ,3H0W84IWBL5QFIMWW8RH8PR8K2NERZ,271255,271255,6,7.706815,someone laying underneath a blue beach umbrella on a crowded beach,someone laying underneath a blue beach umbrella on a crowded beach,same,1,8.048705,members of a marching band crossing a track that all have feather plumes at the front of their hats,a cluttered and rustic looking cafe with 10 hanging lights,different