consent_response.keys,consent_response.rt,key_resp_2.keys,key_resp_2.rt,user_resp.keys,user_resp.rt,trials.thisRepN,trials.thisTrialN,trials.thisN,trials.thisIndex,trials.ran,image_1_text,image_2_text,database,image,number,age,worker_ID,date,expName,psychopyVersion,OS,frameRate,hitId,workerId,assignmentId,a,tp_a,b,tp_b,c,tp_c,catch_same_resp.keys,catch_same_resp.rt,image_1_text_catch_same,image_2_text_catch_same,image_catch_same,catch_different_resp.keys,catch_different_resp.rt,image_1_text_catch_different,image_2_text_catch_different,image_catch_different
space,77.11221,space,8.18764,4,7.014565,0,0,0,388,1,darke bedroom funiture missing a drawer pull,dark bedroom furniture,wolfe2,072_R_handle,1,32,AUQ79MANVDU9B,2021-01-25_14h01.43.117,MetaAwareness,2020.1.2,Win32,60,3TZ0XG8CBVN0GXIPZM0T1B04DYC892,AUQ79MANVDU9B,3NQL1CS15SBGEUK45T8LGP8RNKEYV0,11QN5,11QN5,3NQL1CS15SBGEUK45T8LGP8RNKEYV0,3NQL1CS15SBGEUK45T8LGP8RNKEYV0,271255,271255,,,,,,,,,,
,,,,4,4.69448,0,1,1,443,1,a long coffeetable serves as a bedside table.,more items appear on the lower shelf of the coffee table which serves as a bedside stand.,wolfe2,082_R_bowl,5,32,AUQ79MANVDU9B,2021-01-25_14h01.43.117,MetaAwareness,2020.1.2,Win32,60,3TZ0XG8CBVN0GXIPZM0T1B04DYC892,AUQ79MANVDU9B,3NQL1CS15SBGEUK45T8LGP8RNKEYV0,11QN5,11QN5,3NQL1CS15SBGEUK45T8LGP8RNKEYV0,3NQL1CS15SBGEUK45T8LGP8RNKEYV0,271255,271255,,,,,,,,,,
,,,,6,3.728275,0,2,2,145,1,"a living room with a large window, two couches, a table with books on it, and a shelf with one narrow wooden thing in the lower right corner","a living room with a large window, two couches, a table with books on it, and a shelf with two narrow wooden things in the lower right corner",wolfe2,025_R_vase,3,32,AUQ79MANVDU9B,2021-01-25_14h01.43.117,MetaAwareness,2020.1.2,Win32,60,3TZ0XG8CBVN0GXIPZM0T1B04DYC892,AUQ79MANVDU9B,3NQL1CS15SBGEUK45T8LGP8RNKEYV0,11QN5,11QN5,3NQL1CS15SBGEUK45T8LGP8RNKEYV0,3NQL1CS15SBGEUK45T8LGP8RNKEYV0,271255,271255,,,,,,,,,,
,,,,5,4.622675,0,3,3,349,1,a very modern looking living room with a black accent wall,a very modern looking living room with a white vase set against a black accent wall,wolfe2,066_L_vase,4,32,AUQ79MANVDU9B,2021-01-25_14h01.43.117,MetaAwareness,2020.1.2,Win32,60,3TZ0XG8CBVN0GXIPZM0T1B04DYC892,AUQ79MANVDU9B,3NQL1CS15SBGEUK45T8LGP8RNKEYV0,11QN5,11QN5,3NQL1CS15SBGEUK45T8LGP8RNKEYV0,3NQL1CS15SBGEUK45T8LGP8RNKEYV0,271255,271255,,,,,,,,,,
,,,,6,6.24636,0,4,4,73,1,"an open area with glass doors for a sitting area, hard wood floors, and one hanging light fixture","an open area with glass doors for a sitting area, hard wood floors, and one hanging light fixture",wolfe2,013_L_lamp,8,32,AUQ79MANVDU9B,2021-01-25_14h01.43.117,MetaAwareness,2020.1.2,Win32,60,3TZ0XG8CBVN0GXIPZM0T1B04DYC892,AUQ79MANVDU9B,3NQL1CS15SBGEUK45T8LGP8RNKEYV0,11QN5,11QN5,3NQL1CS15SBGEUK45T8LGP8RNKEYV0,3NQL1CS15SBGEUK45T8LGP8RNKEYV0,271255,271255,,,,,,,,,,
,,,,5,3.17598,0,5,5,231,1,a high end living room with a bookcase,a high end livig room with a bookcase that has a clock on it,wolfe2,043_L_clock,3,32,AUQ79MANVDU9B,2021-01-25_14h01.43.117,MetaAwareness,2020.1.2,Win32,60,3TZ0XG8CBVN0GXIPZM0T1B04DYC892,AUQ79MANVDU9B,3NQL1CS15SBGEUK45T8LGP8RNKEYV0,11QN5,11QN5,3NQL1CS15SBGEUK45T8LGP8RNKEYV0,3NQL1CS15SBGEUK45T8LGP8RNKEYV0,271255,271255,,,,,,,,,,
,,,,3,9.96832,0,6,6,510,1,there is an outlet in the wall next to the headboard in this hotel room.,there is nothing on the well next to the headboard in this hotel room.,wolfe2,093_R_switch,3,32,AUQ79MANVDU9B,2021-01-25_14h01.43.117,MetaAwareness,2020.1.2,Win32,60,3TZ0XG8CBVN0GXIPZM0T1B04DYC892,AUQ79MANVDU9B,3NQL1CS15SBGEUK45T8LGP8RNKEYV0,11QN5,11QN5,3NQL1CS15SBGEUK45T8LGP8RNKEYV0,3NQL1CS15SBGEUK45T8LGP8RNKEYV0,271255,271255,,,,,,,,,,
,,,,5,6.882995,0,7,7,47,1,a modern bedroom with a settee sitting on the hard floor,a modern bedroom with a settee sitting on a rug on the hard floor,wolfe2,009_R_carpet,2,32,AUQ79MANVDU9B,2021-01-25_14h01.43.117,MetaAwareness,2020.1.2,Win32,60,3TZ0XG8CBVN0GXIPZM0T1B04DYC892,AUQ79MANVDU9B,3NQL1CS15SBGEUK45T8LGP8RNKEYV0,11QN5,11QN5,3NQL1CS15SBGEUK45T8LGP8RNKEYV0,3NQL1CS15SBGEUK45T8LGP8RNKEYV0,271255,271255,,,,,,,,,,
,,,,5,4.485855,0,8,8,254,1,a nice bedroom with large glass wall with green view outside and comforting couch,a nice bedroom with large glass wall with green view outside with comforting couch and side lamp,wolfe2,048_L_art,3,32,AUQ79MANVDU9B,2021-01-25_14h01.43.117,MetaAwareness,2020.1.2,Win32,60,3TZ0XG8CBVN0GXIPZM0T1B04DYC892,AUQ79MANVDU9B,3NQL1CS15SBGEUK45T8LGP8RNKEYV0,11QN5,11QN5,3NQL1CS15SBGEUK45T8LGP8RNKEYV0,3NQL1CS15SBGEUK45T8LGP8RNKEYV0,271255,271255,,,,,,,,,,
,,,,4,3.932,0,9,9,275,1,a cabinet in a bathroom with the bottom drawer missing a handle,a cabinet in a bathroom with the bottom dresser having a handle,wolfe2,053_R_handle,3,32,AUQ79MANVDU9B,2021-01-25_14h01.43.117,MetaAwareness,2020.1.2,Win32,60,3TZ0XG8CBVN0GXIPZM0T1B04DYC892,AUQ79MANVDU9B,3NQL1CS15SBGEUK45T8LGP8RNKEYV0,11QN5,11QN5,3NQL1CS15SBGEUK45T8LGP8RNKEYV0,3NQL1CS15SBGEUK45T8LGP8RNKEYV0,271255,271255,,,,,,,,,,
,,,,5,3.075695,0,10,10,248,1,a red and cream bedroom with a desk that has six drawers,a red and cream bedroom with a desk that has seven drawers,wolfe2,047_L_handle,4,32,AUQ79MANVDU9B,2021-01-25_14h01.43.117,MetaAwareness,2020.1.2,Win32,60,3TZ0XG8CBVN0GXIPZM0T1B04DYC892,AUQ79MANVDU9B,3NQL1CS15SBGEUK45T8LGP8RNKEYV0,11QN5,11QN5,3NQL1CS15SBGEUK45T8LGP8RNKEYV0,3NQL1CS15SBGEUK45T8LGP8RNKEYV0,271255,271255,,,,,,,,,,
,,,,1,2.58292,0,11,11,372,1,the living room has cream colored carpeting and off white walls,a chandelier hangs off the wall in the cozy living room with plush furniture and cream colored carpeting,wolfe2,070_R_lamp,2,32,AUQ79MANVDU9B,2021-01-25_14h01.43.117,MetaAwareness,2020.1.2,Win32,60,3TZ0XG8CBVN0GXIPZM0T1B04DYC892,AUQ79MANVDU9B,3NQL1CS15SBGEUK45T8LGP8RNKEYV0,11QN5,11QN5,3NQL1CS15SBGEUK45T8LGP8RNKEYV0,3NQL1CS15SBGEUK45T8LGP8RNKEYV0,271255,271255,,,,,,,,,,
,,,,4,2.043575,0,12,12,377,1,a very coy old school looking living room,a very cozy old school looking living room with some flowers on one of the end tables,wolfe2,071_L_art,2,32,AUQ79MANVDU9B,2021-01-25_14h01.43.117,MetaAwareness,2020.1.2,Win32,60,3TZ0XG8CBVN0GXIPZM0T1B04DYC892,AUQ79MANVDU9B,3NQL1CS15SBGEUK45T8LGP8RNKEYV0,11QN5,11QN5,3NQL1CS15SBGEUK45T8LGP8RNKEYV0,3NQL1CS15SBGEUK45T8LGP8RNKEYV0,271255,271255,,,,,,,,,,
,,,,4,3.15616,0,13,13,551,1,a modern powder room with devorations and gifts on the floor,a modern powder room with steps to the outside,wolfe2,102_L_shoppingbag,4,32,AUQ79MANVDU9B,2021-01-25_14h01.43.117,MetaAwareness,2020.1.2,Win32,60,3TZ0XG8CBVN0GXIPZM0T1B04DYC892,AUQ79MANVDU9B,3NQL1CS15SBGEUK45T8LGP8RNKEYV0,11QN5,11QN5,3NQL1CS15SBGEUK45T8LGP8RNKEYV0,3NQL1CS15SBGEUK45T8LGP8RNKEYV0,271255,271255,,,,,,,,,,
,,,,4,3.807955,0,14,14,595,1,a pillow on a couch,a couch with no pillow,wolfe2,109_L_pillow,2,32,AUQ79MANVDU9B,2021-01-25_14h01.43.117,MetaAwareness,2020.1.2,Win32,60,3TZ0XG8CBVN0GXIPZM0T1B04DYC892,AUQ79MANVDU9B,3NQL1CS15SBGEUK45T8LGP8RNKEYV0,11QN5,11QN5,3NQL1CS15SBGEUK45T8LGP8RNKEYV0,3NQL1CS15SBGEUK45T8LGP8RNKEYV0,271255,271255,,,,,,,,,,
,,,,4,4.256005,0,15,15,118,1,a colorful room with a table that has nothing on top of a table mat,a colorful room with a table that has a keyboard on top of a mat,wolfe2,021_R_keyboard,4,32,AUQ79MANVDU9B,2021-01-25_14h01.43.117,MetaAwareness,2020.1.2,Win32,60,3TZ0XG8CBVN0GXIPZM0T1B04DYC892,AUQ79MANVDU9B,3NQL1CS15SBGEUK45T8LGP8RNKEYV0,11QN5,11QN5,3NQL1CS15SBGEUK45T8LGP8RNKEYV0,3NQL1CS15SBGEUK45T8LGP8RNKEYV0,271255,271255,,,,,,,,,,
,,,,5,4.083775,0,16,16,266,1,a section of a living area with a lot of decor and a white mantle,a section of a living area with a lot of decor and a figurine on top of a white mantle,wolfe2,051_R_owl,4,32,AUQ79MANVDU9B,2021-01-25_14h01.43.117,MetaAwareness,2020.1.2,Win32,60,3TZ0XG8CBVN0GXIPZM0T1B04DYC892,AUQ79MANVDU9B,3NQL1CS15SBGEUK45T8LGP8RNKEYV0,11QN5,11QN5,3NQL1CS15SBGEUK45T8LGP8RNKEYV0,3NQL1CS15SBGEUK45T8LGP8RNKEYV0,271255,271255,,,,,,,,,,
,,,,5,4.30784,0,17,17,105,1,outside portion of house with one light on top of exit,outside section of a house with two lights on top of exit,wolfe2,019_L_lamp_sized,1,32,AUQ79MANVDU9B,2021-01-25_14h01.43.117,MetaAwareness,2020.1.2,Win32,60,3TZ0XG8CBVN0GXIPZM0T1B04DYC892,AUQ79MANVDU9B,3NQL1CS15SBGEUK45T8LGP8RNKEYV0,11QN5,11QN5,3NQL1CS15SBGEUK45T8LGP8RNKEYV0,3NQL1CS15SBGEUK45T8LGP8RNKEYV0,271255,271255,,,,,,,,,,
,,,,5,3.838765,0,18,18,568,1,a cluttered room with a hat and various clothes thrown on the bed,a cluttered room with various clothes thrown on the bed,wolfe2,105_R_hat,1,32,AUQ79MANVDU9B,2021-01-25_14h01.43.117,MetaAwareness,2020.1.2,Win32,60,3TZ0XG8CBVN0GXIPZM0T1B04DYC892,AUQ79MANVDU9B,3NQL1CS15SBGEUK45T8LGP8RNKEYV0,11QN5,11QN5,3NQL1CS15SBGEUK45T8LGP8RNKEYV0,3NQL1CS15SBGEUK45T8LGP8RNKEYV0,271255,271255,,,,,,,,,,
,,,,5,3.482585,0,19,19,547,1,a cluttered bathroom with many mirrors and a red glass on a shelf near the sink,a cluttered bathroom with many mirrors and two tall glasses on a shelf near the sink,wolfe2,101_R_cup,1,32,AUQ79MANVDU9B,2021-01-25_14h01.43.117,MetaAwareness,2020.1.2,Win32,60,3TZ0XG8CBVN0GXIPZM0T1B04DYC892,AUQ79MANVDU9B,3NQL1CS15SBGEUK45T8LGP8RNKEYV0,11QN5,11QN5,3NQL1CS15SBGEUK45T8LGP8RNKEYV0,3NQL1CS15SBGEUK45T8LGP8RNKEYV0,271255,271255,,,,,,,,,,
,,,,5,3.58105,0,20,20,222,1,a tidy kitchen with a bowl that looks like it should be holding something,a tidy kitchen with a bowl of fruit on the counter,wolfe2,041_L_fruit,4,32,AUQ79MANVDU9B,2021-01-25_14h01.43.117,MetaAwareness,2020.1.2,Win32,60,3TZ0XG8CBVN0GXIPZM0T1B04DYC892,AUQ79MANVDU9B,3NQL1CS15SBGEUK45T8LGP8RNKEYV0,11QN5,11QN5,3NQL1CS15SBGEUK45T8LGP8RNKEYV0,3NQL1CS15SBGEUK45T8LGP8RNKEYV0,271255,271255,,,,,,,,,,
,,,,5,4.76777,0,21,21,397,1,spacious and bright kitchen with several windows and a flower vase on the countertop.,spacious and bright kitchen with several windows and a multiple flower vases on the countertop.,wolfe2,073_R_coffeemug,3,32,AUQ79MANVDU9B,2021-01-25_14h01.43.117,MetaAwareness,2020.1.2,Win32,60,3TZ0XG8CBVN0GXIPZM0T1B04DYC892,AUQ79MANVDU9B,3NQL1CS15SBGEUK45T8LGP8RNKEYV0,11QN5,11QN5,3NQL1CS15SBGEUK45T8LGP8RNKEYV0,3NQL1CS15SBGEUK45T8LGP8RNKEYV0,271255,271255,,,,,,,,,,
,,,,5,2.72813,0,22,22,174,1,a bathroom with a soap dispenser on the wall,a bathroom with 2 soap dispensers on the wall,wolfe2,032_L_bottle,1,32,AUQ79MANVDU9B,2021-01-25_14h01.43.117,MetaAwareness,2020.1.2,Win32,60,3TZ0XG8CBVN0GXIPZM0T1B04DYC892,AUQ79MANVDU9B,3NQL1CS15SBGEUK45T8LGP8RNKEYV0,11QN5,11QN5,3NQL1CS15SBGEUK45T8LGP8RNKEYV0,3NQL1CS15SBGEUK45T8LGP8RNKEYV0,271255,271255,,,,,,,,,,
,,,,5,3.20434,0,23,23,627,1,"a modern style open living area with a large table, sliding doors opening to a patio, and a plant with a basket next to it","a modern style open living area with a large table, sliding doors opening to a patio, and a plant",wolfe2,116_L_basket,4,32,AUQ79MANVDU9B,2021-01-25_14h01.43.117,MetaAwareness,2020.1.2,Win32,60,3TZ0XG8CBVN0GXIPZM0T1B04DYC892,AUQ79MANVDU9B,3NQL1CS15SBGEUK45T8LGP8RNKEYV0,11QN5,11QN5,3NQL1CS15SBGEUK45T8LGP8RNKEYV0,3NQL1CS15SBGEUK45T8LGP8RNKEYV0,271255,271255,,,,,,,,,,
,,,,3,3.267765,0,24,24,580,1,a bathroom with a hanging towel dispencer,a bathroom,wolfe2,106_R_toweldispenser,5,32,AUQ79MANVDU9B,2021-01-25_14h01.43.117,MetaAwareness,2020.1.2,Win32,60,3TZ0XG8CBVN0GXIPZM0T1B04DYC892,AUQ79MANVDU9B,3NQL1CS15SBGEUK45T8LGP8RNKEYV0,11QN5,11QN5,3NQL1CS15SBGEUK45T8LGP8RNKEYV0,3NQL1CS15SBGEUK45T8LGP8RNKEYV0,271255,271255,,,,,,,,,,
,,,,4,2.43376,0,25,25,335,1,an eating or hangout area next to a fireplace with open doors,"an eating or hangout area next to a fireplace with open doors to outside, and a computer on the desk on the upper level",wolfe2,063_R_laptop,3,32,AUQ79MANVDU9B,2021-01-25_14h01.43.117,MetaAwareness,2020.1.2,Win32,60,3TZ0XG8CBVN0GXIPZM0T1B04DYC892,AUQ79MANVDU9B,3NQL1CS15SBGEUK45T8LGP8RNKEYV0,11QN5,11QN5,3NQL1CS15SBGEUK45T8LGP8RNKEYV0,3NQL1CS15SBGEUK45T8LGP8RNKEYV0,271255,271255,,,,,,,,,,
,,,,4,2.92985,0,26,26,565,1,a rustic looking cafe with a table that has a vase and flowers,a rustic looking cafe with tables that don't have a vase or flowers on them,wolfe2,104_R_bottle,4,32,AUQ79MANVDU9B,2021-01-25_14h01.43.117,MetaAwareness,2020.1.2,Win32,60,3TZ0XG8CBVN0GXIPZM0T1B04DYC892,AUQ79MANVDU9B,3NQL1CS15SBGEUK45T8LGP8RNKEYV0,11QN5,11QN5,3NQL1CS15SBGEUK45T8LGP8RNKEYV0,3NQL1CS15SBGEUK45T8LGP8RNKEYV0,271255,271255,,,,,,,,,,
,,,,5,3.647825,0,27,27,111,1,a desk sits in the corner of the room with some decorations on the wall.,a desk sits in the corner of the room with three decorations of circles o the wall.,wolfe2,020_L_walldeco,3,32,AUQ79MANVDU9B,2021-01-25_14h01.43.117,MetaAwareness,2020.1.2,Win32,60,3TZ0XG8CBVN0GXIPZM0T1B04DYC892,AUQ79MANVDU9B,3NQL1CS15SBGEUK45T8LGP8RNKEYV0,11QN5,11QN5,3NQL1CS15SBGEUK45T8LGP8RNKEYV0,3NQL1CS15SBGEUK45T8LGP8RNKEYV0,271255,271255,,,,,,,,,,
,,,,5,3.67101,0,28,28,533,1,"a dining rom with a table and chairs, a mirror, a storage unit and a candle hanging on the wall.","a dining room with a table and chairs, a storage unit and a large mirror.",wolfe2,099_L_sconce,5,32,AUQ79MANVDU9B,2021-01-25_14h01.43.117,MetaAwareness,2020.1.2,Win32,60,3TZ0XG8CBVN0GXIPZM0T1B04DYC892,AUQ79MANVDU9B,3NQL1CS15SBGEUK45T8LGP8RNKEYV0,11QN5,11QN5,3NQL1CS15SBGEUK45T8LGP8RNKEYV0,3NQL1CS15SBGEUK45T8LGP8RNKEYV0,271255,271255,,,,,,,,,,
,,,,5,3.36216,0,29,29,623,1,"a gorgeous open concept house that shows the kitchen flowing into the living room, their is a plant in front of the kitchen window","a gorgeous open concept house that shows the kitchen flowing into the living room, it appears that there is a perfect window for a plant in the kitchen",wolfe2,115_L_pot,4,32,AUQ79MANVDU9B,2021-01-25_14h01.43.117,MetaAwareness,2020.1.2,Win32,60,3TZ0XG8CBVN0GXIPZM0T1B04DYC892,AUQ79MANVDU9B,3NQL1CS15SBGEUK45T8LGP8RNKEYV0,11QN5,11QN5,3NQL1CS15SBGEUK45T8LGP8RNKEYV0,3NQL1CS15SBGEUK45T8LGP8RNKEYV0,271255,271255,,,,,,,,,,
,,,,,,,,,,,,,,,,32,AUQ79MANVDU9B,2021-01-25_14h01.43.117,MetaAwareness,2020.1.2,Win32,60,3TZ0XG8CBVN0GXIPZM0T1B04DYC892,AUQ79MANVDU9B,3NQL1CS15SBGEUK45T8LGP8RNKEYV0,11QN5,11QN5,3NQL1CS15SBGEUK45T8LGP8RNKEYV0,3NQL1CS15SBGEUK45T8LGP8RNKEYV0,271255,271255,6,4.46447,someone laying underneath a blue beach umbrella on a crowded beach,someone laying underneath a blue beach umbrella on a crowded beach,same,1,8.503215,members of a marching band crossing a track that all have feather plumes at the front of their hats,a cluttered and rustic looking cafe with 10 hanging lights,different
