consent_response.keys,consent_response.rt,key_resp_2.keys,key_resp_2.rt,user_resp.keys,user_resp.rt,trials.thisRepN,trials.thisTrialN,trials.thisN,trials.thisIndex,trials.ran,image_1_text,image_2_text,database,image,number,age,worker_ID,date,expName,psychopyVersion,OS,frameRate,hitId,workerId,assignmentId,a,tp_a,b,tp_b,c,tp_c,catch_same_resp.keys,catch_same_resp.rt,image_1_text_catch_same,image_2_text_catch_same,image_catch_same,catch_different_resp.keys,catch_different_resp.rt,image_1_text_catch_different,image_2_text_catch_different,image_catch_different
space,14.40256,space,6.580305,1,7.864505,0,0,0,59,1,people watch children in a park. one man has a pink beach bag.,people watch children in a park.,wolfe1,image-020,1,61,A198MSVO1VTAT5,2021-01-09_10h49.11.912,MetaAwareness,2020.1.2,Win32,60,3CVDZS288I3O2WB6W9A4GPNAZIMFMC,A198MSVO1VTAT5,392CY0QWG2UVUHMKHFLVLBEQJYN4IP,WY291,WY291,392CY0QWG2UVUHMKHFLVLBEQJYN4IP,392CY0QWG2UVUHMKHFLVLBEQJYN4IP,268121,268121,,,,,,,,,,
,,,,5,12.99637,0,1,1,47,1,crowds are being in the park one boy leg placed in the yellow box,crowds are being in the park no ones leg placed in the yellow box,wolfe1,image-016,3,61,A198MSVO1VTAT5,2021-01-09_10h49.11.912,MetaAwareness,2020.1.2,Win32,60,3CVDZS288I3O2WB6W9A4GPNAZIMFMC,A198MSVO1VTAT5,392CY0QWG2UVUHMKHFLVLBEQJYN4IP,WY291,WY291,392CY0QWG2UVUHMKHFLVLBEQJYN4IP,392CY0QWG2UVUHMKHFLVLBEQJYN4IP,268121,268121,,,,,,,,,,
,,,,1,3.054025,0,2,2,78,1,a small window panel on the roof af an old building,the roof of a historic old building,wolfe1,image-029,1,61,A198MSVO1VTAT5,2021-01-09_10h49.11.912,MetaAwareness,2020.1.2,Win32,60,3CVDZS288I3O2WB6W9A4GPNAZIMFMC,A198MSVO1VTAT5,392CY0QWG2UVUHMKHFLVLBEQJYN4IP,WY291,WY291,392CY0QWG2UVUHMKHFLVLBEQJYN4IP,392CY0QWG2UVUHMKHFLVLBEQJYN4IP,268121,268121,,,,,,,,,,
,,,,2,5.622325,0,3,3,68,1,the first two cars are red with a barrel in from of them.,the first two cars are red,wolfe1,image-024,1,61,A198MSVO1VTAT5,2021-01-09_10h49.11.912,MetaAwareness,2020.1.2,Win32,60,3CVDZS288I3O2WB6W9A4GPNAZIMFMC,A198MSVO1VTAT5,392CY0QWG2UVUHMKHFLVLBEQJYN4IP,WY291,WY291,392CY0QWG2UVUHMKHFLVLBEQJYN4IP,392CY0QWG2UVUHMKHFLVLBEQJYN4IP,268121,268121,,,,,,,,,,
,,,,5,7.933425,0,4,4,100,1,the wide open ocean with five sail boats and five small speed boats ahead of them.,the wide open ocean with five sail boats and four small speed boats ahead of them,wolfe1,image-035,5,61,A198MSVO1VTAT5,2021-01-09_10h49.11.912,MetaAwareness,2020.1.2,Win32,60,3CVDZS288I3O2WB6W9A4GPNAZIMFMC,A198MSVO1VTAT5,392CY0QWG2UVUHMKHFLVLBEQJYN4IP,WY291,WY291,392CY0QWG2UVUHMKHFLVLBEQJYN4IP,392CY0QWG2UVUHMKHFLVLBEQJYN4IP,268121,268121,,,,,,,,,,
,,,,5,3.715905,0,5,5,106,1,a parking lot with a yellow sign.,a parking lot with no signs.,wolfe1,image-038,4,61,A198MSVO1VTAT5,2021-01-09_10h49.11.912,MetaAwareness,2020.1.2,Win32,60,3CVDZS288I3O2WB6W9A4GPNAZIMFMC,A198MSVO1VTAT5,392CY0QWG2UVUHMKHFLVLBEQJYN4IP,WY291,WY291,392CY0QWG2UVUHMKHFLVLBEQJYN4IP,392CY0QWG2UVUHMKHFLVLBEQJYN4IP,268121,268121,,,,,,,,,,
,,,,3,8.82375,0,6,6,42,1,people are sitting in a field for an outdoor concert with one empty blanket that no one is using,people are sitting in a field for an outdoor concert with a large patch of empty grass to the left side of the stage,wolfe1,image-014,5,61,A198MSVO1VTAT5,2021-01-09_10h49.11.912,MetaAwareness,2020.1.2,Win32,60,3CVDZS288I3O2WB6W9A4GPNAZIMFMC,A198MSVO1VTAT5,392CY0QWG2UVUHMKHFLVLBEQJYN4IP,WY291,WY291,392CY0QWG2UVUHMKHFLVLBEQJYN4IP,392CY0QWG2UVUHMKHFLVLBEQJYN4IP,268121,268121,,,,,,,,,,
,,,,5,7.39652,0,7,7,237,1,a tiered staircase lined with pillows and one yellow pillow,a tiered staircase lined with pillows and a green pillow,wolfe1,image-106,3,61,A198MSVO1VTAT5,2021-01-09_10h49.11.912,MetaAwareness,2020.1.2,Win32,60,3CVDZS288I3O2WB6W9A4GPNAZIMFMC,A198MSVO1VTAT5,392CY0QWG2UVUHMKHFLVLBEQJYN4IP,WY291,WY291,392CY0QWG2UVUHMKHFLVLBEQJYN4IP,392CY0QWG2UVUHMKHFLVLBEQJYN4IP,268121,268121,,,,,,,,,,
,,,,4,8.550515,0,8,8,243,1,"there are three men playing golf, there is a building in the background.",there are three men playing golf there is some type of white building in the background.,wolfe1,image-108,1,61,A198MSVO1VTAT5,2021-01-09_10h49.11.912,MetaAwareness,2020.1.2,Win32,60,3CVDZS288I3O2WB6W9A4GPNAZIMFMC,A198MSVO1VTAT5,392CY0QWG2UVUHMKHFLVLBEQJYN4IP,WY291,WY291,392CY0QWG2UVUHMKHFLVLBEQJYN4IP,392CY0QWG2UVUHMKHFLVLBEQJYN4IP,268121,268121,,,,,,,,,,
,,,,4,8.906395,0,9,9,141,1,multiple people shoveling and one finds an item in the dirt.,multiple people shoveling dirt.,wolfe1,image-047,7,61,A198MSVO1VTAT5,2021-01-09_10h49.11.912,MetaAwareness,2020.1.2,Win32,60,3CVDZS288I3O2WB6W9A4GPNAZIMFMC,A198MSVO1VTAT5,392CY0QWG2UVUHMKHFLVLBEQJYN4IP,WY291,WY291,392CY0QWG2UVUHMKHFLVLBEQJYN4IP,392CY0QWG2UVUHMKHFLVLBEQJYN4IP,268121,268121,,,,,,,,,,
,,,,5,6.511125,0,10,10,182,1,a boy in a red shirt plays with other children in a grassy field,a boy in a purple shirt plays with other children in a grassy field,wolfe1,image-086,5,61,A198MSVO1VTAT5,2021-01-09_10h49.11.912,MetaAwareness,2020.1.2,Win32,60,3CVDZS288I3O2WB6W9A4GPNAZIMFMC,A198MSVO1VTAT5,392CY0QWG2UVUHMKHFLVLBEQJYN4IP,WY291,WY291,392CY0QWG2UVUHMKHFLVLBEQJYN4IP,392CY0QWG2UVUHMKHFLVLBEQJYN4IP,268121,268121,,,,,,,,,,
,,,,5,13.53532,0,11,11,337,1,there is a patch of sand that has bench tables and chairs with blue and yellow umbrellas hanging over them. the blue umbrella is on the far left.,there is a patch of sand that has bench tables and chairs with blue and yellow umbrellas hanging over them. there is a yellow umbrella on the far left side.,wolfe1,image-137,6,61,A198MSVO1VTAT5,2021-01-09_10h49.11.912,MetaAwareness,2020.1.2,Win32,60,3CVDZS288I3O2WB6W9A4GPNAZIMFMC,A198MSVO1VTAT5,392CY0QWG2UVUHMKHFLVLBEQJYN4IP,WY291,WY291,392CY0QWG2UVUHMKHFLVLBEQJYN4IP,392CY0QWG2UVUHMKHFLVLBEQJYN4IP,268121,268121,,,,,,,,,,
,,,,5,6.070305,0,12,12,225,1,a man with a red tie poses with a group of men in suits,a man with a purple tie poses with a  group of men in suits,wolfe1,image-102,5,61,A198MSVO1VTAT5,2021-01-09_10h49.11.912,MetaAwareness,2020.1.2,Win32,60,3CVDZS288I3O2WB6W9A4GPNAZIMFMC,A198MSVO1VTAT5,392CY0QWG2UVUHMKHFLVLBEQJYN4IP,WY291,WY291,392CY0QWG2UVUHMKHFLVLBEQJYN4IP,392CY0QWG2UVUHMKHFLVLBEQJYN4IP,268121,268121,,,,,,,,,,
,,,,4,8.87129,0,13,13,202,1,a male and female student walking together and her backpack has a blue sticker,a male and female student waking together and her backpack has a green sticker,wolfe1,image-094,9,61,A198MSVO1VTAT5,2021-01-09_10h49.11.912,MetaAwareness,2020.1.2,Win32,60,3CVDZS288I3O2WB6W9A4GPNAZIMFMC,A198MSVO1VTAT5,392CY0QWG2UVUHMKHFLVLBEQJYN4IP,WY291,WY291,392CY0QWG2UVUHMKHFLVLBEQJYN4IP,392CY0QWG2UVUHMKHFLVLBEQJYN4IP,268121,268121,,,,,,,,,,
,,,,3,6.59431,0,14,14,91,1,people playing basketball outside with a blue awning,people playing basketball outside with a tree in the background,wolfe1,image-033,6,61,A198MSVO1VTAT5,2021-01-09_10h49.11.912,MetaAwareness,2020.1.2,Win32,60,3CVDZS288I3O2WB6W9A4GPNAZIMFMC,A198MSVO1VTAT5,392CY0QWG2UVUHMKHFLVLBEQJYN4IP,WY291,WY291,392CY0QWG2UVUHMKHFLVLBEQJYN4IP,392CY0QWG2UVUHMKHFLVLBEQJYN4IP,268121,268121,,,,,,,,,,
,,,,3,4.931115,0,15,15,104,1,"several buildings line a cobblestone street. the first building on the right has a yellow sign, probably giving the street name.",several buildings line a cobblestone street.,wolfe1,image-038,1,61,A198MSVO1VTAT5,2021-01-09_10h49.11.912,MetaAwareness,2020.1.2,Win32,60,3CVDZS288I3O2WB6W9A4GPNAZIMFMC,A198MSVO1VTAT5,392CY0QWG2UVUHMKHFLVLBEQJYN4IP,WY291,WY291,392CY0QWG2UVUHMKHFLVLBEQJYN4IP,392CY0QWG2UVUHMKHFLVLBEQJYN4IP,268121,268121,,,,,,,,,,
,,,,5,5.480955,0,16,16,63,1,there are four arrow holders.,there are three arrow holders.,wolfe1,image-021,1,61,A198MSVO1VTAT5,2021-01-09_10h49.11.912,MetaAwareness,2020.1.2,Win32,60,3CVDZS288I3O2WB6W9A4GPNAZIMFMC,A198MSVO1VTAT5,392CY0QWG2UVUHMKHFLVLBEQJYN4IP,WY291,WY291,392CY0QWG2UVUHMKHFLVLBEQJYN4IP,392CY0QWG2UVUHMKHFLVLBEQJYN4IP,268121,268121,,,,,,,,,,
,,,,5,9.93835,0,17,17,173,1,several students are working together at a table in a classroom. behind them is a bulletin board with a red square on it,several students are working together at a table in a classroom. behind them there is a bulletin board with a yellow square on it.,wolfe1,image-083,1,61,A198MSVO1VTAT5,2021-01-09_10h49.11.912,MetaAwareness,2020.1.2,Win32,60,3CVDZS288I3O2WB6W9A4GPNAZIMFMC,A198MSVO1VTAT5,392CY0QWG2UVUHMKHFLVLBEQJYN4IP,WY291,WY291,392CY0QWG2UVUHMKHFLVLBEQJYN4IP,392CY0QWG2UVUHMKHFLVLBEQJYN4IP,268121,268121,,,,,,,,,,
,,,,5,6.34967,0,18,18,298,1,a woman shovels snow off of her car with a big blue shovel,a woman shovels snow off of her car with a big green shovel,wolfe1,image-127,3,61,A198MSVO1VTAT5,2021-01-09_10h49.11.912,MetaAwareness,2020.1.2,Win32,60,3CVDZS288I3O2WB6W9A4GPNAZIMFMC,A198MSVO1VTAT5,392CY0QWG2UVUHMKHFLVLBEQJYN4IP,WY291,WY291,392CY0QWG2UVUHMKHFLVLBEQJYN4IP,392CY0QWG2UVUHMKHFLVLBEQJYN4IP,268121,268121,,,,,,,,,,
,,,,5,5.34304,0,19,19,97,1,a backyard with six paver stones,a backyard with five paver stones,wolfe1,image-034,9,61,A198MSVO1VTAT5,2021-01-09_10h49.11.912,MetaAwareness,2020.1.2,Win32,60,3CVDZS288I3O2WB6W9A4GPNAZIMFMC,A198MSVO1VTAT5,392CY0QWG2UVUHMKHFLVLBEQJYN4IP,WY291,WY291,392CY0QWG2UVUHMKHFLVLBEQJYN4IP,392CY0QWG2UVUHMKHFLVLBEQJYN4IP,268121,268121,,,,,,,,,,
,,,,5,5.582665,0,20,20,34,1,a very modern cabin with a hammock and a fire pit,a very modern cabin with a hammock and a gravel yard,wolfe1,image-012,6,61,A198MSVO1VTAT5,2021-01-09_10h49.11.912,MetaAwareness,2020.1.2,Win32,60,3CVDZS288I3O2WB6W9A4GPNAZIMFMC,A198MSVO1VTAT5,392CY0QWG2UVUHMKHFLVLBEQJYN4IP,WY291,WY291,392CY0QWG2UVUHMKHFLVLBEQJYN4IP,392CY0QWG2UVUHMKHFLVLBEQJYN4IP,268121,268121,,,,,,,,,,
,,,,5,7.73383,0,21,21,238,1,a series of platforms with pillows. there is a yellow pillow on the top tier.,a series of platforms with pillows. there is a green pillow on the top tier.,wolfe1,image-106,5,61,A198MSVO1VTAT5,2021-01-09_10h49.11.912,MetaAwareness,2020.1.2,Win32,60,3CVDZS288I3O2WB6W9A4GPNAZIMFMC,A198MSVO1VTAT5,392CY0QWG2UVUHMKHFLVLBEQJYN4IP,WY291,WY291,392CY0QWG2UVUHMKHFLVLBEQJYN4IP,392CY0QWG2UVUHMKHFLVLBEQJYN4IP,268121,268121,,,,,,,,,,
,,,,3,3.88125,0,22,22,124,1,a modern living room featuring a white vase on a table,a modern living room,wolfe1,image-043,2,61,A198MSVO1VTAT5,2021-01-09_10h49.11.912,MetaAwareness,2020.1.2,Win32,60,3CVDZS288I3O2WB6W9A4GPNAZIMFMC,A198MSVO1VTAT5,392CY0QWG2UVUHMKHFLVLBEQJYN4IP,WY291,WY291,392CY0QWG2UVUHMKHFLVLBEQJYN4IP,392CY0QWG2UVUHMKHFLVLBEQJYN4IP,268121,268121,,,,,,,,,,
,,,,5,6.449785,0,23,23,224,1,a group of well dressed men posing for a picture. the one on the very right has a red tie on,a group of well dressed men posing for a picture. the one on the very right has a purple tie on,wolfe1,image-102,4,61,A198MSVO1VTAT5,2021-01-09_10h49.11.912,MetaAwareness,2020.1.2,Win32,60,3CVDZS288I3O2WB6W9A4GPNAZIMFMC,A198MSVO1VTAT5,392CY0QWG2UVUHMKHFLVLBEQJYN4IP,WY291,WY291,392CY0QWG2UVUHMKHFLVLBEQJYN4IP,392CY0QWG2UVUHMKHFLVLBEQJYN4IP,268121,268121,,,,,,,,,,
,,,,3,12.304025,0,24,24,25,1,people are watching animals at the farm where some of the chickens are on both sides of the fence,people are watching animals at a farm with the chickens all on the same sid of the fence as the people are on,wolfe1,image-009,2,61,A198MSVO1VTAT5,2021-01-09_10h49.11.912,MetaAwareness,2020.1.2,Win32,60,3CVDZS288I3O2WB6W9A4GPNAZIMFMC,A198MSVO1VTAT5,392CY0QWG2UVUHMKHFLVLBEQJYN4IP,WY291,WY291,392CY0QWG2UVUHMKHFLVLBEQJYN4IP,392CY0QWG2UVUHMKHFLVLBEQJYN4IP,268121,268121,,,,,,,,,,
,,,,5,6.343875,0,25,25,43,1,there is an empty blanket on the ground at the concert,there is no empty blanket on the ground at the concer,wolfe1,image-014,8,61,A198MSVO1VTAT5,2021-01-09_10h49.11.912,MetaAwareness,2020.1.2,Win32,60,3CVDZS288I3O2WB6W9A4GPNAZIMFMC,A198MSVO1VTAT5,392CY0QWG2UVUHMKHFLVLBEQJYN4IP,WY291,WY291,392CY0QWG2UVUHMKHFLVLBEQJYN4IP,392CY0QWG2UVUHMKHFLVLBEQJYN4IP,268121,268121,,,,,,,,,,
,,,,5,8.06619,0,26,26,38,1,men in white shirts playing instruments outside of a building with a no loitering sign on the wall,men in white shirts playing instruments outside of a building with no signs on the wall,wolfe1,image-013,2,61,A198MSVO1VTAT5,2021-01-09_10h49.11.912,MetaAwareness,2020.1.2,Win32,60,3CVDZS288I3O2WB6W9A4GPNAZIMFMC,A198MSVO1VTAT5,392CY0QWG2UVUHMKHFLVLBEQJYN4IP,WY291,WY291,392CY0QWG2UVUHMKHFLVLBEQJYN4IP,392CY0QWG2UVUHMKHFLVLBEQJYN4IP,268121,268121,,,,,,,,,,
,,,,5,4.04762,0,27,27,304,1,woman in blue jeans walking,woman in gray jeans walking,wolfe1,image-129,1,61,A198MSVO1VTAT5,2021-01-09_10h49.11.912,MetaAwareness,2020.1.2,Win32,60,3CVDZS288I3O2WB6W9A4GPNAZIMFMC,A198MSVO1VTAT5,392CY0QWG2UVUHMKHFLVLBEQJYN4IP,WY291,WY291,392CY0QWG2UVUHMKHFLVLBEQJYN4IP,392CY0QWG2UVUHMKHFLVLBEQJYN4IP,268121,268121,,,,,,,,,,
,,,,4,15.679635,0,28,28,282,1,a green sign that has red lettering is in the window of the shop in the blue building,a red sign that has red lettering is in the window of the shop in the blue building,wolfe1,image-123,3,61,A198MSVO1VTAT5,2021-01-09_10h49.11.912,MetaAwareness,2020.1.2,Win32,60,3CVDZS288I3O2WB6W9A4GPNAZIMFMC,A198MSVO1VTAT5,392CY0QWG2UVUHMKHFLVLBEQJYN4IP,WY291,WY291,392CY0QWG2UVUHMKHFLVLBEQJYN4IP,392CY0QWG2UVUHMKHFLVLBEQJYN4IP,268121,268121,,,,,,,,,,
,,,,5,8.4552,0,29,29,203,1,a bush with red flowers along a trail a hiker is hiking,a bush with yellow flowers along a trail a hiker is hiking,wolfe1,image-095,2,61,A198MSVO1VTAT5,2021-01-09_10h49.11.912,MetaAwareness,2020.1.2,Win32,60,3CVDZS288I3O2WB6W9A4GPNAZIMFMC,A198MSVO1VTAT5,392CY0QWG2UVUHMKHFLVLBEQJYN4IP,WY291,WY291,392CY0QWG2UVUHMKHFLVLBEQJYN4IP,392CY0QWG2UVUHMKHFLVLBEQJYN4IP,268121,268121,,,,,,,,,,
,,,,,,,,,,,,,,,,61,A198MSVO1VTAT5,2021-01-09_10h49.11.912,MetaAwareness,2020.1.2,Win32,60,3CVDZS288I3O2WB6W9A4GPNAZIMFMC,A198MSVO1VTAT5,392CY0QWG2UVUHMKHFLVLBEQJYN4IP,WY291,WY291,392CY0QWG2UVUHMKHFLVLBEQJYN4IP,392CY0QWG2UVUHMKHFLVLBEQJYN4IP,268121,268121,6,9.989405,someone laying underneath a blue beach umbrella on a crowded beach,someone laying underneath a blue beach umbrella on a crowded beach,same,1,6.60171,members of a marching band crossing a track that all have feather plumes at the front of their hats,a cluttered and rustic looking cafe with 10 hanging lights,different
