consent_response.keys,consent_response.rt,key_resp_2.keys,key_resp_2.rt,user_resp.keys,user_resp.rt,trials.thisRepN,trials.thisTrialN,trials.thisN,trials.thisIndex,trials.ran,image_1_text,image_2_text,database,image,number,age,worker_ID,date,expName,psychopyVersion,OS,frameRate,hitId,workerId,assignmentId,a,tp_a,b,tp_b,c,tp_c,catch_same_resp.keys,catch_same_resp.rt,image_1_text_catch_same,image_2_text_catch_same,image_catch_same,catch_different_resp.keys,catch_different_resp.rt,image_1_text_catch_different,image_2_text_catch_different,image_catch_different
space,11.2646,space,5.0661,4,11.804845,0,0,0,166,1,two women wearing black shirts are sitting outside in white plastic chairs. there is a red magazine sitting on a table in front of them,"two women wearing black shirts are sitting outside in white plastic chairs, there is a blue magazine on a table in front of them",wolfe1,image-081,1,30,A1TOER30AQUY2F,2021-01-09_10h52.49.208,MetaAwareness,2020.1.2,Win32,60,3CVDZS288I3O2WB6W9A4GPNAZIMFMC,A1TOER30AQUY2F,35BLDD71I70GJKU91FA4UWHTSVLZVS,1DB51,1DB51,35BLDD71I70GJKU91FA4UWHTSVLZVS,35BLDD71I70GJKU91FA4UWHTSVLZVS,268121,268121,,,,,,,,,,
,,,,1,4.44703,0,1,1,109,1,there was one light placed in the photo,no lights are paced in the photo,wolfe1,image-040,1,30,A1TOER30AQUY2F,2021-01-09_10h52.49.208,MetaAwareness,2020.1.2,Win32,60,3CVDZS288I3O2WB6W9A4GPNAZIMFMC,A1TOER30AQUY2F,35BLDD71I70GJKU91FA4UWHTSVLZVS,1DB51,1DB51,35BLDD71I70GJKU91FA4UWHTSVLZVS,35BLDD71I70GJKU91FA4UWHTSVLZVS,268121,268121,,,,,,,,,,
,,,,2,12.247865,0,2,2,29,1,a man in the snow with items including a yellow hat next to a red suitcase,a man in the snow with items including a red suitcase and a bucket with a blue garbage bag,wolfe1,image-010,6,30,A1TOER30AQUY2F,2021-01-09_10h52.49.208,MetaAwareness,2020.1.2,Win32,60,3CVDZS288I3O2WB6W9A4GPNAZIMFMC,A1TOER30AQUY2F,35BLDD71I70GJKU91FA4UWHTSVLZVS,1DB51,1DB51,35BLDD71I70GJKU91FA4UWHTSVLZVS,35BLDD71I70GJKU91FA4UWHTSVLZVS,268121,268121,,,,,,,,,,
,,,,4,9.810255,0,3,3,85,1,a woman with badges across her chest walks alongside her fellow ranger across the street,a woman with a badge on the left side of her chest walks alongside her fellow rangers across the street,wolfe1,image-031,6,30,A1TOER30AQUY2F,2021-01-09_10h52.49.208,MetaAwareness,2020.1.2,Win32,60,3CVDZS288I3O2WB6W9A4GPNAZIMFMC,A1TOER30AQUY2F,35BLDD71I70GJKU91FA4UWHTSVLZVS,1DB51,1DB51,35BLDD71I70GJKU91FA4UWHTSVLZVS,35BLDD71I70GJKU91FA4UWHTSVLZVS,268121,268121,,,,,,,,,,
,,,,3,9.310795,0,4,4,110,1,a group of boys are playing basketball. there is a coachlight on the wall,a group of boys are playing basketball. there is no coachlight on the wall.,wolfe1,image-040,2,30,A1TOER30AQUY2F,2021-01-09_10h52.49.208,MetaAwareness,2020.1.2,Win32,60,3CVDZS288I3O2WB6W9A4GPNAZIMFMC,A1TOER30AQUY2F,35BLDD71I70GJKU91FA4UWHTSVLZVS,1DB51,1DB51,35BLDD71I70GJKU91FA4UWHTSVLZVS,35BLDD71I70GJKU91FA4UWHTSVLZVS,268121,268121,,,,,,,,,,
,,,,2,9.147975,0,5,5,230,1,a office meetins with a coworker on the left wearing a blue shirt,a office meeting with a coworker on the right wearing a green shirt,wolfe1,image-104,3,30,A1TOER30AQUY2F,2021-01-09_10h52.49.208,MetaAwareness,2020.1.2,Win32,60,3CVDZS288I3O2WB6W9A4GPNAZIMFMC,A1TOER30AQUY2F,35BLDD71I70GJKU91FA4UWHTSVLZVS,1DB51,1DB51,35BLDD71I70GJKU91FA4UWHTSVLZVS,35BLDD71I70GJKU91FA4UWHTSVLZVS,268121,268121,,,,,,,,,,
,,,,2,6.37751,0,6,6,123,1,people in front of a temple with several spires,people in front of a temple with a missing spire,wolfe1,image-042,7,30,A1TOER30AQUY2F,2021-01-09_10h52.49.208,MetaAwareness,2020.1.2,Win32,60,3CVDZS288I3O2WB6W9A4GPNAZIMFMC,A1TOER30AQUY2F,35BLDD71I70GJKU91FA4UWHTSVLZVS,1DB51,1DB51,35BLDD71I70GJKU91FA4UWHTSVLZVS,35BLDD71I70GJKU91FA4UWHTSVLZVS,268121,268121,,,,,,,,,,
,,,,1,5.57401,0,7,7,272,1,"an oudoor scene of people walking among wood structures, both children and adults with a covered hill in the background and one adult standing, wearing a red backpack",a group of children and adults walking around some wooded structures in from of a low hill with one of the adults wearing a red backpack standing in  jeans to the right,wolfe1,image-118,1,30,A1TOER30AQUY2F,2021-01-09_10h52.49.208,MetaAwareness,2020.1.2,Win32,60,3CVDZS288I3O2WB6W9A4GPNAZIMFMC,A1TOER30AQUY2F,35BLDD71I70GJKU91FA4UWHTSVLZVS,1DB51,1DB51,35BLDD71I70GJKU91FA4UWHTSVLZVS,35BLDD71I70GJKU91FA4UWHTSVLZVS,268121,268121,,,,,,,,,,
,,,,4,6.634905,0,8,8,236,1,a man wearing a green shirt looking to the side while waiting on a concert.,a man wearing a pink shirt looking to the side while waiting on a concert.,wolfe1,image-105,5,30,A1TOER30AQUY2F,2021-01-09_10h52.49.208,MetaAwareness,2020.1.2,Win32,60,3CVDZS288I3O2WB6W9A4GPNAZIMFMC,A1TOER30AQUY2F,35BLDD71I70GJKU91FA4UWHTSVLZVS,1DB51,1DB51,35BLDD71I70GJKU91FA4UWHTSVLZVS,35BLDD71I70GJKU91FA4UWHTSVLZVS,268121,268121,,,,,,,,,,
,,,,1,5.66052,0,9,9,125,1,a minimalistic living room with a vase on the floor.,a minimalistic living room with a carpet and nothing on the floor.,wolfe1,image-043,3,30,A1TOER30AQUY2F,2021-01-09_10h52.49.208,MetaAwareness,2020.1.2,Win32,60,3CVDZS288I3O2WB6W9A4GPNAZIMFMC,A1TOER30AQUY2F,35BLDD71I70GJKU91FA4UWHTSVLZVS,1DB51,1DB51,35BLDD71I70GJKU91FA4UWHTSVLZVS,35BLDD71I70GJKU91FA4UWHTSVLZVS,268121,268121,,,,,,,,,,
,,,,2,8.285635,0,10,10,23,1,"a woman pettin a deer at what appears to be a petting zoo, there is a person in all black behind her to the right.","a woman petting a deer at a zoo, there is no person dressed in all black behind her",wolfe1,image-008,5,30,A1TOER30AQUY2F,2021-01-09_10h52.49.208,MetaAwareness,2020.1.2,Win32,60,3CVDZS288I3O2WB6W9A4GPNAZIMFMC,A1TOER30AQUY2F,35BLDD71I70GJKU91FA4UWHTSVLZVS,1DB51,1DB51,35BLDD71I70GJKU91FA4UWHTSVLZVS,35BLDD71I70GJKU91FA4UWHTSVLZVS,268121,268121,,,,,,,,,,
,,,,4,4.183415,0,11,11,223,1,a man on the end of the front line with a red tie as they pose for a picture,a man on the end of the front line with a pink tie as they pose for a picture,wolfe1,image-102,3,30,A1TOER30AQUY2F,2021-01-09_10h52.49.208,MetaAwareness,2020.1.2,Win32,60,3CVDZS288I3O2WB6W9A4GPNAZIMFMC,A1TOER30AQUY2F,35BLDD71I70GJKU91FA4UWHTSVLZVS,1DB51,1DB51,35BLDD71I70GJKU91FA4UWHTSVLZVS,35BLDD71I70GJKU91FA4UWHTSVLZVS,268121,268121,,,,,,,,,,
,,,,2,2.99729,0,12,12,289,1,two people walking a dog towards a pier with three green poles in the water,two people walking a dog towards a pier with two green poles and one brown pole in the water,wolfe1,image-124,5,30,A1TOER30AQUY2F,2021-01-09_10h52.49.208,MetaAwareness,2020.1.2,Win32,60,3CVDZS288I3O2WB6W9A4GPNAZIMFMC,A1TOER30AQUY2F,35BLDD71I70GJKU91FA4UWHTSVLZVS,1DB51,1DB51,35BLDD71I70GJKU91FA4UWHTSVLZVS,35BLDD71I70GJKU91FA4UWHTSVLZVS,268121,268121,,,,,,,,,,
,,,,3,3.22656,0,13,13,44,1,two guys pose with an eagle cutout with a building and a garbage can in the background,two guys pose with an eagle cutout with a building in the background,wolfe1,image-015,3,30,A1TOER30AQUY2F,2021-01-09_10h52.49.208,MetaAwareness,2020.1.2,Win32,60,3CVDZS288I3O2WB6W9A4GPNAZIMFMC,A1TOER30AQUY2F,35BLDD71I70GJKU91FA4UWHTSVLZVS,1DB51,1DB51,35BLDD71I70GJKU91FA4UWHTSVLZVS,35BLDD71I70GJKU91FA4UWHTSVLZVS,268121,268121,,,,,,,,,,
,,,,4,4.722925,0,14,14,267,1,two women help a young man prepare for a running marathon with a small building showing in the background which has reddish windows,two women help a young man prepare for a running marathon with a small building showing in the background which has black windows,wolfe1,image-116,4,30,A1TOER30AQUY2F,2021-01-09_10h52.49.208,MetaAwareness,2020.1.2,Win32,60,3CVDZS288I3O2WB6W9A4GPNAZIMFMC,A1TOER30AQUY2F,35BLDD71I70GJKU91FA4UWHTSVLZVS,1DB51,1DB51,35BLDD71I70GJKU91FA4UWHTSVLZVS,35BLDD71I70GJKU91FA4UWHTSVLZVS,268121,268121,,,,,,,,,,
,,,,1,4.16753,0,15,15,149,1,"in the corner of the room beside the door, there is a stack of papers",in the corner of the room there is desk without anything on it,wolfe1,image-050,4,30,A1TOER30AQUY2F,2021-01-09_10h52.49.208,MetaAwareness,2020.1.2,Win32,60,3CVDZS288I3O2WB6W9A4GPNAZIMFMC,A1TOER30AQUY2F,35BLDD71I70GJKU91FA4UWHTSVLZVS,1DB51,1DB51,35BLDD71I70GJKU91FA4UWHTSVLZVS,35BLDD71I70GJKU91FA4UWHTSVLZVS,268121,268121,,,,,,,,,,
,,,,3,6.443275,0,16,16,59,1,people watch children in a park. one man has a pink beach bag.,people watch children in a park.,wolfe1,image-020,1,30,A1TOER30AQUY2F,2021-01-09_10h52.49.208,MetaAwareness,2020.1.2,Win32,60,3CVDZS288I3O2WB6W9A4GPNAZIMFMC,A1TOER30AQUY2F,35BLDD71I70GJKU91FA4UWHTSVLZVS,1DB51,1DB51,35BLDD71I70GJKU91FA4UWHTSVLZVS,35BLDD71I70GJKU91FA4UWHTSVLZVS,268121,268121,,,,,,,,,,
,,,,5,4.789685,0,17,17,227,1,a group of people walking down a sidewalk in the rain. the man in the black coat is wearing green shoes.,a group of people walking down a sidewalk in the rain. the man in the black coat is wearing red shoes.,wolfe1,image-103,5,30,A1TOER30AQUY2F,2021-01-09_10h52.49.208,MetaAwareness,2020.1.2,Win32,60,3CVDZS288I3O2WB6W9A4GPNAZIMFMC,A1TOER30AQUY2F,35BLDD71I70GJKU91FA4UWHTSVLZVS,1DB51,1DB51,35BLDD71I70GJKU91FA4UWHTSVLZVS,35BLDD71I70GJKU91FA4UWHTSVLZVS,268121,268121,,,,,,,,,,
,,,,2,5.03178,0,18,18,112,1,"boys play basketball at a house with a two car garage, one side has a light fixture over it",boys play basketball at a house with a two car garage with no lights,wolfe1,image-040,5,30,A1TOER30AQUY2F,2021-01-09_10h52.49.208,MetaAwareness,2020.1.2,Win32,60,3CVDZS288I3O2WB6W9A4GPNAZIMFMC,A1TOER30AQUY2F,35BLDD71I70GJKU91FA4UWHTSVLZVS,1DB51,1DB51,35BLDD71I70GJKU91FA4UWHTSVLZVS,35BLDD71I70GJKU91FA4UWHTSVLZVS,268121,268121,,,,,,,,,,
,,,,4,6.59507,0,19,19,168,1,two women sitting in plastic chairs at the park with their backpacks and a red folder on a wooden table.,two women sitting in plastic chairs at the park with their backpacks and a blue folder on a wooden table.,wolfe1,image-081,3,30,A1TOER30AQUY2F,2021-01-09_10h52.49.208,MetaAwareness,2020.1.2,Win32,60,3CVDZS288I3O2WB6W9A4GPNAZIMFMC,A1TOER30AQUY2F,35BLDD71I70GJKU91FA4UWHTSVLZVS,1DB51,1DB51,35BLDD71I70GJKU91FA4UWHTSVLZVS,35BLDD71I70GJKU91FA4UWHTSVLZVS,268121,268121,,,,,,,,,,
,,,,3,3.355065,0,20,20,307,1,a group of people standing outside a building. the lady in the front is wearing blue jeans,a group of people standing outiside a building. the lady in the front is wearing gray pants.,wolfe1,image-129,4,30,A1TOER30AQUY2F,2021-01-09_10h52.49.208,MetaAwareness,2020.1.2,Win32,60,3CVDZS288I3O2WB6W9A4GPNAZIMFMC,A1TOER30AQUY2F,35BLDD71I70GJKU91FA4UWHTSVLZVS,1DB51,1DB51,35BLDD71I70GJKU91FA4UWHTSVLZVS,35BLDD71I70GJKU91FA4UWHTSVLZVS,268121,268121,,,,,,,,,,
,,,,5,3.9476,0,21,21,193,1,"an outdoor area with building, trees, people sitting down and eating, including a woman in red clothing","an outdoor area with building, trees, people sitting down and eating, including a woman in purple clothing",wolfe1,image-091,2,30,A1TOER30AQUY2F,2021-01-09_10h52.49.208,MetaAwareness,2020.1.2,Win32,60,3CVDZS288I3O2WB6W9A4GPNAZIMFMC,A1TOER30AQUY2F,35BLDD71I70GJKU91FA4UWHTSVLZVS,1DB51,1DB51,35BLDD71I70GJKU91FA4UWHTSVLZVS,35BLDD71I70GJKU91FA4UWHTSVLZVS,268121,268121,,,,,,,,,,
,,,,1,4.31259,0,22,22,117,1,a white rock floating in a blue lake,some blue water floating in a lake,wolfe1,image-041,8,30,A1TOER30AQUY2F,2021-01-09_10h52.49.208,MetaAwareness,2020.1.2,Win32,60,3CVDZS288I3O2WB6W9A4GPNAZIMFMC,A1TOER30AQUY2F,35BLDD71I70GJKU91FA4UWHTSVLZVS,1DB51,1DB51,35BLDD71I70GJKU91FA4UWHTSVLZVS,35BLDD71I70GJKU91FA4UWHTSVLZVS,268121,268121,,,,,,,,,,
,,,,6,14.199205,0,23,23,127,1,there is a very modern looking room with minimalist furniture and sleek painting on the wall. there is a small white vase in the right cornern,there is a very modern looking room with minimalist furniture and sleek paintings on the wall. there is not small white vase in the right corner.,wolfe1,image-043,5,30,A1TOER30AQUY2F,2021-01-09_10h52.49.208,MetaAwareness,2020.1.2,Win32,60,3CVDZS288I3O2WB6W9A4GPNAZIMFMC,A1TOER30AQUY2F,35BLDD71I70GJKU91FA4UWHTSVLZVS,1DB51,1DB51,35BLDD71I70GJKU91FA4UWHTSVLZVS,35BLDD71I70GJKU91FA4UWHTSVLZVS,268121,268121,,,,,,,,,,
,,,,5,6.128565,0,24,24,141,1,multiple people shoveling and one finds an item in the dirt.,multiple people shoveling dirt.,wolfe1,image-047,7,30,A1TOER30AQUY2F,2021-01-09_10h52.49.208,MetaAwareness,2020.1.2,Win32,60,3CVDZS288I3O2WB6W9A4GPNAZIMFMC,A1TOER30AQUY2F,35BLDD71I70GJKU91FA4UWHTSVLZVS,1DB51,1DB51,35BLDD71I70GJKU91FA4UWHTSVLZVS,35BLDD71I70GJKU91FA4UWHTSVLZVS,268121,268121,,,,,,,,,,
,,,,1,3.12314,0,25,25,19,1,transit area with solar panel,trn,wolfe1,image-007,6,30,A1TOER30AQUY2F,2021-01-09_10h52.49.208,MetaAwareness,2020.1.2,Win32,60,3CVDZS288I3O2WB6W9A4GPNAZIMFMC,A1TOER30AQUY2F,35BLDD71I70GJKU91FA4UWHTSVLZVS,1DB51,1DB51,35BLDD71I70GJKU91FA4UWHTSVLZVS,35BLDD71I70GJKU91FA4UWHTSVLZVS,268121,268121,,,,,,,,,,
,,,,3,6.207685,0,26,26,58,1,people rock climbing including two people in black and one in red,people rock climbing including two people in black,wolfe1,image-019,3,30,A1TOER30AQUY2F,2021-01-09_10h52.49.208,MetaAwareness,2020.1.2,Win32,60,3CVDZS288I3O2WB6W9A4GPNAZIMFMC,A1TOER30AQUY2F,35BLDD71I70GJKU91FA4UWHTSVLZVS,1DB51,1DB51,35BLDD71I70GJKU91FA4UWHTSVLZVS,35BLDD71I70GJKU91FA4UWHTSVLZVS,268121,268121,,,,,,,,,,
,,,,5,8.242945,0,27,27,322,1,a comfortable outdoor lounge area with a red surfboard laying against a wall,a comfortable outdoor lounge area with a green surfboard laying against a wal,wolfe1,image-133,5,30,A1TOER30AQUY2F,2021-01-09_10h52.49.208,MetaAwareness,2020.1.2,Win32,60,3CVDZS288I3O2WB6W9A4GPNAZIMFMC,A1TOER30AQUY2F,35BLDD71I70GJKU91FA4UWHTSVLZVS,1DB51,1DB51,35BLDD71I70GJKU91FA4UWHTSVLZVS,35BLDD71I70GJKU91FA4UWHTSVLZVS,268121,268121,,,,,,,,,,
,,,,3,4.86575,0,28,28,132,1,a bale of hay is rolled up next to several other bales of hay in a field,a field has several bales of hay rolled up and waiting to be used,wolfe1,image-045,5,30,A1TOER30AQUY2F,2021-01-09_10h52.49.208,MetaAwareness,2020.1.2,Win32,60,3CVDZS288I3O2WB6W9A4GPNAZIMFMC,A1TOER30AQUY2F,35BLDD71I70GJKU91FA4UWHTSVLZVS,1DB51,1DB51,35BLDD71I70GJKU91FA4UWHTSVLZVS,35BLDD71I70GJKU91FA4UWHTSVLZVS,268121,268121,,,,,,,,,,
,,,,2,4.60589,0,29,29,92,1,men playing a game of basket ball while people watch in the shade under a canopy,men playing basketball while people watch behind a barricade,wolfe1,image-033,7,30,A1TOER30AQUY2F,2021-01-09_10h52.49.208,MetaAwareness,2020.1.2,Win32,60,3CVDZS288I3O2WB6W9A4GPNAZIMFMC,A1TOER30AQUY2F,35BLDD71I70GJKU91FA4UWHTSVLZVS,1DB51,1DB51,35BLDD71I70GJKU91FA4UWHTSVLZVS,35BLDD71I70GJKU91FA4UWHTSVLZVS,268121,268121,,,,,,,,,,
,,,,,,,,,,,,,,,,30,A1TOER30AQUY2F,2021-01-09_10h52.49.208,MetaAwareness,2020.1.2,Win32,60,3CVDZS288I3O2WB6W9A4GPNAZIMFMC,A1TOER30AQUY2F,35BLDD71I70GJKU91FA4UWHTSVLZVS,1DB51,1DB51,35BLDD71I70GJKU91FA4UWHTSVLZVS,35BLDD71I70GJKU91FA4UWHTSVLZVS,268121,268121,6,6.51151,someone laying underneath a blue beach umbrella on a crowded beach,someone laying underneath a blue beach umbrella on a crowded beach,same,1,2.82297,members of a marching band crossing a track that all have feather plumes at the front of their hats,a cluttered and rustic looking cafe with 10 hanging lights,different
