consent_response.keys,consent_response.rt,key_resp_2.keys,key_resp_2.rt,user_resp.keys,user_resp.rt,trials.thisRepN,trials.thisTrialN,trials.thisN,trials.thisIndex,trials.ran,image_1_text,image_2_text,database,image,number,age,worker_ID,date,expName,psychopyVersion,OS,frameRate,hitId,workerId,assignmentId,a,tp_a,b,tp_b,c,tp_c,catch_same_resp.keys,catch_same_resp.rt,image_1_text_catch_same,image_2_text_catch_same,image_catch_same,catch_different_resp.keys,catch_different_resp.rt,image_1_text_catch_different,image_2_text_catch_different,image_catch_different
space,5.38418,space,21.957475,5,16.83437,0,0,0,13,1,a living area with couch and kitchen with a microwave,a living area with couch and kitchen with cabinets,wolfe1,image-006,1,29,A20X6V1AAXZGNZ,2021-01-09_12h32.00.414,MetaAwareness,2020.1.2,Win32,60,3H4IKZHALCL6869N6Y8H19LJ6ZKNNT,A20X6V1AAXZGNZ,3CFJTT4SXUTSD443JDJ2ONY0A0N7IM,STFC1,STFC1,3CFJTT4SXUTSD443JDJ2ONY0A0N7IM,3CFJTT4SXUTSD443JDJ2ONY0A0N7IM,268121,268121,,,,,,,,,,
,,,,4,21.1264,0,1,1,53,1,a chair sitting in front of a tent and beside some canoes on the beach.,a sandy beach with a white and yellow tent and some canoes.,wolfe1,image-018,6,29,A20X6V1AAXZGNZ,2021-01-09_12h32.00.414,MetaAwareness,2020.1.2,Win32,60,3H4IKZHALCL6869N6Y8H19LJ6ZKNNT,A20X6V1AAXZGNZ,3CFJTT4SXUTSD443JDJ2ONY0A0N7IM,STFC1,STFC1,3CFJTT4SXUTSD443JDJ2ONY0A0N7IM,3CFJTT4SXUTSD443JDJ2ONY0A0N7IM,268121,268121,,,,,,,,,,
,,,,6,4.85509,0,2,2,42,1,people are sitting in a field for an outdoor concert with one empty blanket that no one is using,people are sitting in a field for an outdoor concert with a large patch of empty grass to the left side of the stage,wolfe1,image-014,5,29,A20X6V1AAXZGNZ,2021-01-09_12h32.00.414,MetaAwareness,2020.1.2,Win32,60,3H4IKZHALCL6869N6Y8H19LJ6ZKNNT,A20X6V1AAXZGNZ,3CFJTT4SXUTSD443JDJ2ONY0A0N7IM,STFC1,STFC1,3CFJTT4SXUTSD443JDJ2ONY0A0N7IM,3CFJTT4SXUTSD443JDJ2ONY0A0N7IM,268121,268121,,,,,,,,,,
,,,,3,1.333959999,0,3,3,303,1,a swimmer trying to climb up a short cliff wearing a blue vest.,a swimmer trying to climb up a short cliff wearing a green vest.,wolfe1,image-128,5,29,A20X6V1AAXZGNZ,2021-01-09_12h32.00.414,MetaAwareness,2020.1.2,Win32,60,3H4IKZHALCL6869N6Y8H19LJ6ZKNNT,A20X6V1AAXZGNZ,3CFJTT4SXUTSD443JDJ2ONY0A0N7IM,STFC1,STFC1,3CFJTT4SXUTSD443JDJ2ONY0A0N7IM,3CFJTT4SXUTSD443JDJ2ONY0A0N7IM,268121,268121,,,,,,,,,,
,,,,5,2.4172,0,4,4,231,1,at conference meeting one man wearing the lightblue shirt,at conference meeting one man wearing the light green color shirt,wolfe1,image-104,4,29,A20X6V1AAXZGNZ,2021-01-09_12h32.00.414,MetaAwareness,2020.1.2,Win32,60,3H4IKZHALCL6869N6Y8H19LJ6ZKNNT,A20X6V1AAXZGNZ,3CFJTT4SXUTSD443JDJ2ONY0A0N7IM,STFC1,STFC1,3CFJTT4SXUTSD443JDJ2ONY0A0N7IM,3CFJTT4SXUTSD443JDJ2ONY0A0N7IM,268121,268121,,,,,,,,,,
,,,,3,1.375565,0,5,5,90,1,guys playing basketball on a court which is covered slightly on the corner,guys playing basketball on a court,wolfe1,image-033,4,29,A20X6V1AAXZGNZ,2021-01-09_12h32.00.414,MetaAwareness,2020.1.2,Win32,60,3H4IKZHALCL6869N6Y8H19LJ6ZKNNT,A20X6V1AAXZGNZ,3CFJTT4SXUTSD443JDJ2ONY0A0N7IM,STFC1,STFC1,3CFJTT4SXUTSD443JDJ2ONY0A0N7IM,3CFJTT4SXUTSD443JDJ2ONY0A0N7IM,268121,268121,,,,,,,,,,
,,,,5,2.035235,0,6,6,282,1,a green sign that has red lettering is in the window of the shop in the blue building,a red sign that has red lettering is in the window of the shop in the blue building,wolfe1,image-123,3,29,A20X6V1AAXZGNZ,2021-01-09_12h32.00.414,MetaAwareness,2020.1.2,Win32,60,3H4IKZHALCL6869N6Y8H19LJ6ZKNNT,A20X6V1AAXZGNZ,3CFJTT4SXUTSD443JDJ2ONY0A0N7IM,STFC1,STFC1,3CFJTT4SXUTSD443JDJ2ONY0A0N7IM,3CFJTT4SXUTSD443JDJ2ONY0A0N7IM,268121,268121,,,,,,,,,,
,,,,4,1.88958,0,7,7,64,1,"a group of archers practices their shots, with every archer having a quiver and arrows at their feet.","a group of archers practices their shots, with the last archer's quiver and arrows being missing.",wolfe1,image-021,4,29,A20X6V1AAXZGNZ,2021-01-09_12h32.00.414,MetaAwareness,2020.1.2,Win32,60,3H4IKZHALCL6869N6Y8H19LJ6ZKNNT,A20X6V1AAXZGNZ,3CFJTT4SXUTSD443JDJ2ONY0A0N7IM,STFC1,STFC1,3CFJTT4SXUTSD443JDJ2ONY0A0N7IM,3CFJTT4SXUTSD443JDJ2ONY0A0N7IM,268121,268121,,,,,,,,,,
,,,,6,2.27152,0,8,8,211,1,a man wearing aqua pants waits at a food stand besides many other people outside.,a man wearing green pants waits at a food stand besides many other people outside.,wolfe1,image-097,1,29,A20X6V1AAXZGNZ,2021-01-09_12h32.00.414,MetaAwareness,2020.1.2,Win32,60,3H4IKZHALCL6869N6Y8H19LJ6ZKNNT,A20X6V1AAXZGNZ,3CFJTT4SXUTSD443JDJ2ONY0A0N7IM,STFC1,STFC1,3CFJTT4SXUTSD443JDJ2ONY0A0N7IM,3CFJTT4SXUTSD443JDJ2ONY0A0N7IM,268121,268121,,,,,,,,,,
,,,,5,2.632359999,0,9,9,164,1,people congurgating at a outdoor restarurant. there is a table with a green umbrella.,people congrugating at a outdoor restaurant. there is a table with a pink umbrella.,wolfe1,image-080,4,29,A20X6V1AAXZGNZ,2021-01-09_12h32.00.414,MetaAwareness,2020.1.2,Win32,60,3H4IKZHALCL6869N6Y8H19LJ6ZKNNT,A20X6V1AAXZGNZ,3CFJTT4SXUTSD443JDJ2ONY0A0N7IM,STFC1,STFC1,3CFJTT4SXUTSD443JDJ2ONY0A0N7IM,3CFJTT4SXUTSD443JDJ2ONY0A0N7IM,268121,268121,,,,,,,,,,
,,,,4,2.139269999,0,10,10,200,1,a backpack with a blue patch on it.,a backpack with a green patch on it.,wolfe1,image-094,5,29,A20X6V1AAXZGNZ,2021-01-09_12h32.00.414,MetaAwareness,2020.1.2,Win32,60,3H4IKZHALCL6869N6Y8H19LJ6ZKNNT,A20X6V1AAXZGNZ,3CFJTT4SXUTSD443JDJ2ONY0A0N7IM,STFC1,STFC1,3CFJTT4SXUTSD443JDJ2ONY0A0N7IM,3CFJTT4SXUTSD443JDJ2ONY0A0N7IM,268121,268121,,,,,,,,,,
,,,,4,1.952,0,11,11,182,1,a boy in a red shirt plays with other children in a grassy field,a boy in a purple shirt plays with other children in a grassy field,wolfe1,image-086,5,29,A20X6V1AAXZGNZ,2021-01-09_12h32.00.414,MetaAwareness,2020.1.2,Win32,60,3H4IKZHALCL6869N6Y8H19LJ6ZKNNT,A20X6V1AAXZGNZ,3CFJTT4SXUTSD443JDJ2ONY0A0N7IM,STFC1,STFC1,3CFJTT4SXUTSD443JDJ2ONY0A0N7IM,3CFJTT4SXUTSD443JDJ2ONY0A0N7IM,268121,268121,,,,,,,,,,
,,,,5,1.764565,0,12,12,9,1,five graduates jumping and celebrating in front of a bench,five graduates jumping and celebrating in front of some grass,wolfe1,image-005,4,29,A20X6V1AAXZGNZ,2021-01-09_12h32.00.414,MetaAwareness,2020.1.2,Win32,60,3H4IKZHALCL6869N6Y8H19LJ6ZKNNT,A20X6V1AAXZGNZ,3CFJTT4SXUTSD443JDJ2ONY0A0N7IM,STFC1,STFC1,3CFJTT4SXUTSD443JDJ2ONY0A0N7IM,3CFJTT4SXUTSD443JDJ2ONY0A0N7IM,268121,268121,,,,,,,,,,
,,,,6,2.36862,0,13,13,170,1,papers and a pink folder on a table with other items in front of two women looking at reports - they are outdoors,papers and a blue folder on a table with other items in front of two women looking at reports - they are outdoors,wolfe1,image-081,5,29,A20X6V1AAXZGNZ,2021-01-09_12h32.00.414,MetaAwareness,2020.1.2,Win32,60,3H4IKZHALCL6869N6Y8H19LJ6ZKNNT,A20X6V1AAXZGNZ,3CFJTT4SXUTSD443JDJ2ONY0A0N7IM,STFC1,STFC1,3CFJTT4SXUTSD443JDJ2ONY0A0N7IM,3CFJTT4SXUTSD443JDJ2ONY0A0N7IM,268121,268121,,,,,,,,,,
,,,,3,1.91727,0,14,14,180,1,several children are playing in a grass field together.the child furthest away is wearing a red shirt.,several children are playing in a grass frield toether. the child furthest away is wearing a purple shirt,wolfe1,image-086,1,29,A20X6V1AAXZGNZ,2021-01-09_12h32.00.414,MetaAwareness,2020.1.2,Win32,60,3H4IKZHALCL6869N6Y8H19LJ6ZKNNT,A20X6V1AAXZGNZ,3CFJTT4SXUTSD443JDJ2ONY0A0N7IM,STFC1,STFC1,3CFJTT4SXUTSD443JDJ2ONY0A0N7IM,3CFJTT4SXUTSD443JDJ2ONY0A0N7IM,268121,268121,,,,,,,,,,
,,,,6,2.111935,0,15,15,11,1,"behind the jumping female graduates, there is a bench",behind the jumping female graduates there is grass,wolfe1,image-005,8,29,A20X6V1AAXZGNZ,2021-01-09_12h32.00.414,MetaAwareness,2020.1.2,Win32,60,3H4IKZHALCL6869N6Y8H19LJ6ZKNNT,A20X6V1AAXZGNZ,3CFJTT4SXUTSD443JDJ2ONY0A0N7IM,STFC1,STFC1,3CFJTT4SXUTSD443JDJ2ONY0A0N7IM,3CFJTT4SXUTSD443JDJ2ONY0A0N7IM,268121,268121,,,,,,,,,,
,,,,5,1.91012,0,16,16,257,1,"an outdoor city street with various shops and restaurants, one of which is under a red awning.","an outdoor city street with various shops and restaurants, one of which is under a yellow awning.",wolfe1,image-113,2,29,A20X6V1AAXZGNZ,2021-01-09_12h32.00.414,MetaAwareness,2020.1.2,Win32,60,3H4IKZHALCL6869N6Y8H19LJ6ZKNNT,A20X6V1AAXZGNZ,3CFJTT4SXUTSD443JDJ2ONY0A0N7IM,STFC1,STFC1,3CFJTT4SXUTSD443JDJ2ONY0A0N7IM,3CFJTT4SXUTSD443JDJ2ONY0A0N7IM,268121,268121,,,,,,,,,,
,,,,4,1.743375,0,17,17,207,1,a man is hiking on a dirt trail with red flowers growing beside it.,a man is hiking on a dirt trail with yellow flowers growing beside it.,wolfe1,image-095,7,29,A20X6V1AAXZGNZ,2021-01-09_12h32.00.414,MetaAwareness,2020.1.2,Win32,60,3H4IKZHALCL6869N6Y8H19LJ6ZKNNT,A20X6V1AAXZGNZ,3CFJTT4SXUTSD443JDJ2ONY0A0N7IM,STFC1,STFC1,3CFJTT4SXUTSD443JDJ2ONY0A0N7IM,3CFJTT4SXUTSD443JDJ2ONY0A0N7IM,268121,268121,,,,,,,,,,
,,,,6,2.12557,0,18,18,268,1,"a man is receiving a medal for completing a run in front of a ballfield with a building with red shutters,",a man is receiving a medal for completing a run in front of a ballfield with a building with black shutters.,wolfe1,image-116,6,29,A20X6V1AAXZGNZ,2021-01-09_12h32.00.414,MetaAwareness,2020.1.2,Win32,60,3H4IKZHALCL6869N6Y8H19LJ6ZKNNT,A20X6V1AAXZGNZ,3CFJTT4SXUTSD443JDJ2ONY0A0N7IM,STFC1,STFC1,3CFJTT4SXUTSD443JDJ2ONY0A0N7IM,3CFJTT4SXUTSD443JDJ2ONY0A0N7IM,268121,268121,,,,,,,,,,
,,,,4,1.83397,0,19,19,126,1,a decorated room with a vase on the right side on the floor,a decorated room with no small vase on the right side on the floor.,wolfe1,image-043,4,29,A20X6V1AAXZGNZ,2021-01-09_12h32.00.414,MetaAwareness,2020.1.2,Win32,60,3H4IKZHALCL6869N6Y8H19LJ6ZKNNT,A20X6V1AAXZGNZ,3CFJTT4SXUTSD443JDJ2ONY0A0N7IM,STFC1,STFC1,3CFJTT4SXUTSD443JDJ2ONY0A0N7IM,3CFJTT4SXUTSD443JDJ2ONY0A0N7IM,268121,268121,,,,,,,,,,
,,,,4,1.50058,0,20,20,8,1,five girls in graduation gowns jumping in the air with a bench behind them,five girls jumping in the air in red graduation gowns with no bench behind them.,wolfe1,image-005,2,29,A20X6V1AAXZGNZ,2021-01-09_12h32.00.414,MetaAwareness,2020.1.2,Win32,60,3H4IKZHALCL6869N6Y8H19LJ6ZKNNT,A20X6V1AAXZGNZ,3CFJTT4SXUTSD443JDJ2ONY0A0N7IM,STFC1,STFC1,3CFJTT4SXUTSD443JDJ2ONY0A0N7IM,3CFJTT4SXUTSD443JDJ2ONY0A0N7IM,268121,268121,,,,,,,,,,
,,,,5,2.64638,0,21,21,68,1,the first two cars are red with a barrel in from of them.,the first two cars are red,wolfe1,image-024,1,29,A20X6V1AAXZGNZ,2021-01-09_12h32.00.414,MetaAwareness,2020.1.2,Win32,60,3H4IKZHALCL6869N6Y8H19LJ6ZKNNT,A20X6V1AAXZGNZ,3CFJTT4SXUTSD443JDJ2ONY0A0N7IM,STFC1,STFC1,3CFJTT4SXUTSD443JDJ2ONY0A0N7IM,3CFJTT4SXUTSD443JDJ2ONY0A0N7IM,268121,268121,,,,,,,,,,
,,,,5,1.83383,0,22,22,265,1,there is a small concert happening on a lawn. many people are watching. there is a green chair facing the stage on the left side.,there is a small concert happening on a lawn. many people are watching. there is a purple chair facing the stage on the left side.,wolfe1,image-115,5,29,A20X6V1AAXZGNZ,2021-01-09_12h32.00.414,MetaAwareness,2020.1.2,Win32,60,3H4IKZHALCL6869N6Y8H19LJ6ZKNNT,A20X6V1AAXZGNZ,3CFJTT4SXUTSD443JDJ2ONY0A0N7IM,STFC1,STFC1,3CFJTT4SXUTSD443JDJ2ONY0A0N7IM,3CFJTT4SXUTSD443JDJ2ONY0A0N7IM,268121,268121,,,,,,,,,,
,,,,6,2.417475,0,23,23,283,1,a block of multi colored buildings connected to each other. the blue building has a white sign in the window of the door,a block of multi colored buildings connected to each other. the blue building has a white sign in the window of the door,wolfe1,image-123,6,29,A20X6V1AAXZGNZ,2021-01-09_12h32.00.414,MetaAwareness,2020.1.2,Win32,60,3H4IKZHALCL6869N6Y8H19LJ6ZKNNT,A20X6V1AAXZGNZ,3CFJTT4SXUTSD443JDJ2ONY0A0N7IM,STFC1,STFC1,3CFJTT4SXUTSD443JDJ2ONY0A0N7IM,3CFJTT4SXUTSD443JDJ2ONY0A0N7IM,268121,268121,,,,,,,,,,
,,,,6,1.38262,0,24,24,279,1,"an outside concert with a stage and one central performer in orange, some people with umbreallas and a person on the ground with an umbrella",an outdoor concert with a central performer with a guitar and one person with an umbrella on the ground while others stand around,wolfe1,image-122,1,29,A20X6V1AAXZGNZ,2021-01-09_12h32.00.414,MetaAwareness,2020.1.2,Win32,60,3H4IKZHALCL6869N6Y8H19LJ6ZKNNT,A20X6V1AAXZGNZ,3CFJTT4SXUTSD443JDJ2ONY0A0N7IM,STFC1,STFC1,3CFJTT4SXUTSD443JDJ2ONY0A0N7IM,3CFJTT4SXUTSD443JDJ2ONY0A0N7IM,268121,268121,,,,,,,,,,
,,,,6,0.2084,0,25,25,52,1,"three men on a golf course watching a forth man putting, there is a small flag on the ground behind the forth man",three men on a golf course watching a fourth man putting,wolfe1,image-017,6,29,A20X6V1AAXZGNZ,2021-01-09_12h32.00.414,MetaAwareness,2020.1.2,Win32,60,3H4IKZHALCL6869N6Y8H19LJ6ZKNNT,A20X6V1AAXZGNZ,3CFJTT4SXUTSD443JDJ2ONY0A0N7IM,STFC1,STFC1,3CFJTT4SXUTSD443JDJ2ONY0A0N7IM,3CFJTT4SXUTSD443JDJ2ONY0A0N7IM,268121,268121,,,,,,,,,,
,,,,3,1.45204,0,26,26,208,1,looks like people worjing on music in a room with pianos and chairs. there is a stool with something that is blue underneath it,looks like people working on music in a room with pianos and chairs. there is a stool with something green underneath it.,wolfe1,image-096,2,29,A20X6V1AAXZGNZ,2021-01-09_12h32.00.414,MetaAwareness,2020.1.2,Win32,60,3H4IKZHALCL6869N6Y8H19LJ6ZKNNT,A20X6V1AAXZGNZ,3CFJTT4SXUTSD443JDJ2ONY0A0N7IM,STFC1,STFC1,3CFJTT4SXUTSD443JDJ2ONY0A0N7IM,3CFJTT4SXUTSD443JDJ2ONY0A0N7IM,268121,268121,,,,,,,,,,
,,,,6,1.23666,0,27,27,29,1,a man in the snow with items including a yellow hat next to a red suitcase,a man in the snow with items including a red suitcase and a bucket with a blue garbage bag,wolfe1,image-010,6,29,A20X6V1AAXZGNZ,2021-01-09_12h32.00.414,MetaAwareness,2020.1.2,Win32,60,3H4IKZHALCL6869N6Y8H19LJ6ZKNNT,A20X6V1AAXZGNZ,3CFJTT4SXUTSD443JDJ2ONY0A0N7IM,STFC1,STFC1,3CFJTT4SXUTSD443JDJ2ONY0A0N7IM,3CFJTT4SXUTSD443JDJ2ONY0A0N7IM,268121,268121,,,,,,,,,,
,,,,6,1.53516,0,28,28,138,1,people shoveling gravel outside of a home with a toy in the gravel,people shoveling gravel outside of a home,wolfe1,image-047,1,29,A20X6V1AAXZGNZ,2021-01-09_12h32.00.414,MetaAwareness,2020.1.2,Win32,60,3H4IKZHALCL6869N6Y8H19LJ6ZKNNT,A20X6V1AAXZGNZ,3CFJTT4SXUTSD443JDJ2ONY0A0N7IM,STFC1,STFC1,3CFJTT4SXUTSD443JDJ2ONY0A0N7IM,3CFJTT4SXUTSD443JDJ2ONY0A0N7IM,268121,268121,,,,,,,,,,
,,,,6,0.083605,0,29,29,209,1,a group of practicing singers practicing with a blue bin next to the pianist.,a group of singers practicing with a green bin next to the pianist.,wolfe1,image-096,4,29,A20X6V1AAXZGNZ,2021-01-09_12h32.00.414,MetaAwareness,2020.1.2,Win32,60,3H4IKZHALCL6869N6Y8H19LJ6ZKNNT,A20X6V1AAXZGNZ,3CFJTT4SXUTSD443JDJ2ONY0A0N7IM,STFC1,STFC1,3CFJTT4SXUTSD443JDJ2ONY0A0N7IM,3CFJTT4SXUTSD443JDJ2ONY0A0N7IM,268121,268121,,,,,,,,,,
,,,,,,,,,,,,,,,,29,A20X6V1AAXZGNZ,2021-01-09_12h32.00.414,MetaAwareness,2020.1.2,Win32,60,3H4IKZHALCL6869N6Y8H19LJ6ZKNNT,A20X6V1AAXZGNZ,3CFJTT4SXUTSD443JDJ2ONY0A0N7IM,STFC1,STFC1,3CFJTT4SXUTSD443JDJ2ONY0A0N7IM,3CFJTT4SXUTSD443JDJ2ONY0A0N7IM,268121,268121,3,1.452165,someone laying underneath a blue beach umbrella on a crowded beach,someone laying underneath a blue beach umbrella on a crowded beach,same,5,1.194965,members of a marching band crossing a track that all have feather plumes at the front of their hats,a cluttered and rustic looking cafe with 10 hanging lights,different
