consent_response.keys,consent_response.rt,key_resp_2.keys,key_resp_2.rt,user_resp.keys,user_resp.rt,trials.thisRepN,trials.thisTrialN,trials.thisN,trials.thisIndex,trials.ran,image_1_text,image_2_text,database,image,number,age,worker_ID,date,expName,psychopyVersion,OS,frameRate,hitId,workerId,assignmentId,a,tp_a,b,tp_b,c,tp_c,catch_same_resp.keys,catch_same_resp.rt,image_1_text_catch_same,image_2_text_catch_same,image_catch_same,catch_different_resp.keys,catch_different_resp.rt,image_1_text_catch_different,image_2_text_catch_different,image_catch_different
space,241.087535,space,1.08271,5,12.16925,0,0,0,15,1,maybe a bus stop with cameras light poles and an awning,maybe a bus stop with cameras light poles,wolfe1,image-007,1,44,A2FUPODRRCESB,2021-01-09_10h39.18.517,MetaAwareness,2020.1.2,Win32,60,3H4IKZHALCL6869N6Y8H19LJ6ZKNNT,A2FUPODRRCESB,3C6FJU71TRWG1FV403YGK3688UJUYI,1J6C1,1J6C1,3C6FJU71TRWG1FV403YGK3688UJUYI,3C6FJU71TRWG1FV403YGK3688UJUYI,268121,268121,,,,,,,,,,
,,,,5,3.942355,0,1,1,200,1,a backpack with a blue patch on it.,a backpack with a green patch on it.,wolfe1,image-094,5,44,A2FUPODRRCESB,2021-01-09_10h39.18.517,MetaAwareness,2020.1.2,Win32,60,3H4IKZHALCL6869N6Y8H19LJ6ZKNNT,A2FUPODRRCESB,3C6FJU71TRWG1FV403YGK3688UJUYI,1J6C1,1J6C1,3C6FJU71TRWG1FV403YGK3688UJUYI,3C6FJU71TRWG1FV403YGK3688UJUYI,268121,268121,,,,,,,,,,
,,,,6,4.38886,0,2,2,170,1,papers and a pink folder on a table with other items in front of two women looking at reports - they are outdoors,papers and a blue folder on a table with other items in front of two women looking at reports - they are outdoors,wolfe1,image-081,5,44,A2FUPODRRCESB,2021-01-09_10h39.18.517,MetaAwareness,2020.1.2,Win32,60,3H4IKZHALCL6869N6Y8H19LJ6ZKNNT,A2FUPODRRCESB,3C6FJU71TRWG1FV403YGK3688UJUYI,1J6C1,1J6C1,3C6FJU71TRWG1FV403YGK3688UJUYI,3C6FJU71TRWG1FV403YGK3688UJUYI,268121,268121,,,,,,,,,,
,,,,6,5.811705,0,3,3,73,1,a living space that is open to the ocean with several pillows on the couch.,a living space that is open to the ocean with several pillows on a blue couch.,wolfe1,image-026,4,44,A2FUPODRRCESB,2021-01-09_10h39.18.517,MetaAwareness,2020.1.2,Win32,60,3H4IKZHALCL6869N6Y8H19LJ6ZKNNT,A2FUPODRRCESB,3C6FJU71TRWG1FV403YGK3688UJUYI,1J6C1,1J6C1,3C6FJU71TRWG1FV403YGK3688UJUYI,3C6FJU71TRWG1FV403YGK3688UJUYI,268121,268121,,,,,,,,,,
,,,,4,6.30096,0,4,4,53,1,a chair sitting in front of a tent and beside some canoes on the beach.,a sandy beach with a white and yellow tent and some canoes.,wolfe1,image-018,6,44,A2FUPODRRCESB,2021-01-09_10h39.18.517,MetaAwareness,2020.1.2,Win32,60,3H4IKZHALCL6869N6Y8H19LJ6ZKNNT,A2FUPODRRCESB,3C6FJU71TRWG1FV403YGK3688UJUYI,1J6C1,1J6C1,3C6FJU71TRWG1FV403YGK3688UJUYI,3C6FJU71TRWG1FV403YGK3688UJUYI,268121,268121,,,,,,,,,,
,,,,6,6.798245,0,5,5,154,1,there is a dirt track that has bmx riders racing on it. in the back there are two men among many watching the race. the two men have on white and yellow shirts.,there is a dirt tract that has bmx riders racing on it. in the back there are two men among many watching the race. the two men have on white and green shirts.,wolfe1,image-076,9,44,A2FUPODRRCESB,2021-01-09_10h39.18.517,MetaAwareness,2020.1.2,Win32,60,3H4IKZHALCL6869N6Y8H19LJ6ZKNNT,A2FUPODRRCESB,3C6FJU71TRWG1FV403YGK3688UJUYI,1J6C1,1J6C1,3C6FJU71TRWG1FV403YGK3688UJUYI,3C6FJU71TRWG1FV403YGK3688UJUYI,268121,268121,,,,,,,,,,
,,,,5,5.292,0,6,6,284,1,"blue, white and red buildings on a street front, the blue bluilding has a green sign in the window","blue, white, and red buildings on a street front, the blue building has a red sign in the window",wolfe1,image-123,7,44,A2FUPODRRCESB,2021-01-09_10h39.18.517,MetaAwareness,2020.1.2,Win32,60,3H4IKZHALCL6869N6Y8H19LJ6ZKNNT,A2FUPODRRCESB,3C6FJU71TRWG1FV403YGK3688UJUYI,1J6C1,1J6C1,3C6FJU71TRWG1FV403YGK3688UJUYI,3C6FJU71TRWG1FV403YGK3688UJUYI,268121,268121,,,,,,,,,,
,,,,5,5.880355,0,7,7,334,1,"there are two women walking on a beach and there are several umbrellas, there is a blue umbrella and a yellow umbrella behind them.","there are two women walking on a beach, and there are several umbrellas. there are two yellow umbrellas behind them.",wolfe1,image-137,1,44,A2FUPODRRCESB,2021-01-09_10h39.18.517,MetaAwareness,2020.1.2,Win32,60,3H4IKZHALCL6869N6Y8H19LJ6ZKNNT,A2FUPODRRCESB,3C6FJU71TRWG1FV403YGK3688UJUYI,1J6C1,1J6C1,3C6FJU71TRWG1FV403YGK3688UJUYI,3C6FJU71TRWG1FV403YGK3688UJUYI,268121,268121,,,,,,,,,,
,,,,5,2.860495,0,8,8,303,1,a swimmer trying to climb up a short cliff wearing a blue vest.,a swimmer trying to climb up a short cliff wearing a green vest.,wolfe1,image-128,5,44,A2FUPODRRCESB,2021-01-09_10h39.18.517,MetaAwareness,2020.1.2,Win32,60,3H4IKZHALCL6869N6Y8H19LJ6ZKNNT,A2FUPODRRCESB,3C6FJU71TRWG1FV403YGK3688UJUYI,1J6C1,1J6C1,3C6FJU71TRWG1FV403YGK3688UJUYI,3C6FJU71TRWG1FV403YGK3688UJUYI,268121,268121,,,,,,,,,,
,,,,6,3.114955,0,9,9,38,1,men in white shirts playing instruments outside of a building with a no loitering sign on the wall,men in white shirts playing instruments outside of a building with no signs on the wall,wolfe1,image-013,2,44,A2FUPODRRCESB,2021-01-09_10h39.18.517,MetaAwareness,2020.1.2,Win32,60,3H4IKZHALCL6869N6Y8H19LJ6ZKNNT,A2FUPODRRCESB,3C6FJU71TRWG1FV403YGK3688UJUYI,1J6C1,1J6C1,3C6FJU71TRWG1FV403YGK3688UJUYI,3C6FJU71TRWG1FV403YGK3688UJUYI,268121,268121,,,,,,,,,,
,,,,5,4.388715,0,10,10,254,1,two airplanes at an airport with a yellow jet bus between them,two airplanes at an airport with a red jet bus between them,wolfe1,image-111,2,44,A2FUPODRRCESB,2021-01-09_10h39.18.517,MetaAwareness,2020.1.2,Win32,60,3H4IKZHALCL6869N6Y8H19LJ6ZKNNT,A2FUPODRRCESB,3C6FJU71TRWG1FV403YGK3688UJUYI,1J6C1,1J6C1,3C6FJU71TRWG1FV403YGK3688UJUYI,3C6FJU71TRWG1FV403YGK3688UJUYI,268121,268121,,,,,,,,,,
,,,,5,2.614215,0,11,11,237,1,a tiered staircase lined with pillows and one yellow pillow,a tiered staircase lined with pillows and a green pillow,wolfe1,image-106,3,44,A2FUPODRRCESB,2021-01-09_10h39.18.517,MetaAwareness,2020.1.2,Win32,60,3H4IKZHALCL6869N6Y8H19LJ6ZKNNT,A2FUPODRRCESB,3C6FJU71TRWG1FV403YGK3688UJUYI,1J6C1,1J6C1,3C6FJU71TRWG1FV403YGK3688UJUYI,3C6FJU71TRWG1FV403YGK3688UJUYI,268121,268121,,,,,,,,,,
,,,,5,3.965095,0,12,12,324,1,a fancy outside living room with a red surfboard hung on the wall.,a fancy outside sitting area with a green surf board hung on the wall.,wolfe1,image-133,8,44,A2FUPODRRCESB,2021-01-09_10h39.18.517,MetaAwareness,2020.1.2,Win32,60,3H4IKZHALCL6869N6Y8H19LJ6ZKNNT,A2FUPODRRCESB,3C6FJU71TRWG1FV403YGK3688UJUYI,1J6C1,1J6C1,3C6FJU71TRWG1FV403YGK3688UJUYI,3C6FJU71TRWG1FV403YGK3688UJUYI,268121,268121,,,,,,,,,,
,,,,4,3.96015,0,13,13,54,1,a beach chair sits beside a yellow kayak on a beach,a yellow  kayak is pulled onto the shore beside a tent on a beach,wolfe1,image-018,7,44,A2FUPODRRCESB,2021-01-09_10h39.18.517,MetaAwareness,2020.1.2,Win32,60,3H4IKZHALCL6869N6Y8H19LJ6ZKNNT,A2FUPODRRCESB,3C6FJU71TRWG1FV403YGK3688UJUYI,1J6C1,1J6C1,3C6FJU71TRWG1FV403YGK3688UJUYI,3C6FJU71TRWG1FV403YGK3688UJUYI,268121,268121,,,,,,,,,,
,,,,5,2.423465,0,14,14,288,1,a walkway on the water with a green pier post.,a walkway on the water with a brown pier post,wolfe1,image-124,4,44,A2FUPODRRCESB,2021-01-09_10h39.18.517,MetaAwareness,2020.1.2,Win32,60,3H4IKZHALCL6869N6Y8H19LJ6ZKNNT,A2FUPODRRCESB,3C6FJU71TRWG1FV403YGK3688UJUYI,1J6C1,1J6C1,3C6FJU71TRWG1FV403YGK3688UJUYI,3C6FJU71TRWG1FV403YGK3688UJUYI,268121,268121,,,,,,,,,,
,,,,5,2.92641,0,15,15,313,1,a girl in a pink skirt does exercise with a group of other children.,a girl in a purple skirt does exercise with a group of other children.,wolfe1,image-131,2,44,A2FUPODRRCESB,2021-01-09_10h39.18.517,MetaAwareness,2020.1.2,Win32,60,3H4IKZHALCL6869N6Y8H19LJ6ZKNNT,A2FUPODRRCESB,3C6FJU71TRWG1FV403YGK3688UJUYI,1J6C1,1J6C1,3C6FJU71TRWG1FV403YGK3688UJUYI,3C6FJU71TRWG1FV403YGK3688UJUYI,268121,268121,,,,,,,,,,
,,,,4,5.63044,0,16,16,135,1,a group of adults are having a discussion by a ditch in a green field and there is a white triangular dish or container on the ground near one of the men,a group of adults are having a discussion by a ditch in a green field and one of the men is speaking while holding a shovel,wolfe1,image-046,4,44,A2FUPODRRCESB,2021-01-09_10h39.18.517,MetaAwareness,2020.1.2,Win32,60,3H4IKZHALCL6869N6Y8H19LJ6ZKNNT,A2FUPODRRCESB,3C6FJU71TRWG1FV403YGK3688UJUYI,1J6C1,1J6C1,3C6FJU71TRWG1FV403YGK3688UJUYI,3C6FJU71TRWG1FV403YGK3688UJUYI,268121,268121,,,,,,,,,,
,,,,5,3.19191,0,17,17,193,1,"an outdoor area with building, trees, people sitting down and eating, including a woman in red clothing","an outdoor area with building, trees, people sitting down and eating, including a woman in purple clothing",wolfe1,image-091,2,44,A2FUPODRRCESB,2021-01-09_10h39.18.517,MetaAwareness,2020.1.2,Win32,60,3H4IKZHALCL6869N6Y8H19LJ6ZKNNT,A2FUPODRRCESB,3C6FJU71TRWG1FV403YGK3688UJUYI,1J6C1,1J6C1,3C6FJU71TRWG1FV403YGK3688UJUYI,3C6FJU71TRWG1FV403YGK3688UJUYI,268121,268121,,,,,,,,,,
,,,,5,5.79715,0,18,18,66,1,a woman and young girl walking into a clinic with 2 bushes on either side,a woman and a young girl walking into a clinic with a bush on the right side,wolfe1,image-023,2,44,A2FUPODRRCESB,2021-01-09_10h39.18.517,MetaAwareness,2020.1.2,Win32,60,3H4IKZHALCL6869N6Y8H19LJ6ZKNNT,A2FUPODRRCESB,3C6FJU71TRWG1FV403YGK3688UJUYI,1J6C1,1J6C1,3C6FJU71TRWG1FV403YGK3688UJUYI,3C6FJU71TRWG1FV403YGK3688UJUYI,268121,268121,,,,,,,,,,
,,,,5,5.62662,0,19,19,114,1,and old red building behind a creek that has lots of rocks on the land and in the water,an old red building behind a creek that has lots of rocks on the land and few in the water,wolfe1,image-041,1,44,A2FUPODRRCESB,2021-01-09_10h39.18.517,MetaAwareness,2020.1.2,Win32,60,3H4IKZHALCL6869N6Y8H19LJ6ZKNNT,A2FUPODRRCESB,3C6FJU71TRWG1FV403YGK3688UJUYI,1J6C1,1J6C1,3C6FJU71TRWG1FV403YGK3688UJUYI,3C6FJU71TRWG1FV403YGK3688UJUYI,268121,268121,,,,,,,,,,
,,,,5,2.62319,0,20,20,309,1,the person in foreground is wearing blue jeans,the person in the forground is wearing grey jeans,wolfe1,image-129,9,44,A2FUPODRRCESB,2021-01-09_10h39.18.517,MetaAwareness,2020.1.2,Win32,60,3H4IKZHALCL6869N6Y8H19LJ6ZKNNT,A2FUPODRRCESB,3C6FJU71TRWG1FV403YGK3688UJUYI,1J6C1,1J6C1,3C6FJU71TRWG1FV403YGK3688UJUYI,3C6FJU71TRWG1FV403YGK3688UJUYI,268121,268121,,,,,,,,,,
,,,,3,2.533625,0,21,21,282,1,a green sign that has red lettering is in the window of the shop in the blue building,a red sign that has red lettering is in the window of the shop in the blue building,wolfe1,image-123,3,44,A2FUPODRRCESB,2021-01-09_10h39.18.517,MetaAwareness,2020.1.2,Win32,60,3H4IKZHALCL6869N6Y8H19LJ6ZKNNT,A2FUPODRRCESB,3C6FJU71TRWG1FV403YGK3688UJUYI,1J6C1,1J6C1,3C6FJU71TRWG1FV403YGK3688UJUYI,3C6FJU71TRWG1FV403YGK3688UJUYI,268121,268121,,,,,,,,,,
,,,,5,3.092935,0,22,22,175,1,students are siting in the classroom at their back one red drawing placed,students are siting in the classroom at their back one yelow drawing placed,wolfe1,image-083,4,44,A2FUPODRRCESB,2021-01-09_10h39.18.517,MetaAwareness,2020.1.2,Win32,60,3H4IKZHALCL6869N6Y8H19LJ6ZKNNT,A2FUPODRRCESB,3C6FJU71TRWG1FV403YGK3688UJUYI,1J6C1,1J6C1,3C6FJU71TRWG1FV403YGK3688UJUYI,3C6FJU71TRWG1FV403YGK3688UJUYI,268121,268121,,,,,,,,,,
,,,,4,3.879115,0,23,23,173,1,several students are working together at a table in a classroom. behind them is a bulletin board with a red square on it,several students are working together at a table in a classroom. behind them there is a bulletin board with a yellow square on it.,wolfe1,image-083,1,44,A2FUPODRRCESB,2021-01-09_10h39.18.517,MetaAwareness,2020.1.2,Win32,60,3H4IKZHALCL6869N6Y8H19LJ6ZKNNT,A2FUPODRRCESB,3C6FJU71TRWG1FV403YGK3688UJUYI,1J6C1,1J6C1,3C6FJU71TRWG1FV403YGK3688UJUYI,3C6FJU71TRWG1FV403YGK3688UJUYI,268121,268121,,,,,,,,,,
,,,,5,6.13532,0,24,24,127,1,there is a very modern looking room with minimalist furniture and sleek painting on the wall. there is a small white vase in the right cornern,there is a very modern looking room with minimalist furniture and sleek paintings on the wall. there is not small white vase in the right corner.,wolfe1,image-043,5,44,A2FUPODRRCESB,2021-01-09_10h39.18.517,MetaAwareness,2020.1.2,Win32,60,3H4IKZHALCL6869N6Y8H19LJ6ZKNNT,A2FUPODRRCESB,3C6FJU71TRWG1FV403YGK3688UJUYI,1J6C1,1J6C1,3C6FJU71TRWG1FV403YGK3688UJUYI,3C6FJU71TRWG1FV403YGK3688UJUYI,268121,268121,,,,,,,,,,
,,,,5,2.50165,0,25,25,328,1,"tourists riding camels, one wearing a green hat","tourists riding camels, one wearing a purple hat",wolfe1,image-135,3,44,A2FUPODRRCESB,2021-01-09_10h39.18.517,MetaAwareness,2020.1.2,Win32,60,3H4IKZHALCL6869N6Y8H19LJ6ZKNNT,A2FUPODRRCESB,3C6FJU71TRWG1FV403YGK3688UJUYI,1J6C1,1J6C1,3C6FJU71TRWG1FV403YGK3688UJUYI,3C6FJU71TRWG1FV403YGK3688UJUYI,268121,268121,,,,,,,,,,
,,,,4,2.80278,0,26,26,153,1,"a dirtbike race with several people in the audience, one is wearing a yellow shirt","a dirt bike race with several people watching, the person wearing a yellow shirt is now wearing a green shirt.",wolfe1,image-076,6,44,A2FUPODRRCESB,2021-01-09_10h39.18.517,MetaAwareness,2020.1.2,Win32,60,3H4IKZHALCL6869N6Y8H19LJ6ZKNNT,A2FUPODRRCESB,3C6FJU71TRWG1FV403YGK3688UJUYI,1J6C1,1J6C1,3C6FJU71TRWG1FV403YGK3688UJUYI,3C6FJU71TRWG1FV403YGK3688UJUYI,268121,268121,,,,,,,,,,
,,,,5,4.959635,0,27,27,203,1,a bush with red flowers along a trail a hiker is hiking,a bush with yellow flowers along a trail a hiker is hiking,wolfe1,image-095,2,44,A2FUPODRRCESB,2021-01-09_10h39.18.517,MetaAwareness,2020.1.2,Win32,60,3H4IKZHALCL6869N6Y8H19LJ6ZKNNT,A2FUPODRRCESB,3C6FJU71TRWG1FV403YGK3688UJUYI,1J6C1,1J6C1,3C6FJU71TRWG1FV403YGK3688UJUYI,3C6FJU71TRWG1FV403YGK3688UJUYI,268121,268121,,,,,,,,,,
,,,,5,1.429465,0,28,28,72,1,"a scenic beachfront view from a balcony, including tables, a couch, and red, white, and green pillows","a scenic beachfront view from a balcony, including tables, a couch, and red and white pillows",wolfe1,image-026,3,44,A2FUPODRRCESB,2021-01-09_10h39.18.517,MetaAwareness,2020.1.2,Win32,60,3H4IKZHALCL6869N6Y8H19LJ6ZKNNT,A2FUPODRRCESB,3C6FJU71TRWG1FV403YGK3688UJUYI,1J6C1,1J6C1,3C6FJU71TRWG1FV403YGK3688UJUYI,3C6FJU71TRWG1FV403YGK3688UJUYI,268121,268121,,,,,,,,,,
,,,,3,2.105925,0,29,29,184,1,a yard sale with two people working and one peron shopping. there is a blue item on the table,"a yard sale with two people working and one person shopping, the same item is there in this image, but it is now purple instead of blue.",wolfe1,image-087,2,44,A2FUPODRRCESB,2021-01-09_10h39.18.517,MetaAwareness,2020.1.2,Win32,60,3H4IKZHALCL6869N6Y8H19LJ6ZKNNT,A2FUPODRRCESB,3C6FJU71TRWG1FV403YGK3688UJUYI,1J6C1,1J6C1,3C6FJU71TRWG1FV403YGK3688UJUYI,3C6FJU71TRWG1FV403YGK3688UJUYI,268121,268121,,,,,,,,,,
,,,,,,,,,,,,,,,,44,A2FUPODRRCESB,2021-01-09_10h39.18.517,MetaAwareness,2020.1.2,Win32,60,3H4IKZHALCL6869N6Y8H19LJ6ZKNNT,A2FUPODRRCESB,3C6FJU71TRWG1FV403YGK3688UJUYI,1J6C1,1J6C1,3C6FJU71TRWG1FV403YGK3688UJUYI,3C6FJU71TRWG1FV403YGK3688UJUYI,268121,268121,6,4.231505,someone laying underneath a blue beach umbrella on a crowded beach,someone laying underneath a blue beach umbrella on a crowded beach,same,1,4.073255,members of a marching band crossing a track that all have feather plumes at the front of their hats,a cluttered and rustic looking cafe with 10 hanging lights,different
