consent_response.keys,consent_response.rt,key_resp_2.keys,key_resp_2.rt,user_resp.keys,user_resp.rt,trials.thisRepN,trials.thisTrialN,trials.thisN,trials.thisIndex,trials.ran,image_1_text,image_2_text,database,image,number,age,worker_ID,date,expName,psychopyVersion,OS,frameRate,hitId,workerId,assignmentId,a,tp_a,b,tp_b,c,tp_c,catch_same_resp.keys,catch_same_resp.rt,image_1_text_catch_same,image_2_text_catch_same,image_catch_same,catch_different_resp.keys,catch_different_resp.rt,image_1_text_catch_different,image_2_text_catch_different,image_catch_different
space,8.54182,space,10.74065,2,14.45267,0,0,0,165,1,"people are ordering food at outdoor counters and eating outside, and one of the dining tables has a green umbrella","people are ordering food at outdoor counters and earing outside, and one of the dining tables has a purple umbrellanum_enter",wolfe1,image-080,5,29,A2WPKP73S4MBLK,2021-01-09_12h10.09.433,MetaAwareness,2020.1.2,Win32,60,3RBI0I35XF6TG1KRVHXD9BLK52VY3C,A2WPKP73S4MBLK,3M68NM076IAM23THQQ8JW1ZV2LHR66,7N6M1,7N6M1,3M68NM076IAM23THQQ8JW1ZV2LHR66,3M68NM076IAM23THQQ8JW1ZV2LHR66,268121,268121,,,,,,,,,,
,,,,3,5.453615,0,1,1,201,1,students walking with backpacks,students walking with backpacks and a blue decoration on the backpack,wolfe1,image-094,7,29,A2WPKP73S4MBLK,2021-01-09_12h10.09.433,MetaAwareness,2020.1.2,Win32,60,3RBI0I35XF6TG1KRVHXD9BLK52VY3C,A2WPKP73S4MBLK,3M68NM076IAM23THQQ8JW1ZV2LHR66,7N6M1,7N6M1,3M68NM076IAM23THQQ8JW1ZV2LHR66,3M68NM076IAM23THQQ8JW1ZV2LHR66,268121,268121,,,,,,,,,,
,,,,5,10.07704,0,2,2,49,1,a crowd of people at a park and something laying in the ground in front of a lady sitting on a bench.,a crowd of people at a park and a lady sitting on a bench with nothing on the ground in front of her.,wolfe1,image-016,5,29,A2WPKP73S4MBLK,2021-01-09_12h10.09.433,MetaAwareness,2020.1.2,Win32,60,3RBI0I35XF6TG1KRVHXD9BLK52VY3C,A2WPKP73S4MBLK,3M68NM076IAM23THQQ8JW1ZV2LHR66,7N6M1,7N6M1,3M68NM076IAM23THQQ8JW1ZV2LHR66,3M68NM076IAM23THQQ8JW1ZV2LHR66,268121,268121,,,,,,,,,,
,,,,5,12.02673,0,3,3,187,1,a young boy in a blue striped shirt sitting with 4 other boys in a group.,a young boy in a purple striped shirt sitting with 4 other boys in a group.,wolfe1,image-089,1,29,A2WPKP73S4MBLK,2021-01-09_12h10.09.433,MetaAwareness,2020.1.2,Win32,60,3RBI0I35XF6TG1KRVHXD9BLK52VY3C,A2WPKP73S4MBLK,3M68NM076IAM23THQQ8JW1ZV2LHR66,7N6M1,7N6M1,3M68NM076IAM23THQQ8JW1ZV2LHR66,3M68NM076IAM23THQQ8JW1ZV2LHR66,268121,268121,,,,,,,,,,
,,,,4,7.2177,0,4,4,94,1,house with tile walkway in back yard,house with tile walkway missing one tile,wolfe1,image-034,2,29,A2WPKP73S4MBLK,2021-01-09_12h10.09.433,MetaAwareness,2020.1.2,Win32,60,3RBI0I35XF6TG1KRVHXD9BLK52VY3C,A2WPKP73S4MBLK,3M68NM076IAM23THQQ8JW1ZV2LHR66,7N6M1,7N6M1,3M68NM076IAM23THQQ8JW1ZV2LHR66,3M68NM076IAM23THQQ8JW1ZV2LHR66,268121,268121,,,,,,,,,,
,,,,5,9.52275,0,5,5,220,1,"a campsite with a trailer, tent, red chairs, and 2 red beach towels and 1 blue beach towel hanging on a clothes line","a campsite with a trailer, tent, red chairs, and 3 red beach towels hanging on a clothes line",wolfe1,image-100,2,29,A2WPKP73S4MBLK,2021-01-09_12h10.09.433,MetaAwareness,2020.1.2,Win32,60,3RBI0I35XF6TG1KRVHXD9BLK52VY3C,A2WPKP73S4MBLK,3M68NM076IAM23THQQ8JW1ZV2LHR66,7N6M1,7N6M1,3M68NM076IAM23THQQ8JW1ZV2LHR66,3M68NM076IAM23THQQ8JW1ZV2LHR66,268121,268121,,,,,,,,,,
,,,,5,10.99859,0,6,6,79,1,a stone school building with three features on the roof and many bikes parked as students are in class.,a stone school builiding with two features on the roof and many bikes parked as students are in class,wolfe1,image-029,3,29,A2WPKP73S4MBLK,2021-01-09_12h10.09.433,MetaAwareness,2020.1.2,Win32,60,3RBI0I35XF6TG1KRVHXD9BLK52VY3C,A2WPKP73S4MBLK,3M68NM076IAM23THQQ8JW1ZV2LHR66,7N6M1,7N6M1,3M68NM076IAM23THQQ8JW1ZV2LHR66,3M68NM076IAM23THQQ8JW1ZV2LHR66,268121,268121,,,,,,,,,,
,,,,4,4.517485,0,7,7,57,1,guy in red wall climbing,people wall climbing,wolfe1,image-019,2,29,A2WPKP73S4MBLK,2021-01-09_12h10.09.433,MetaAwareness,2020.1.2,Win32,60,3RBI0I35XF6TG1KRVHXD9BLK52VY3C,A2WPKP73S4MBLK,3M68NM076IAM23THQQ8JW1ZV2LHR66,7N6M1,7N6M1,3M68NM076IAM23THQQ8JW1ZV2LHR66,3M68NM076IAM23THQQ8JW1ZV2LHR66,268121,268121,,,,,,,,,,
,,,,5,7.965695,0,8,8,216,1,tourists visiting an asian structure with one man wearing green shorts.,tourists visiting an asian structure with one man wearing brown shorts.,wolfe1,image-098,5,29,A2WPKP73S4MBLK,2021-01-09_12h10.09.433,MetaAwareness,2020.1.2,Win32,60,3RBI0I35XF6TG1KRVHXD9BLK52VY3C,A2WPKP73S4MBLK,3M68NM076IAM23THQQ8JW1ZV2LHR66,7N6M1,7N6M1,3M68NM076IAM23THQQ8JW1ZV2LHR66,3M68NM076IAM23THQQ8JW1ZV2LHR66,268121,268121,,,,,,,,,,
,,,,5,7.339475,0,9,9,218,1,people standing on dirt in traditional indian garb and a man dressed casually with a peach collared shirt,people standing on dirt in traditional indian garb and a man dressed casually with a green collared shirt,wolfe1,image-099,4,29,A2WPKP73S4MBLK,2021-01-09_12h10.09.433,MetaAwareness,2020.1.2,Win32,60,3RBI0I35XF6TG1KRVHXD9BLK52VY3C,A2WPKP73S4MBLK,3M68NM076IAM23THQQ8JW1ZV2LHR66,7N6M1,7N6M1,3M68NM076IAM23THQQ8JW1ZV2LHR66,3M68NM076IAM23THQQ8JW1ZV2LHR66,268121,268121,,,,,,,,,,
,,,,4,11.52645,0,10,10,114,1,and old red building behind a creek that has lots of rocks on the land and in the water,an old red building behind a creek that has lots of rocks on the land and few in the water,wolfe1,image-041,1,29,A2WPKP73S4MBLK,2021-01-09_12h10.09.433,MetaAwareness,2020.1.2,Win32,60,3RBI0I35XF6TG1KRVHXD9BLK52VY3C,A2WPKP73S4MBLK,3M68NM076IAM23THQQ8JW1ZV2LHR66,7N6M1,7N6M1,3M68NM076IAM23THQQ8JW1ZV2LHR66,3M68NM076IAM23THQQ8JW1ZV2LHR66,268121,268121,,,,,,,,,,
,,,,3,7.625645,0,11,11,88,1,to the boys left hand side there are several birds next to him,to the boys left hand side there are not any birds right next to him,wolfe1,image-032,7,29,A2WPKP73S4MBLK,2021-01-09_12h10.09.433,MetaAwareness,2020.1.2,Win32,60,3RBI0I35XF6TG1KRVHXD9BLK52VY3C,A2WPKP73S4MBLK,3M68NM076IAM23THQQ8JW1ZV2LHR66,7N6M1,7N6M1,3M68NM076IAM23THQQ8JW1ZV2LHR66,3M68NM076IAM23THQQ8JW1ZV2LHR66,268121,268121,,,,,,,,,,
,,,,5,4.817435,0,12,12,310,1,people walking in the snow towards a helicopter and some yellow supplies,people walking in the snow towards a helicopter and some blue supplies,wolfe1,image-130,4,29,A2WPKP73S4MBLK,2021-01-09_12h10.09.433,MetaAwareness,2020.1.2,Win32,60,3RBI0I35XF6TG1KRVHXD9BLK52VY3C,A2WPKP73S4MBLK,3M68NM076IAM23THQQ8JW1ZV2LHR66,7N6M1,7N6M1,3M68NM076IAM23THQQ8JW1ZV2LHR66,3M68NM076IAM23THQQ8JW1ZV2LHR66,268121,268121,,,,,,,,,,
,,,,5,6.577035,0,13,13,131,1,a field in front of a scene of hills and mountains with seven rolls of hay next to some trees,a field in front of a scene of hills and mountains with six rolls of hay next to some trees,wolfe1,image-045,3,29,A2WPKP73S4MBLK,2021-01-09_12h10.09.433,MetaAwareness,2020.1.2,Win32,60,3RBI0I35XF6TG1KRVHXD9BLK52VY3C,A2WPKP73S4MBLK,3M68NM076IAM23THQQ8JW1ZV2LHR66,7N6M1,7N6M1,3M68NM076IAM23THQQ8JW1ZV2LHR66,3M68NM076IAM23THQQ8JW1ZV2LHR66,268121,268121,,,,,,,,,,
,,,,5,11.36615,0,14,14,334,1,"there are two women walking on a beach and there are several umbrellas, there is a blue umbrella and a yellow umbrella behind them.","there are two women walking on a beach, and there are several umbrellas. there are two yellow umbrellas behind them.",wolfe1,image-137,1,29,A2WPKP73S4MBLK,2021-01-09_12h10.09.433,MetaAwareness,2020.1.2,Win32,60,3RBI0I35XF6TG1KRVHXD9BLK52VY3C,A2WPKP73S4MBLK,3M68NM076IAM23THQQ8JW1ZV2LHR66,7N6M1,7N6M1,3M68NM076IAM23THQQ8JW1ZV2LHR66,3M68NM076IAM23THQQ8JW1ZV2LHR66,268121,268121,,,,,,,,,,
,,,,3,11.23336,0,15,15,147,1,"a hammock is strung between two trees on a tropical island, with leaves dangling down from another tree, blocking the sun.","a hammock is strung between two trees ona tropical island, with the sun shining beneath another tree.",wolfe1,image-049,6,29,A2WPKP73S4MBLK,2021-01-09_12h10.09.433,MetaAwareness,2020.1.2,Win32,60,3RBI0I35XF6TG1KRVHXD9BLK52VY3C,A2WPKP73S4MBLK,3M68NM076IAM23THQQ8JW1ZV2LHR66,7N6M1,7N6M1,3M68NM076IAM23THQQ8JW1ZV2LHR66,3M68NM076IAM23THQQ8JW1ZV2LHR66,268121,268121,,,,,,,,,,
,,,,5,12.41689,0,16,16,121,1,"a crowd of people walk in front of a fancy temple or church, the top decorated with statues and spires.","a crowd of people walk in front of a fancy temple or church, the top decorated with statues and spires, though one is missing",wolfe1,image-042,4,29,A2WPKP73S4MBLK,2021-01-09_12h10.09.433,MetaAwareness,2020.1.2,Win32,60,3RBI0I35XF6TG1KRVHXD9BLK52VY3C,A2WPKP73S4MBLK,3M68NM076IAM23THQQ8JW1ZV2LHR66,7N6M1,7N6M1,3M68NM076IAM23THQQ8JW1ZV2LHR66,3M68NM076IAM23THQQ8JW1ZV2LHR66,268121,268121,,,,,,,,,,
,,,,5,4.515625,0,17,17,298,1,a woman shovels snow off of her car with a big blue shovel,a woman shovels snow off of her car with a big green shovel,wolfe1,image-127,3,29,A2WPKP73S4MBLK,2021-01-09_12h10.09.433,MetaAwareness,2020.1.2,Win32,60,3RBI0I35XF6TG1KRVHXD9BLK52VY3C,A2WPKP73S4MBLK,3M68NM076IAM23THQQ8JW1ZV2LHR66,7N6M1,7N6M1,3M68NM076IAM23THQQ8JW1ZV2LHR66,3M68NM076IAM23THQQ8JW1ZV2LHR66,268121,268121,,,,,,,,,,
,,,,3,26.2331,0,18,18,290,1,"two people are talking next to a boat dock, with both posts at the dock slightly green with algae.","two people are talking next to a boat dock, with one post at the dock looking cleaner than the other one slightly green with algae.",wolfe1,image-124,7,29,A2WPKP73S4MBLK,2021-01-09_12h10.09.433,MetaAwareness,2020.1.2,Win32,60,3RBI0I35XF6TG1KRVHXD9BLK52VY3C,A2WPKP73S4MBLK,3M68NM076IAM23THQQ8JW1ZV2LHR66,7N6M1,7N6M1,3M68NM076IAM23THQQ8JW1ZV2LHR66,3M68NM076IAM23THQQ8JW1ZV2LHR66,268121,268121,,,,,,,,,,
,,,,2,11.48894,0,19,19,145,1,a tropical beach scene with a blue sky background and hamock on a white beach with a palm frond in the upper left corner of some palm trees scattered around,some palm frond pieces on one of several palm trees on a white beach with a hammock hanging above the sand,wolfe1,image-049,1,29,A2WPKP73S4MBLK,2021-01-09_12h10.09.433,MetaAwareness,2020.1.2,Win32,60,3RBI0I35XF6TG1KRVHXD9BLK52VY3C,A2WPKP73S4MBLK,3M68NM076IAM23THQQ8JW1ZV2LHR66,7N6M1,7N6M1,3M68NM076IAM23THQQ8JW1ZV2LHR66,3M68NM076IAM23THQQ8JW1ZV2LHR66,268121,268121,,,,,,,,,,
,,,,3,11.583445,0,20,20,2,1,yard sale with clothes and toy table with a blue jacket hanging by the table,yard sale with clothes and brown jacket hanging by a table.,wolfe1,image-002,3,29,A2WPKP73S4MBLK,2021-01-09_12h10.09.433,MetaAwareness,2020.1.2,Win32,60,3RBI0I35XF6TG1KRVHXD9BLK52VY3C,A2WPKP73S4MBLK,3M68NM076IAM23THQQ8JW1ZV2LHR66,7N6M1,7N6M1,3M68NM076IAM23THQQ8JW1ZV2LHR66,3M68NM076IAM23THQQ8JW1ZV2LHR66,268121,268121,,,,,,,,,,
,,,,3,8.55781,0,21,21,246,1,three men are playing golf with a roofline visible between the trees.,men are playing golf in a neighborhood with a roofline of a house in the background.,wolfe1,image-108,5,29,A2WPKP73S4MBLK,2021-01-09_12h10.09.433,MetaAwareness,2020.1.2,Win32,60,3RBI0I35XF6TG1KRVHXD9BLK52VY3C,A2WPKP73S4MBLK,3M68NM076IAM23THQQ8JW1ZV2LHR66,7N6M1,7N6M1,3M68NM076IAM23THQQ8JW1ZV2LHR66,3M68NM076IAM23THQQ8JW1ZV2LHR66,268121,268121,,,,,,,,,,
,,,,4,7.82386,0,22,22,209,1,a group of practicing singers practicing with a blue bin next to the pianist.,a group of singers practicing with a green bin next to the pianist.,wolfe1,image-096,4,29,A2WPKP73S4MBLK,2021-01-09_12h10.09.433,MetaAwareness,2020.1.2,Win32,60,3RBI0I35XF6TG1KRVHXD9BLK52VY3C,A2WPKP73S4MBLK,3M68NM076IAM23THQQ8JW1ZV2LHR66,7N6M1,7N6M1,3M68NM076IAM23THQQ8JW1ZV2LHR66,3M68NM076IAM23THQQ8JW1ZV2LHR66,268121,268121,,,,,,,,,,
,,,,4,5.70989,0,23,23,26,1,a bunch of animals on a farm and a chicken running nearby,a bunch of animals on a farm and  some hay in a fence nearby,wolfe1,image-009,4,29,A2WPKP73S4MBLK,2021-01-09_12h10.09.433,MetaAwareness,2020.1.2,Win32,60,3RBI0I35XF6TG1KRVHXD9BLK52VY3C,A2WPKP73S4MBLK,3M68NM076IAM23THQQ8JW1ZV2LHR66,7N6M1,7N6M1,3M68NM076IAM23THQQ8JW1ZV2LHR66,3M68NM076IAM23THQQ8JW1ZV2LHR66,268121,268121,,,,,,,,,,
,,,,4,6.441815,0,24,24,125,1,a minimalistic living room with a vase on the floor.,a minimalistic living room with a carpet and nothing on the floor.,wolfe1,image-043,3,29,A2WPKP73S4MBLK,2021-01-09_12h10.09.433,MetaAwareness,2020.1.2,Win32,60,3RBI0I35XF6TG1KRVHXD9BLK52VY3C,A2WPKP73S4MBLK,3M68NM076IAM23THQQ8JW1ZV2LHR66,7N6M1,7N6M1,3M68NM076IAM23THQQ8JW1ZV2LHR66,3M68NM076IAM23THQQ8JW1ZV2LHR66,268121,268121,,,,,,,,,,
,,,,5,4.34322,0,25,25,252,1,a line of shops along a street where one roof is red.,a line of shops along a street where one roof is blue.,wolfe1,image-110,8,29,A2WPKP73S4MBLK,2021-01-09_12h10.09.433,MetaAwareness,2020.1.2,Win32,60,3RBI0I35XF6TG1KRVHXD9BLK52VY3C,A2WPKP73S4MBLK,3M68NM076IAM23THQQ8JW1ZV2LHR66,7N6M1,7N6M1,3M68NM076IAM23THQQ8JW1ZV2LHR66,3M68NM076IAM23THQQ8JW1ZV2LHR66,268121,268121,,,,,,,,,,
,,,,4,4.401085,0,26,26,332,1,a deck patio with a blue house in the background,a deck patio with a pink house in the background,wolfe1,image-136,5,29,A2WPKP73S4MBLK,2021-01-09_12h10.09.433,MetaAwareness,2020.1.2,Win32,60,3RBI0I35XF6TG1KRVHXD9BLK52VY3C,A2WPKP73S4MBLK,3M68NM076IAM23THQQ8JW1ZV2LHR66,7N6M1,7N6M1,3M68NM076IAM23THQQ8JW1ZV2LHR66,3M68NM076IAM23THQQ8JW1ZV2LHR66,268121,268121,,,,,,,,,,
,,,,5,7.133745,0,27,27,181,1,many boys are being in the scene one boy wearing red color t-shirt,many boys are being in the scene and one boy wearing purple color t-shirt,wolfe1,image-086,4,29,A2WPKP73S4MBLK,2021-01-09_12h10.09.433,MetaAwareness,2020.1.2,Win32,60,3RBI0I35XF6TG1KRVHXD9BLK52VY3C,A2WPKP73S4MBLK,3M68NM076IAM23THQQ8JW1ZV2LHR66,7N6M1,7N6M1,3M68NM076IAM23THQQ8JW1ZV2LHR66,3M68NM076IAM23THQQ8JW1ZV2LHR66,268121,268121,,,,,,,,,,
,,,,5,11.50027,0,28,28,154,1,there is a dirt track that has bmx riders racing on it. in the back there are two men among many watching the race. the two men have on white and yellow shirts.,there is a dirt tract that has bmx riders racing on it. in the back there are two men among many watching the race. the two men have on white and green shirts.,wolfe1,image-076,9,29,A2WPKP73S4MBLK,2021-01-09_12h10.09.433,MetaAwareness,2020.1.2,Win32,60,3RBI0I35XF6TG1KRVHXD9BLK52VY3C,A2WPKP73S4MBLK,3M68NM076IAM23THQQ8JW1ZV2LHR66,7N6M1,7N6M1,3M68NM076IAM23THQQ8JW1ZV2LHR66,3M68NM076IAM23THQQ8JW1ZV2LHR66,268121,268121,,,,,,,,,,
,,,,4,6.233935,0,29,29,212,1,"a man stands at a food stall, his blue pants contrasting against the white side of it.","a man stands at a food stall, his green pants contrasting against the blue side of it",wolfe1,image-097,3,29,A2WPKP73S4MBLK,2021-01-09_12h10.09.433,MetaAwareness,2020.1.2,Win32,60,3RBI0I35XF6TG1KRVHXD9BLK52VY3C,A2WPKP73S4MBLK,3M68NM076IAM23THQQ8JW1ZV2LHR66,7N6M1,7N6M1,3M68NM076IAM23THQQ8JW1ZV2LHR66,3M68NM076IAM23THQQ8JW1ZV2LHR66,268121,268121,,,,,,,,,,
,,,,,,,,,,,,,,,,29,A2WPKP73S4MBLK,2021-01-09_12h10.09.433,MetaAwareness,2020.1.2,Win32,60,3RBI0I35XF6TG1KRVHXD9BLK52VY3C,A2WPKP73S4MBLK,3M68NM076IAM23THQQ8JW1ZV2LHR66,7N6M1,7N6M1,3M68NM076IAM23THQQ8JW1ZV2LHR66,3M68NM076IAM23THQQ8JW1ZV2LHR66,268121,268121,6,9.053585,someone laying underneath a blue beach umbrella on a crowded beach,someone laying underneath a blue beach umbrella on a crowded beach,same,1,7.922655,members of a marching band crossing a track that all have feather plumes at the front of their hats,a cluttered and rustic looking cafe with 10 hanging lights,different
