consent_response.keys,consent_response.rt,key_resp_2.keys,key_resp_2.rt,user_resp.keys,user_resp.rt,trials.thisRepN,trials.thisTrialN,trials.thisN,trials.thisIndex,trials.ran,image_1_text,image_2_text,database,image,number,age,worker_ID,date,expName,psychopyVersion,OS,frameRate,hitId,workerId,assignmentId,a,tp_a,b,tp_b,c,tp_c,catch_same_resp.keys,catch_same_resp.rt,image_1_text_catch_same,image_2_text_catch_same,image_catch_same,catch_different_resp.keys,catch_different_resp.rt,image_1_text_catch_different,image_2_text_catch_different,image_catch_different
space,16.772,space,78.593,5,68.681,0,0,0,142,1,a group of young black children pose for a group photo. behind them is a river that leads to a lake.,a group of you black children pose for a group photo. behind them is a lake,wolfe1,image-048,1,35,A30ZF45ASY02Z6,2021-01-09_10h55.56.063,MetaAwareness,2020.1.2,Win32,60,3CVDZS288I3O2WB6W9A4GPNAZIMFMC,A30ZF45ASY02Z6,3Q5ZZ9ZEVPIK1UE7MYSEDEQQGYD85Q,EZ5Q1,EZ5Q1,3Q5ZZ9ZEVPIK1UE7MYSEDEQQGYD85Q,3Q5ZZ9ZEVPIK1UE7MYSEDEQQGYD85Q,268121,268121,,,,,,,,,,
,,,,5,10.167,0,1,1,48,1,there is a crowded city park with a playground and many children.  there is a dark object on the ground.,there is a crowded city park with a playground and many children.  the sidewalk is clear of objects.,wolfe1,image-016,4,35,A30ZF45ASY02Z6,2021-01-09_10h55.56.063,MetaAwareness,2020.1.2,Win32,60,3CVDZS288I3O2WB6W9A4GPNAZIMFMC,A30ZF45ASY02Z6,3Q5ZZ9ZEVPIK1UE7MYSEDEQQGYD85Q,EZ5Q1,EZ5Q1,3Q5ZZ9ZEVPIK1UE7MYSEDEQQGYD85Q,3Q5ZZ9ZEVPIK1UE7MYSEDEQQGYD85Q,268121,268121,,,,,,,,,,
,,,,4,8.089,0,2,2,96,1,there are 6 stepping stones on the ground.,there are 5 stepping stones on the ground.,wolfe1,image-034,7,35,A30ZF45ASY02Z6,2021-01-09_10h55.56.063,MetaAwareness,2020.1.2,Win32,60,3CVDZS288I3O2WB6W9A4GPNAZIMFMC,A30ZF45ASY02Z6,3Q5ZZ9ZEVPIK1UE7MYSEDEQQGYD85Q,EZ5Q1,EZ5Q1,3Q5ZZ9ZEVPIK1UE7MYSEDEQQGYD85Q,3Q5ZZ9ZEVPIK1UE7MYSEDEQQGYD85Q,268121,268121,,,,,,,,,,
,,,,5,13.202,0,3,3,200,1,a backpack with a blue patch on it.,a backpack with a green patch on it.,wolfe1,image-094,5,35,A30ZF45ASY02Z6,2021-01-09_10h55.56.063,MetaAwareness,2020.1.2,Win32,60,3CVDZS288I3O2WB6W9A4GPNAZIMFMC,A30ZF45ASY02Z6,3Q5ZZ9ZEVPIK1UE7MYSEDEQQGYD85Q,EZ5Q1,EZ5Q1,3Q5ZZ9ZEVPIK1UE7MYSEDEQQGYD85Q,3Q5ZZ9ZEVPIK1UE7MYSEDEQQGYD85Q,268121,268121,,,,,,,,,,
,,,,5,11.308,0,4,4,321,1,a brown surf board leans against the outside of a blue building.,a green surf board leans against the outside of a blue building.,wolfe1,image-133,2,35,A30ZF45ASY02Z6,2021-01-09_10h55.56.063,MetaAwareness,2020.1.2,Win32,60,3CVDZS288I3O2WB6W9A4GPNAZIMFMC,A30ZF45ASY02Z6,3Q5ZZ9ZEVPIK1UE7MYSEDEQQGYD85Q,EZ5Q1,EZ5Q1,3Q5ZZ9ZEVPIK1UE7MYSEDEQQGYD85Q,3Q5ZZ9ZEVPIK1UE7MYSEDEQQGYD85Q,268121,268121,,,,,,,,,,
,,,,6,11.305,0,5,5,108,1,"a modern interior of a building, with chairs, and tables with numerous decorations, including a top shelf with a black box","a modern interior of a building, with chairs, and tables with numerous decorations, including a top shelf without a black box",wolfe1,image-039,3,35,A30ZF45ASY02Z6,2021-01-09_10h55.56.063,MetaAwareness,2020.1.2,Win32,60,3CVDZS288I3O2WB6W9A4GPNAZIMFMC,A30ZF45ASY02Z6,3Q5ZZ9ZEVPIK1UE7MYSEDEQQGYD85Q,EZ5Q1,EZ5Q1,3Q5ZZ9ZEVPIK1UE7MYSEDEQQGYD85Q,3Q5ZZ9ZEVPIK1UE7MYSEDEQQGYD85Q,268121,268121,,,,,,,,,,
,,,,5,7.524,0,6,6,155,1,"a group of people and an american flag in front of a church, a woman is holding a blue item","a group of people and an american flag in front of a church, a woman is holding a yellow item",wolfe1,image-077,1,35,A30ZF45ASY02Z6,2021-01-09_10h55.56.063,MetaAwareness,2020.1.2,Win32,60,3CVDZS288I3O2WB6W9A4GPNAZIMFMC,A30ZF45ASY02Z6,3Q5ZZ9ZEVPIK1UE7MYSEDEQQGYD85Q,EZ5Q1,EZ5Q1,3Q5ZZ9ZEVPIK1UE7MYSEDEQQGYD85Q,3Q5ZZ9ZEVPIK1UE7MYSEDEQQGYD85Q,268121,268121,,,,,,,,,,
,,,,5,9.813,0,7,7,239,1,a blue candle sits in a bowl with other colorful candles,a purple candle sits on a bowl with other colorful candles,wolfe1,image-107,1,35,A30ZF45ASY02Z6,2021-01-09_10h55.56.063,MetaAwareness,2020.1.2,Win32,60,3CVDZS288I3O2WB6W9A4GPNAZIMFMC,A30ZF45ASY02Z6,3Q5ZZ9ZEVPIK1UE7MYSEDEQQGYD85Q,EZ5Q1,EZ5Q1,3Q5ZZ9ZEVPIK1UE7MYSEDEQQGYD85Q,3Q5ZZ9ZEVPIK1UE7MYSEDEQQGYD85Q,268121,268121,,,,,,,,,,
,,,,5,20.417,0,8,8,277,1,an asian gardan with a statue in the center in front of a light blue fabic with a tassel,an asian garden with a statue in the center in front of a dark blue puple fabric with a tassel,wolfe1,image-120,2,35,A30ZF45ASY02Z6,2021-01-09_10h55.56.063,MetaAwareness,2020.1.2,Win32,60,3CVDZS288I3O2WB6W9A4GPNAZIMFMC,A30ZF45ASY02Z6,3Q5ZZ9ZEVPIK1UE7MYSEDEQQGYD85Q,EZ5Q1,EZ5Q1,3Q5ZZ9ZEVPIK1UE7MYSEDEQQGYD85Q,3Q5ZZ9ZEVPIK1UE7MYSEDEQQGYD85Q,268121,268121,,,,,,,,,,
,,,,5,6.394,0,9,9,63,1,there are four arrow holders.,there are three arrow holders.,wolfe1,image-021,1,35,A30ZF45ASY02Z6,2021-01-09_10h55.56.063,MetaAwareness,2020.1.2,Win32,60,3CVDZS288I3O2WB6W9A4GPNAZIMFMC,A30ZF45ASY02Z6,3Q5ZZ9ZEVPIK1UE7MYSEDEQQGYD85Q,EZ5Q1,EZ5Q1,3Q5ZZ9ZEVPIK1UE7MYSEDEQQGYD85Q,3Q5ZZ9ZEVPIK1UE7MYSEDEQQGYD85Q,268121,268121,,,,,,,,,,
,,,,4,23.802,0,10,10,76,1,a large building with many windows with people sittin infront of it and there is an object behind them in the grass,a large building ith many widowd with people sitting in the grass with no object behind them,wolfe1,image-028,1,35,A30ZF45ASY02Z6,2021-01-09_10h55.56.063,MetaAwareness,2020.1.2,Win32,60,3CVDZS288I3O2WB6W9A4GPNAZIMFMC,A30ZF45ASY02Z6,3Q5ZZ9ZEVPIK1UE7MYSEDEQQGYD85Q,EZ5Q1,EZ5Q1,3Q5ZZ9ZEVPIK1UE7MYSEDEQQGYD85Q,3Q5ZZ9ZEVPIK1UE7MYSEDEQQGYD85Q,268121,268121,,,,,,,,,,
,,,,1,5,0,11,11,136,1,a small white bin is on the ground beside a group of people who look like they are about to start a project,there is grass around a group of people standing around about to start a project involving a shove,wolfe1,image-046,5,35,A30ZF45ASY02Z6,2021-01-09_10h55.56.063,MetaAwareness,2020.1.2,Win32,60,3CVDZS288I3O2WB6W9A4GPNAZIMFMC,A30ZF45ASY02Z6,3Q5ZZ9ZEVPIK1UE7MYSEDEQQGYD85Q,EZ5Q1,EZ5Q1,3Q5ZZ9ZEVPIK1UE7MYSEDEQQGYD85Q,3Q5ZZ9ZEVPIK1UE7MYSEDEQQGYD85Q,268121,268121,,,,,,,,,,
,,,,5,5.781,0,12,12,328,1,"tourists riding camels, one wearing a green hat","tourists riding camels, one wearing a purple hat",wolfe1,image-135,3,35,A30ZF45ASY02Z6,2021-01-09_10h55.56.063,MetaAwareness,2020.1.2,Win32,60,3CVDZS288I3O2WB6W9A4GPNAZIMFMC,A30ZF45ASY02Z6,3Q5ZZ9ZEVPIK1UE7MYSEDEQQGYD85Q,EZ5Q1,EZ5Q1,3Q5ZZ9ZEVPIK1UE7MYSEDEQQGYD85Q,3Q5ZZ9ZEVPIK1UE7MYSEDEQQGYD85Q,268121,268121,,,,,,,,,,
,,,,5,4.601,0,13,13,294,1,"two teams play a game of volleyball outside, with one man on one team wearing a dark blue shirt.","two teams play a game of volleyball outside, with one man on one team wearing a grayish yellow shirt.",wolfe1,image-126,3,35,A30ZF45ASY02Z6,2021-01-09_10h55.56.063,MetaAwareness,2020.1.2,Win32,60,3CVDZS288I3O2WB6W9A4GPNAZIMFMC,A30ZF45ASY02Z6,3Q5ZZ9ZEVPIK1UE7MYSEDEQQGYD85Q,EZ5Q1,EZ5Q1,3Q5ZZ9ZEVPIK1UE7MYSEDEQQGYD85Q,3Q5ZZ9ZEVPIK1UE7MYSEDEQQGYD85Q,268121,268121,,,,,,,,,,
,,,,4,5.98,0,14,14,208,1,looks like people worjing on music in a room with pianos and chairs. there is a stool with something that is blue underneath it,looks like people working on music in a room with pianos and chairs. there is a stool with something green underneath it.,wolfe1,image-096,2,35,A30ZF45ASY02Z6,2021-01-09_10h55.56.063,MetaAwareness,2020.1.2,Win32,60,3CVDZS288I3O2WB6W9A4GPNAZIMFMC,A30ZF45ASY02Z6,3Q5ZZ9ZEVPIK1UE7MYSEDEQQGYD85Q,EZ5Q1,EZ5Q1,3Q5ZZ9ZEVPIK1UE7MYSEDEQQGYD85Q,3Q5ZZ9ZEVPIK1UE7MYSEDEQQGYD85Q,268121,268121,,,,,,,,,,
,,,,4,11.677,0,15,15,20,1,there is a woman petting a goat. there is a man in the background that is standing close to the sign.,there is a woman petting a goat. the man who was standing in front of the sign is gone.,wolfe1,image-008,1,35,A30ZF45ASY02Z6,2021-01-09_10h55.56.063,MetaAwareness,2020.1.2,Win32,60,3CVDZS288I3O2WB6W9A4GPNAZIMFMC,A30ZF45ASY02Z6,3Q5ZZ9ZEVPIK1UE7MYSEDEQQGYD85Q,EZ5Q1,EZ5Q1,3Q5ZZ9ZEVPIK1UE7MYSEDEQQGYD85Q,3Q5ZZ9ZEVPIK1UE7MYSEDEQQGYD85Q,268121,268121,,,,,,,,,,
,,,,4,6.004,0,16,16,117,1,a white rock floating in a blue lake,some blue water floating in a lake,wolfe1,image-041,8,35,A30ZF45ASY02Z6,2021-01-09_10h55.56.063,MetaAwareness,2020.1.2,Win32,60,3CVDZS288I3O2WB6W9A4GPNAZIMFMC,A30ZF45ASY02Z6,3Q5ZZ9ZEVPIK1UE7MYSEDEQQGYD85Q,EZ5Q1,EZ5Q1,3Q5ZZ9ZEVPIK1UE7MYSEDEQQGYD85Q,3Q5ZZ9ZEVPIK1UE7MYSEDEQQGYD85Q,268121,268121,,,,,,,,,,
,,,,6,11.481,0,17,17,170,1,papers and a pink folder on a table with other items in front of two women looking at reports - they are outdoors,papers and a blue folder on a table with other items in front of two women looking at reports - they are outdoors,wolfe1,image-081,5,35,A30ZF45ASY02Z6,2021-01-09_10h55.56.063,MetaAwareness,2020.1.2,Win32,60,3CVDZS288I3O2WB6W9A4GPNAZIMFMC,A30ZF45ASY02Z6,3Q5ZZ9ZEVPIK1UE7MYSEDEQQGYD85Q,EZ5Q1,EZ5Q1,3Q5ZZ9ZEVPIK1UE7MYSEDEQQGYD85Q,3Q5ZZ9ZEVPIK1UE7MYSEDEQQGYD85Q,268121,268121,,,,,,,,,,
,,,,6,7.535,0,18,18,313,1,a girl in a pink skirt does exercise with a group of other children.,a girl in a purple skirt does exercise with a group of other children.,wolfe1,image-131,2,35,A30ZF45ASY02Z6,2021-01-09_10h55.56.063,MetaAwareness,2020.1.2,Win32,60,3CVDZS288I3O2WB6W9A4GPNAZIMFMC,A30ZF45ASY02Z6,3Q5ZZ9ZEVPIK1UE7MYSEDEQQGYD85Q,EZ5Q1,EZ5Q1,3Q5ZZ9ZEVPIK1UE7MYSEDEQQGYD85Q,3Q5ZZ9ZEVPIK1UE7MYSEDEQQGYD85Q,268121,268121,,,,,,,,,,
,,,,5,12.573,0,19,19,148,1,three adults stand before a small classroom of students and there is a large stack of papers and-or files in the background behind one of the teachers,three adults stand before a small classroom of students and there is a projector screen behind the three instructors,wolfe1,image-050,2,35,A30ZF45ASY02Z6,2021-01-09_10h55.56.063,MetaAwareness,2020.1.2,Win32,60,3CVDZS288I3O2WB6W9A4GPNAZIMFMC,A30ZF45ASY02Z6,3Q5ZZ9ZEVPIK1UE7MYSEDEQQGYD85Q,EZ5Q1,EZ5Q1,3Q5ZZ9ZEVPIK1UE7MYSEDEQQGYD85Q,3Q5ZZ9ZEVPIK1UE7MYSEDEQQGYD85Q,268121,268121,,,,,,,,,,
,,,,4,12.104,0,20,20,184,1,a yard sale with two people working and one peron shopping. there is a blue item on the table,"a yard sale with two people working and one person shopping, the same item is there in this image, but it is now purple instead of blue.",wolfe1,image-087,2,35,A30ZF45ASY02Z6,2021-01-09_10h55.56.063,MetaAwareness,2020.1.2,Win32,60,3CVDZS288I3O2WB6W9A4GPNAZIMFMC,A30ZF45ASY02Z6,3Q5ZZ9ZEVPIK1UE7MYSEDEQQGYD85Q,EZ5Q1,EZ5Q1,3Q5ZZ9ZEVPIK1UE7MYSEDEQQGYD85Q,3Q5ZZ9ZEVPIK1UE7MYSEDEQQGYD85Q,268121,268121,,,,,,,,,,
,,,,6,25.316,0,21,21,187,1,a young boy in a blue striped shirt sitting with 4 other boys in a group.,a young boy in a purple striped shirt sitting with 4 other boys in a group.,wolfe1,image-089,1,35,A30ZF45ASY02Z6,2021-01-09_10h55.56.063,MetaAwareness,2020.1.2,Win32,60,3CVDZS288I3O2WB6W9A4GPNAZIMFMC,A30ZF45ASY02Z6,3Q5ZZ9ZEVPIK1UE7MYSEDEQQGYD85Q,EZ5Q1,EZ5Q1,3Q5ZZ9ZEVPIK1UE7MYSEDEQQGYD85Q,3Q5ZZ9ZEVPIK1UE7MYSEDEQQGYD85Q,268121,268121,,,,,,,,,,
,,,,5,6.286,0,22,22,130,1,a large area of hilly farmland in front of a mountain range with 7 small bushes in the closest field.,a large area of hilly farmland in front of a mountain range with 6 small bushes in the closest field.,wolfe1,image-045,1,35,A30ZF45ASY02Z6,2021-01-09_10h55.56.063,MetaAwareness,2020.1.2,Win32,60,3CVDZS288I3O2WB6W9A4GPNAZIMFMC,A30ZF45ASY02Z6,3Q5ZZ9ZEVPIK1UE7MYSEDEQQGYD85Q,EZ5Q1,EZ5Q1,3Q5ZZ9ZEVPIK1UE7MYSEDEQQGYD85Q,3Q5ZZ9ZEVPIK1UE7MYSEDEQQGYD85Q,268121,268121,,,,,,,,,,
,,,,4,10.497,0,23,23,95,1,"a calm and peaceful looking backyard garden, with stepping stones over to a seating area.","a calm and peaceful looking backyard garden, with a missing stepping stone over to a seating area.",wolfe1,image-034,4,35,A30ZF45ASY02Z6,2021-01-09_10h55.56.063,MetaAwareness,2020.1.2,Win32,60,3CVDZS288I3O2WB6W9A4GPNAZIMFMC,A30ZF45ASY02Z6,3Q5ZZ9ZEVPIK1UE7MYSEDEQQGYD85Q,EZ5Q1,EZ5Q1,3Q5ZZ9ZEVPIK1UE7MYSEDEQQGYD85Q,3Q5ZZ9ZEVPIK1UE7MYSEDEQQGYD85Q,268121,268121,,,,,,,,,,
,,,,5,11.497,0,24,24,156,1,people standing on grass in front of a castle next to an american flag with a woman holding a blue jacket,people standing on grass in front of a castle next to an american flag with a woman holding a yellow jacket,wolfe1,image-077,4,35,A30ZF45ASY02Z6,2021-01-09_10h55.56.063,MetaAwareness,2020.1.2,Win32,60,3CVDZS288I3O2WB6W9A4GPNAZIMFMC,A30ZF45ASY02Z6,3Q5ZZ9ZEVPIK1UE7MYSEDEQQGYD85Q,EZ5Q1,EZ5Q1,3Q5ZZ9ZEVPIK1UE7MYSEDEQQGYD85Q,3Q5ZZ9ZEVPIK1UE7MYSEDEQQGYD85Q,268121,268121,,,,,,,,,,
,,,,5,4.583,0,25,25,21,1,"a petting zoo with a couple of reindeer next to a woman in the foreground and a man bending over, facing the viewer in the background",a petting zoo with a woman in a pink dress smiling at two reindeer in the foreground and a gravelly area of ground in the background near a group of other people,wolfe1,image-008,3,35,A30ZF45ASY02Z6,2021-01-09_10h55.56.063,MetaAwareness,2020.1.2,Win32,60,3CVDZS288I3O2WB6W9A4GPNAZIMFMC,A30ZF45ASY02Z6,3Q5ZZ9ZEVPIK1UE7MYSEDEQQGYD85Q,EZ5Q1,EZ5Q1,3Q5ZZ9ZEVPIK1UE7MYSEDEQQGYD85Q,3Q5ZZ9ZEVPIK1UE7MYSEDEQQGYD85Q,268121,268121,,,,,,,,,,
,,,,2,19.766,0,26,26,272,1,"an oudoor scene of people walking among wood structures, both children and adults with a covered hill in the background and one adult standing, wearing a red backpack",a group of children and adults walking around some wooded structures in from of a low hill with one of the adults wearing a red backpack standing in  jeans to the right,wolfe1,image-118,1,35,A30ZF45ASY02Z6,2021-01-09_10h55.56.063,MetaAwareness,2020.1.2,Win32,60,3CVDZS288I3O2WB6W9A4GPNAZIMFMC,A30ZF45ASY02Z6,3Q5ZZ9ZEVPIK1UE7MYSEDEQQGYD85Q,EZ5Q1,EZ5Q1,3Q5ZZ9ZEVPIK1UE7MYSEDEQQGYD85Q,3Q5ZZ9ZEVPIK1UE7MYSEDEQQGYD85Q,268121,268121,,,,,,,,,,
,,,,4,6.506,0,27,27,42,1,people are sitting in a field for an outdoor concert with one empty blanket that no one is using,people are sitting in a field for an outdoor concert with a large patch of empty grass to the left side of the stage,wolfe1,image-014,5,35,A30ZF45ASY02Z6,2021-01-09_10h55.56.063,MetaAwareness,2020.1.2,Win32,60,3CVDZS288I3O2WB6W9A4GPNAZIMFMC,A30ZF45ASY02Z6,3Q5ZZ9ZEVPIK1UE7MYSEDEQQGYD85Q,EZ5Q1,EZ5Q1,3Q5ZZ9ZEVPIK1UE7MYSEDEQQGYD85Q,3Q5ZZ9ZEVPIK1UE7MYSEDEQQGYD85Q,268121,268121,,,,,,,,,,
,,,,5,7.593,0,28,28,32,1,an interior and exterior seating area with a large and small planter,an interior and exterior seating area with a large planter.,wolfe1,image-012,4,35,A30ZF45ASY02Z6,2021-01-09_10h55.56.063,MetaAwareness,2020.1.2,Win32,60,3CVDZS288I3O2WB6W9A4GPNAZIMFMC,A30ZF45ASY02Z6,3Q5ZZ9ZEVPIK1UE7MYSEDEQQGYD85Q,EZ5Q1,EZ5Q1,3Q5ZZ9ZEVPIK1UE7MYSEDEQQGYD85Q,3Q5ZZ9ZEVPIK1UE7MYSEDEQQGYD85Q,268121,268121,,,,,,,,,,
,,,,5,9.492,0,29,29,50,1,a man playing golf close to a small flag with three other players.,a man playing golf with three other players.,wolfe1,image-017,1,35,A30ZF45ASY02Z6,2021-01-09_10h55.56.063,MetaAwareness,2020.1.2,Win32,60,3CVDZS288I3O2WB6W9A4GPNAZIMFMC,A30ZF45ASY02Z6,3Q5ZZ9ZEVPIK1UE7MYSEDEQQGYD85Q,EZ5Q1,EZ5Q1,3Q5ZZ9ZEVPIK1UE7MYSEDEQQGYD85Q,3Q5ZZ9ZEVPIK1UE7MYSEDEQQGYD85Q,268121,268121,,,,,,,,,,
,,,,,,,,,,,,,,,,35,A30ZF45ASY02Z6,2021-01-09_10h55.56.063,MetaAwareness,2020.1.2,Win32,60,3CVDZS288I3O2WB6W9A4GPNAZIMFMC,A30ZF45ASY02Z6,3Q5ZZ9ZEVPIK1UE7MYSEDEQQGYD85Q,EZ5Q1,EZ5Q1,3Q5ZZ9ZEVPIK1UE7MYSEDEQQGYD85Q,3Q5ZZ9ZEVPIK1UE7MYSEDEQQGYD85Q,268121,268121,6,5.579,someone laying underneath a blue beach umbrella on a crowded beach,someone laying underneath a blue beach umbrella on a crowded beach,same,1,19.378,members of a marching band crossing a track that all have feather plumes at the front of their hats,a cluttered and rustic looking cafe with 10 hanging lights,different
