consent_response.keys,consent_response.rt,key_resp_2.keys,key_resp_2.rt,user_resp.keys,user_resp.rt,trials.thisRepN,trials.thisTrialN,trials.thisN,trials.thisIndex,trials.ran,image_1_text,image_2_text,database,image,number,age,worker_ID,date,expName,psychopyVersion,OS,frameRate,hitId,workerId,assignmentId,a,tp_a,b,tp_b,c,tp_c,catch_same_resp.keys,catch_same_resp.rt,image_1_text_catch_same,image_2_text_catch_same,image_catch_same,catch_different_resp.keys,catch_different_resp.rt,image_1_text_catch_different,image_2_text_catch_different,image_catch_different
space,24.683925,space,129.851795,4,12.786205,0,0,0,208,1,looks like people worjing on music in a room with pianos and chairs. there is a stool with something that is blue underneath it,looks like people working on music in a room with pianos and chairs. there is a stool with something green underneath it.,wolfe1,image-096,2,26,ARVO22MUH1FUZ,2021-01-09_13h12.58.283,MetaAwareness,2020.1.2,Win32,60,32ZCLEW0B0NAS1UF7FTHCR9XXUGPJN,ARVO22MUH1FUZ,352YTHGROWGVYMB0BX3ALZDBJLLH4M,RT251,RT251,352YTHGROWGVYMB0BX3ALZDBJLLH4M,352YTHGROWGVYMB0BX3ALZDBJLLH4M,268121,268121,,,,,,,,,,
,,,,4,9.16303,0,1,1,169,1,two women outside in white chairs with two pink notebooks on the table infront of them.,two women outside in white chairs with only on pink notebook in front of them.,wolfe1,image-081,4,26,ARVO22MUH1FUZ,2021-01-09_13h12.58.283,MetaAwareness,2020.1.2,Win32,60,32ZCLEW0B0NAS1UF7FTHCR9XXUGPJN,ARVO22MUH1FUZ,352YTHGROWGVYMB0BX3ALZDBJLLH4M,RT251,RT251,352YTHGROWGVYMB0BX3ALZDBJLLH4M,352YTHGROWGVYMB0BX3ALZDBJLLH4M,268121,268121,,,,,,,,,,
,,,,1,8.954785,0,2,2,55,1,there is a blue lawn chair right beside the yellow kayak,there is open sand behind the yellow kayak,wolfe1,image-018,8,26,ARVO22MUH1FUZ,2021-01-09_13h12.58.283,MetaAwareness,2020.1.2,Win32,60,32ZCLEW0B0NAS1UF7FTHCR9XXUGPJN,ARVO22MUH1FUZ,352YTHGROWGVYMB0BX3ALZDBJLLH4M,RT251,RT251,352YTHGROWGVYMB0BX3ALZDBJLLH4M,352YTHGROWGVYMB0BX3ALZDBJLLH4M,268121,268121,,,,,,,,,,
,,,,2,6.839765,0,3,3,149,1,"in the corner of the room beside the door, there is a stack of papers",in the corner of the room there is desk without anything on it,wolfe1,image-050,4,26,ARVO22MUH1FUZ,2021-01-09_13h12.58.283,MetaAwareness,2020.1.2,Win32,60,32ZCLEW0B0NAS1UF7FTHCR9XXUGPJN,ARVO22MUH1FUZ,352YTHGROWGVYMB0BX3ALZDBJLLH4M,RT251,RT251,352YTHGROWGVYMB0BX3ALZDBJLLH4M,352YTHGROWGVYMB0BX3ALZDBJLLH4M,268121,268121,,,,,,,,,,
,,,,2,5.646565,0,4,4,332,1,a deck patio with a blue house in the background,a deck patio with a pink house in the background,wolfe1,image-136,5,26,ARVO22MUH1FUZ,2021-01-09_13h12.58.283,MetaAwareness,2020.1.2,Win32,60,32ZCLEW0B0NAS1UF7FTHCR9XXUGPJN,ARVO22MUH1FUZ,352YTHGROWGVYMB0BX3ALZDBJLLH4M,RT251,RT251,352YTHGROWGVYMB0BX3ALZDBJLLH4M,352YTHGROWGVYMB0BX3ALZDBJLLH4M,268121,268121,,,,,,,,,,
,,,,1,18.56552,0,5,5,78,1,a small window panel on the roof af an old building,the roof of a historic old building,wolfe1,image-029,1,26,ARVO22MUH1FUZ,2021-01-09_13h12.58.283,MetaAwareness,2020.1.2,Win32,60,32ZCLEW0B0NAS1UF7FTHCR9XXUGPJN,ARVO22MUH1FUZ,352YTHGROWGVYMB0BX3ALZDBJLLH4M,RT251,RT251,352YTHGROWGVYMB0BX3ALZDBJLLH4M,352YTHGROWGVYMB0BX3ALZDBJLLH4M,268121,268121,,,,,,,,,,
,,,,4,13.880205,0,6,6,85,1,a woman with badges across her chest walks alongside her fellow ranger across the street,a woman with a badge on the left side of her chest walks alongside her fellow rangers across the street,wolfe1,image-031,6,26,ARVO22MUH1FUZ,2021-01-09_13h12.58.283,MetaAwareness,2020.1.2,Win32,60,32ZCLEW0B0NAS1UF7FTHCR9XXUGPJN,ARVO22MUH1FUZ,352YTHGROWGVYMB0BX3ALZDBJLLH4M,RT251,RT251,352YTHGROWGVYMB0BX3ALZDBJLLH4M,352YTHGROWGVYMB0BX3ALZDBJLLH4M,268121,268121,,,,,,,,,,
,,,,3,4.856175,0,7,7,100,1,the wide open ocean with five sail boats and five small speed boats ahead of them.,the wide open ocean with five sail boats and four small speed boats ahead of them,wolfe1,image-035,5,26,ARVO22MUH1FUZ,2021-01-09_13h12.58.283,MetaAwareness,2020.1.2,Win32,60,32ZCLEW0B0NAS1UF7FTHCR9XXUGPJN,ARVO22MUH1FUZ,352YTHGROWGVYMB0BX3ALZDBJLLH4M,RT251,RT251,352YTHGROWGVYMB0BX3ALZDBJLLH4M,352YTHGROWGVYMB0BX3ALZDBJLLH4M,268121,268121,,,,,,,,,,
,,,,1,9.61576,0,8,8,40,1,band in no smoking area,band in available smoking area,wolfe1,image-013,4,26,ARVO22MUH1FUZ,2021-01-09_13h12.58.283,MetaAwareness,2020.1.2,Win32,60,32ZCLEW0B0NAS1UF7FTHCR9XXUGPJN,ARVO22MUH1FUZ,352YTHGROWGVYMB0BX3ALZDBJLLH4M,RT251,RT251,352YTHGROWGVYMB0BX3ALZDBJLLH4M,352YTHGROWGVYMB0BX3ALZDBJLLH4M,268121,268121,,,,,,,,,,
,,,,3,4.113555,0,9,9,129,1,a beautiful red sunset sith tiny houses dotting the light green covering of grass and snow tipped mountains in the back and one tiny house on the left,"a sunset with soft green grass covering in the foreground, snow tipped mountains and a lake in the foreground and a spot of green grass on the left of some of the houses",wolfe1,image-044,2,26,ARVO22MUH1FUZ,2021-01-09_13h12.58.283,MetaAwareness,2020.1.2,Win32,60,32ZCLEW0B0NAS1UF7FTHCR9XXUGPJN,ARVO22MUH1FUZ,352YTHGROWGVYMB0BX3ALZDBJLLH4M,RT251,RT251,352YTHGROWGVYMB0BX3ALZDBJLLH4M,352YTHGROWGVYMB0BX3ALZDBJLLH4M,268121,268121,,,,,,,,,,
,,,,4,35.583715,0,10,10,80,1,a sidewalk with a bus stop and an advertisement displayed in front of a jewelry store.,a sidewalk with a bus stop and a jewelry store.,wolfe1,image-030,1,26,ARVO22MUH1FUZ,2021-01-09_13h12.58.283,MetaAwareness,2020.1.2,Win32,60,32ZCLEW0B0NAS1UF7FTHCR9XXUGPJN,ARVO22MUH1FUZ,352YTHGROWGVYMB0BX3ALZDBJLLH4M,RT251,RT251,352YTHGROWGVYMB0BX3ALZDBJLLH4M,352YTHGROWGVYMB0BX3ALZDBJLLH4M,268121,268121,,,,,,,,,,
,,,,4,2.357055,0,11,11,153,1,"a dirtbike race with several people in the audience, one is wearing a yellow shirt","a dirt bike race with several people watching, the person wearing a yellow shirt is now wearing a green shirt.",wolfe1,image-076,6,26,ARVO22MUH1FUZ,2021-01-09_13h12.58.283,MetaAwareness,2020.1.2,Win32,60,32ZCLEW0B0NAS1UF7FTHCR9XXUGPJN,ARVO22MUH1FUZ,352YTHGROWGVYMB0BX3ALZDBJLLH4M,RT251,RT251,352YTHGROWGVYMB0BX3ALZDBJLLH4M,352YTHGROWGVYMB0BX3ALZDBJLLH4M,268121,268121,,,,,,,,,,
,,,,4,4.59894,0,12,12,192,1,"various people are seaed in outdoor tables, one of them is a woman in a pink jacket","various people are seated in outdoor tables, one of them is a woman in a purple jacket",wolfe1,image-091,1,26,ARVO22MUH1FUZ,2021-01-09_13h12.58.283,MetaAwareness,2020.1.2,Win32,60,32ZCLEW0B0NAS1UF7FTHCR9XXUGPJN,ARVO22MUH1FUZ,352YTHGROWGVYMB0BX3ALZDBJLLH4M,RT251,RT251,352YTHGROWGVYMB0BX3ALZDBJLLH4M,352YTHGROWGVYMB0BX3ALZDBJLLH4M,268121,268121,,,,,,,,,,
,,,,4,9.40541,0,13,13,239,1,a blue candle sits in a bowl with other colorful candles,a purple candle sits on a bowl with other colorful candles,wolfe1,image-107,1,26,ARVO22MUH1FUZ,2021-01-09_13h12.58.283,MetaAwareness,2020.1.2,Win32,60,32ZCLEW0B0NAS1UF7FTHCR9XXUGPJN,ARVO22MUH1FUZ,352YTHGROWGVYMB0BX3ALZDBJLLH4M,RT251,RT251,352YTHGROWGVYMB0BX3ALZDBJLLH4M,352YTHGROWGVYMB0BX3ALZDBJLLH4M,268121,268121,,,,,,,,,,
,,,,4,14.661215,0,14,14,131,1,a field in front of a scene of hills and mountains with seven rolls of hay next to some trees,a field in front of a scene of hills and mountains with six rolls of hay next to some trees,wolfe1,image-045,3,26,ARVO22MUH1FUZ,2021-01-09_13h12.58.283,MetaAwareness,2020.1.2,Win32,60,32ZCLEW0B0NAS1UF7FTHCR9XXUGPJN,ARVO22MUH1FUZ,352YTHGROWGVYMB0BX3ALZDBJLLH4M,RT251,RT251,352YTHGROWGVYMB0BX3ALZDBJLLH4M,352YTHGROWGVYMB0BX3ALZDBJLLH4M,268121,268121,,,,,,,,,,
,,,,4,3.38992,0,15,15,263,1,there is a green chair,there is a purple chair,wolfe1,image-115,2,26,ARVO22MUH1FUZ,2021-01-09_13h12.58.283,MetaAwareness,2020.1.2,Win32,60,32ZCLEW0B0NAS1UF7FTHCR9XXUGPJN,ARVO22MUH1FUZ,352YTHGROWGVYMB0BX3ALZDBJLLH4M,RT251,RT251,352YTHGROWGVYMB0BX3ALZDBJLLH4M,352YTHGROWGVYMB0BX3ALZDBJLLH4M,268121,268121,,,,,,,,,,
,,,,5,3.230475,0,16,16,23,1,"a woman pettin a deer at what appears to be a petting zoo, there is a person in all black behind her to the right.","a woman petting a deer at a zoo, there is no person dressed in all black behind her",wolfe1,image-008,5,26,ARVO22MUH1FUZ,2021-01-09_13h12.58.283,MetaAwareness,2020.1.2,Win32,60,32ZCLEW0B0NAS1UF7FTHCR9XXUGPJN,ARVO22MUH1FUZ,352YTHGROWGVYMB0BX3ALZDBJLLH4M,RT251,RT251,352YTHGROWGVYMB0BX3ALZDBJLLH4M,352YTHGROWGVYMB0BX3ALZDBJLLH4M,268121,268121,,,,,,,,,,
,,,,4,5.82137,0,17,17,185,1,a group of young children with two teachers on a day out. the teacher is holding a red cooler.,"a group of young children with two teachers on a day out, the teacher is holding a pink cooler.",wolfe1,image-088,2,26,ARVO22MUH1FUZ,2021-01-09_13h12.58.283,MetaAwareness,2020.1.2,Win32,60,32ZCLEW0B0NAS1UF7FTHCR9XXUGPJN,ARVO22MUH1FUZ,352YTHGROWGVYMB0BX3ALZDBJLLH4M,RT251,RT251,352YTHGROWGVYMB0BX3ALZDBJLLH4M,352YTHGROWGVYMB0BX3ALZDBJLLH4M,268121,268121,,,,,,,,,,
,,,,5,9.362815,0,18,18,176,1,a man with a red backpack rests with other hikers on the trail,a man with a green backpack rests with other hikers on the trail,wolfe1,image-084,2,26,ARVO22MUH1FUZ,2021-01-09_13h12.58.283,MetaAwareness,2020.1.2,Win32,60,32ZCLEW0B0NAS1UF7FTHCR9XXUGPJN,ARVO22MUH1FUZ,352YTHGROWGVYMB0BX3ALZDBJLLH4M,RT251,RT251,352YTHGROWGVYMB0BX3ALZDBJLLH4M,352YTHGROWGVYMB0BX3ALZDBJLLH4M,268121,268121,,,,,,,,,,
,,,,5,10.914135,0,19,19,274,1,"several parents, including a man with a red backpack are watching children at a playground","several parents, including a man with an orange backpack, are watching children at a playground",wolfe1,image-118,5,26,ARVO22MUH1FUZ,2021-01-09_13h12.58.283,MetaAwareness,2020.1.2,Win32,60,32ZCLEW0B0NAS1UF7FTHCR9XXUGPJN,ARVO22MUH1FUZ,352YTHGROWGVYMB0BX3ALZDBJLLH4M,RT251,RT251,352YTHGROWGVYMB0BX3ALZDBJLLH4M,352YTHGROWGVYMB0BX3ALZDBJLLH4M,268121,268121,,,,,,,,,,
,,,,5,3.732435,0,20,20,335,1,people walking near blue umbrella,people walking near yellow umbrella,wolfe1,image-137,2,26,ARVO22MUH1FUZ,2021-01-09_13h12.58.283,MetaAwareness,2020.1.2,Win32,60,32ZCLEW0B0NAS1UF7FTHCR9XXUGPJN,ARVO22MUH1FUZ,352YTHGROWGVYMB0BX3ALZDBJLLH4M,RT251,RT251,352YTHGROWGVYMB0BX3ALZDBJLLH4M,352YTHGROWGVYMB0BX3ALZDBJLLH4M,268121,268121,,,,,,,,,,
,,,,4,7.046915,0,21,21,267,1,two women help a young man prepare for a running marathon with a small building showing in the background which has reddish windows,two women help a young man prepare for a running marathon with a small building showing in the background which has black windows,wolfe1,image-116,4,26,ARVO22MUH1FUZ,2021-01-09_13h12.58.283,MetaAwareness,2020.1.2,Win32,60,32ZCLEW0B0NAS1UF7FTHCR9XXUGPJN,ARVO22MUH1FUZ,352YTHGROWGVYMB0BX3ALZDBJLLH4M,RT251,RT251,352YTHGROWGVYMB0BX3ALZDBJLLH4M,352YTHGROWGVYMB0BX3ALZDBJLLH4M,268121,268121,,,,,,,,,,
,,,,4,3.55219,0,22,22,331,1,a rooftop lounge area overlooking a light blue building,a rooftop lounge area overlooking a pink building,wolfe1,image-136,4,26,ARVO22MUH1FUZ,2021-01-09_13h12.58.283,MetaAwareness,2020.1.2,Win32,60,32ZCLEW0B0NAS1UF7FTHCR9XXUGPJN,ARVO22MUH1FUZ,352YTHGROWGVYMB0BX3ALZDBJLLH4M,RT251,RT251,352YTHGROWGVYMB0BX3ALZDBJLLH4M,352YTHGROWGVYMB0BX3ALZDBJLLH4M,268121,268121,,,,,,,,,,
,,,,4,4.685365,0,23,23,188,1,people sitting in a waiting area with one person wearing a blue striped shirt.,people sitting in a wating area with one person wearing a purple striped shirt.,wolfe1,image-089,3,26,ARVO22MUH1FUZ,2021-01-09_13h12.58.283,MetaAwareness,2020.1.2,Win32,60,32ZCLEW0B0NAS1UF7FTHCR9XXUGPJN,ARVO22MUH1FUZ,352YTHGROWGVYMB0BX3ALZDBJLLH4M,RT251,RT251,352YTHGROWGVYMB0BX3ALZDBJLLH4M,352YTHGROWGVYMB0BX3ALZDBJLLH4M,268121,268121,,,,,,,,,,
,,,,4,4.78151,0,24,24,273,1,large jungle gym park with parents and kids playing. one parent watches their kid wearing a red backpack,large jungle gym park with parents and kids playing. one parent watches their kid wearing a orange backpack.,wolfe1,image-118,3,26,ARVO22MUH1FUZ,2021-01-09_13h12.58.283,MetaAwareness,2020.1.2,Win32,60,32ZCLEW0B0NAS1UF7FTHCR9XXUGPJN,ARVO22MUH1FUZ,352YTHGROWGVYMB0BX3ALZDBJLLH4M,RT251,RT251,352YTHGROWGVYMB0BX3ALZDBJLLH4M,352YTHGROWGVYMB0BX3ALZDBJLLH4M,268121,268121,,,,,,,,,,
,,,,2,5.19174,0,25,25,84,1,scouts walking in a parade and a woman wearing a patch,scouts walking in a parade,wolfe1,image-031,3,26,ARVO22MUH1FUZ,2021-01-09_13h12.58.283,MetaAwareness,2020.1.2,Win32,60,32ZCLEW0B0NAS1UF7FTHCR9XXUGPJN,ARVO22MUH1FUZ,352YTHGROWGVYMB0BX3ALZDBJLLH4M,RT251,RT251,352YTHGROWGVYMB0BX3ALZDBJLLH4M,352YTHGROWGVYMB0BX3ALZDBJLLH4M,268121,268121,,,,,,,,,,
,,,,4,5.92019,0,26,26,161,1,"a mall interior, with people standing around, and a red dress visible in a storefront window on the upper floor","a mall interior, with people standing around, and a purple dress visible in a storefront window on the upper floor",wolfe1,image-079,4,26,ARVO22MUH1FUZ,2021-01-09_13h12.58.283,MetaAwareness,2020.1.2,Win32,60,32ZCLEW0B0NAS1UF7FTHCR9XXUGPJN,ARVO22MUH1FUZ,352YTHGROWGVYMB0BX3ALZDBJLLH4M,RT251,RT251,352YTHGROWGVYMB0BX3ALZDBJLLH4M,352YTHGROWGVYMB0BX3ALZDBJLLH4M,268121,268121,,,,,,,,,,
,,,,3,2.876585,0,27,27,197,1,several kids learning a dance in a school gym. a girl close to the front has on pink pants,several kids leanring a dance in a school gym. a girl close to the front has on green pants,wolfe1,image-093,6,26,ARVO22MUH1FUZ,2021-01-09_13h12.58.283,MetaAwareness,2020.1.2,Win32,60,32ZCLEW0B0NAS1UF7FTHCR9XXUGPJN,ARVO22MUH1FUZ,352YTHGROWGVYMB0BX3ALZDBJLLH4M,RT251,RT251,352YTHGROWGVYMB0BX3ALZDBJLLH4M,352YTHGROWGVYMB0BX3ALZDBJLLH4M,268121,268121,,,,,,,,,,
,,,,1,3.48954,0,28,28,106,1,a parking lot with a yellow sign.,a parking lot with no signs.,wolfe1,image-038,4,26,ARVO22MUH1FUZ,2021-01-09_13h12.58.283,MetaAwareness,2020.1.2,Win32,60,32ZCLEW0B0NAS1UF7FTHCR9XXUGPJN,ARVO22MUH1FUZ,352YTHGROWGVYMB0BX3ALZDBJLLH4M,RT251,RT251,352YTHGROWGVYMB0BX3ALZDBJLLH4M,352YTHGROWGVYMB0BX3ALZDBJLLH4M,268121,268121,,,,,,,,,,
,,,,3,4.790985,0,29,29,120,1,a palace is on display with three points on the top closest to the crowd below,a palace is on diplay with two points on the top closest to the crowd below,wolfe1,image-042,3,26,ARVO22MUH1FUZ,2021-01-09_13h12.58.283,MetaAwareness,2020.1.2,Win32,60,32ZCLEW0B0NAS1UF7FTHCR9XXUGPJN,ARVO22MUH1FUZ,352YTHGROWGVYMB0BX3ALZDBJLLH4M,RT251,RT251,352YTHGROWGVYMB0BX3ALZDBJLLH4M,352YTHGROWGVYMB0BX3ALZDBJLLH4M,268121,268121,,,,,,,,,,
,,,,,,,,,,,,,,,,26,ARVO22MUH1FUZ,2021-01-09_13h12.58.283,MetaAwareness,2020.1.2,Win32,60,32ZCLEW0B0NAS1UF7FTHCR9XXUGPJN,ARVO22MUH1FUZ,352YTHGROWGVYMB0BX3ALZDBJLLH4M,RT251,RT251,352YTHGROWGVYMB0BX3ALZDBJLLH4M,352YTHGROWGVYMB0BX3ALZDBJLLH4M,268121,268121,6,15.79227,someone laying underneath a blue beach umbrella on a crowded beach,someone laying underneath a blue beach umbrella on a crowded beach,same,2,71.147055,members of a marching band crossing a track that all have feather plumes at the front of their hats,a cluttered and rustic looking cafe with 10 hanging lights,different
