consent_response.keys,consent_response.rt,key_resp_2.keys,key_resp_2.rt,user_resp.keys,user_resp.rt,trials.thisRepN,trials.thisTrialN,trials.thisN,trials.thisIndex,trials.ran,image_1_text,image_2_text,database,image,number,age,worker_ID,date,expName,psychopyVersion,OS,frameRate,hitId,workerId,assignmentId,a,tp_a,b,tp_b,c,tp_c,catch_same_resp.keys,catch_same_resp.rt,image_1_text_catch_same,image_2_text_catch_same,image_catch_same,catch_different_resp.keys,catch_different_resp.rt,image_1_text_catch_different,image_2_text_catch_different,image_catch_different
space,4.86035,space,14.777515,4,13.26797,0,0,0,31,1,a blue bathroom that has a bottle resting on the window sill,a blue bathroom that has two bottles resting on the window sill,wolfe2,008_L_bottle,3,40,A12HZGOZQD5YK7,2021-02-18_09h43.20.252,MetaAwareness,2020.1.2,Win32,60,3M7OI89LVZRFAH64IRDMJN5LEPGC6V,A12HZGOZQD5YK7,3DZQRBDBSMIZ6Z6CMDAQF8S7INZS3C,BRZD0,BRZD0,3DZQRBDBSMIZ6Z6CMDAQF8S7INZS3C,3DZQRBDBSMIZ6Z6CMDAQF8S7INZS3C,276350,276350,,,,,,,,,,
,,,,5,15.56563,0,1,1,572,1,an office space in a loft with a bookshelf flled with books next to the desk with a flower in a light green pot,an office space in a loft with a bookshelf filled with books next to the desk,wolfe2,128_L_pot,3,40,A12HZGOZQD5YK7,2021-02-18_09h43.20.252,MetaAwareness,2020.1.2,Win32,60,3M7OI89LVZRFAH64IRDMJN5LEPGC6V,A12HZGOZQD5YK7,3DZQRBDBSMIZ6Z6CMDAQF8S7INZS3C,BRZD0,BRZD0,3DZQRBDBSMIZ6Z6CMDAQF8S7INZS3C,3DZQRBDBSMIZ6Z6CMDAQF8S7INZS3C,276350,276350,,,,,,,,,,
,,,,3,8.896965,0,2,2,256,1,a childs room with a red shelf that has nothing on it,a childs room with a red shelf that has a white car on the shelf,wolfe2,059_L_car,3,40,A12HZGOZQD5YK7,2021-02-18_09h43.20.252,MetaAwareness,2020.1.2,Win32,60,3M7OI89LVZRFAH64IRDMJN5LEPGC6V,A12HZGOZQD5YK7,3DZQRBDBSMIZ6Z6CMDAQF8S7INZS3C,BRZD0,BRZD0,3DZQRBDBSMIZ6Z6CMDAQF8S7INZS3C,3DZQRBDBSMIZ6Z6CMDAQF8S7INZS3C,276350,276350,,,,,,,,,,
,,,,5,12.184335,0,3,3,321,1,a living room decorated in shabby chic with a wrought iron coffee table and nic nacks.,a living room decorated in shabby chic with a wrought iron coffee table holding a book and nic nacks.,wolfe2,074_L_book,3,40,A12HZGOZQD5YK7,2021-02-18_09h43.20.252,MetaAwareness,2020.1.2,Win32,60,3M7OI89LVZRFAH64IRDMJN5LEPGC6V,A12HZGOZQD5YK7,3DZQRBDBSMIZ6Z6CMDAQF8S7INZS3C,BRZD0,BRZD0,3DZQRBDBSMIZ6Z6CMDAQF8S7INZS3C,3DZQRBDBSMIZ6Z6CMDAQF8S7INZS3C,276350,276350,,,,,,,,,,
,,,,6,13.906685,0,4,4,360,1,bed room with hot and pillow.  a light and class is present .  there is a televison present in the box,"a bed room with hot  and pillow, a light and class is present.  there is a television is present in the box",wolfe2,082_L_bowl,2,40,A12HZGOZQD5YK7,2021-02-18_09h43.20.252,MetaAwareness,2020.1.2,Win32,60,3M7OI89LVZRFAH64IRDMJN5LEPGC6V,A12HZGOZQD5YK7,3DZQRBDBSMIZ6Z6CMDAQF8S7INZS3C,BRZD0,BRZD0,3DZQRBDBSMIZ6Z6CMDAQF8S7INZS3C,3DZQRBDBSMIZ6Z6CMDAQF8S7INZS3C,276350,276350,,,,,,,,,,
,,,,5,9.846375,0,5,5,278,1,"a dining room with table and chairs, a window view, and one bottle under a mirror","a dining room with table and chairs, a window view, and bottles under a mirror",wolfe2,064_L_bottles,1,40,A12HZGOZQD5YK7,2021-02-18_09h43.20.252,MetaAwareness,2020.1.2,Win32,60,3M7OI89LVZRFAH64IRDMJN5LEPGC6V,A12HZGOZQD5YK7,3DZQRBDBSMIZ6Z6CMDAQF8S7INZS3C,BRZD0,BRZD0,3DZQRBDBSMIZ6Z6CMDAQF8S7INZS3C,3DZQRBDBSMIZ6Z6CMDAQF8S7INZS3C,276350,276350,,,,,,,,,,
,,,,5,12.609995,0,6,6,290,1,"a living space with a black wall, a white wall, a black chair and a white chair, and 6 wall-mounted lights","a living space with a black wall and a white wall, black furnature and white furnature, 6 wall-mounted lights, and a white decorative object",wolfe2,066_R_vase,1,40,A12HZGOZQD5YK7,2021-02-18_09h43.20.252,MetaAwareness,2020.1.2,Win32,60,3M7OI89LVZRFAH64IRDMJN5LEPGC6V,A12HZGOZQD5YK7,3DZQRBDBSMIZ6Z6CMDAQF8S7INZS3C,BRZD0,BRZD0,3DZQRBDBSMIZ6Z6CMDAQF8S7INZS3C,3DZQRBDBSMIZ6Z6CMDAQF8S7INZS3C,276350,276350,,,,,,,,,,
,,,,3,13.62834,0,7,7,348,1,a ;bathroom with only one water handle,a bathroom with two water handle,wolfe2,078_L_faucet,4,40,A12HZGOZQD5YK7,2021-02-18_09h43.20.252,MetaAwareness,2020.1.2,Win32,60,3M7OI89LVZRFAH64IRDMJN5LEPGC6V,A12HZGOZQD5YK7,3DZQRBDBSMIZ6Z6CMDAQF8S7INZS3C,BRZD0,BRZD0,3DZQRBDBSMIZ6Z6CMDAQF8S7INZS3C,3DZQRBDBSMIZ6Z6CMDAQF8S7INZS3C,276350,276350,,,,,,,,,,
,,,,2,10.91115,0,8,8,405,1,a barber shop with a picture of woman with red hair between station that has a picture of a woman with black hair on the other side of station,a barber shop with a picture of a woman with black hair between the stations,wolfe2,089_R_poster,3,40,A12HZGOZQD5YK7,2021-02-18_09h43.20.252,MetaAwareness,2020.1.2,Win32,60,3M7OI89LVZRFAH64IRDMJN5LEPGC6V,A12HZGOZQD5YK7,3DZQRBDBSMIZ6Z6CMDAQF8S7INZS3C,BRZD0,BRZD0,3DZQRBDBSMIZ6Z6CMDAQF8S7INZS3C,3DZQRBDBSMIZ6Z6CMDAQF8S7INZS3C,276350,276350,,,,,,,,,,
,,,,4,10.32904,0,9,9,227,1,an old fashioned living room with a lot of decor,"an old fashioned living room with a lot of decor, including a bird on the mantle",wolfe2,051_R_owl,6,40,A12HZGOZQD5YK7,2021-02-18_09h43.20.252,MetaAwareness,2020.1.2,Win32,60,3M7OI89LVZRFAH64IRDMJN5LEPGC6V,A12HZGOZQD5YK7,3DZQRBDBSMIZ6Z6CMDAQF8S7INZS3C,BRZD0,BRZD0,3DZQRBDBSMIZ6Z6CMDAQF8S7INZS3C,3DZQRBDBSMIZ6Z6CMDAQF8S7INZS3C,276350,276350,,,,,,,,,,
,,,,5,10.511905,0,10,10,486,1,a walk in closet with a lot of clothing and a dresser off to the side.,a walk in closer with a lot of clothing and a dresser off to the side with a little blue ball on it,wolfe2,108_L_boa,1,40,A12HZGOZQD5YK7,2021-02-18_09h43.20.252,MetaAwareness,2020.1.2,Win32,60,3M7OI89LVZRFAH64IRDMJN5LEPGC6V,A12HZGOZQD5YK7,3DZQRBDBSMIZ6Z6CMDAQF8S7INZS3C,BRZD0,BRZD0,3DZQRBDBSMIZ6Z6CMDAQF8S7INZS3C,3DZQRBDBSMIZ6Z6CMDAQF8S7INZS3C,276350,276350,,,,,,,,,,
,,,,4,9.855635,0,11,11,195,1,"shiny, bright and clean washroom","shiny, bright and clean washroom with a light inside a brown square",wolfe2,044_R_light,2,40,A12HZGOZQD5YK7,2021-02-18_09h43.20.252,MetaAwareness,2020.1.2,Win32,60,3M7OI89LVZRFAH64IRDMJN5LEPGC6V,A12HZGOZQD5YK7,3DZQRBDBSMIZ6Z6CMDAQF8S7INZS3C,BRZD0,BRZD0,3DZQRBDBSMIZ6Z6CMDAQF8S7INZS3C,3DZQRBDBSMIZ6Z6CMDAQF8S7INZS3C,276350,276350,,,,,,,,,,
,,,,3,7.159215,0,12,12,200,1,hotel room with yellow accent furniture,hotel room with yellow accent furniture. there is an ipod charger and speaker on the nightstand,wolfe2,045_L_musicdock,4,40,A12HZGOZQD5YK7,2021-02-18_09h43.20.252,MetaAwareness,2020.1.2,Win32,60,3M7OI89LVZRFAH64IRDMJN5LEPGC6V,A12HZGOZQD5YK7,3DZQRBDBSMIZ6Z6CMDAQF8S7INZS3C,BRZD0,BRZD0,3DZQRBDBSMIZ6Z6CMDAQF8S7INZS3C,3DZQRBDBSMIZ6Z6CMDAQF8S7INZS3C,276350,276350,,,,,,,,,,
,,,,1,15.869945,0,13,13,132,1,there is a gap between two countertops in this bathroom,there is a lower countertop that connects two countertops in this bathroom,wolfe2,030_R_drawer,4,40,A12HZGOZQD5YK7,2021-02-18_09h43.20.252,MetaAwareness,2020.1.2,Win32,60,3M7OI89LVZRFAH64IRDMJN5LEPGC6V,A12HZGOZQD5YK7,3DZQRBDBSMIZ6Z6CMDAQF8S7INZS3C,BRZD0,BRZD0,3DZQRBDBSMIZ6Z6CMDAQF8S7INZS3C,3DZQRBDBSMIZ6Z6CMDAQF8S7INZS3C,276350,276350,,,,,,,,,,
,,,,1,8.98424,0,14,14,257,1,a messy kids bedroom with nothing over top of the mirror,a messy kids bedroom with a large toy car sitting over top of the mirror,wolfe2,059_L_car,4,40,A12HZGOZQD5YK7,2021-02-18_09h43.20.252,MetaAwareness,2020.1.2,Win32,60,3M7OI89LVZRFAH64IRDMJN5LEPGC6V,A12HZGOZQD5YK7,3DZQRBDBSMIZ6Z6CMDAQF8S7INZS3C,BRZD0,BRZD0,3DZQRBDBSMIZ6Z6CMDAQF8S7INZS3C,3DZQRBDBSMIZ6Z6CMDAQF8S7INZS3C,276350,276350,,,,,,,,,,
,,,,1,5.21916,0,15,15,229,1,an empty wall,a speaker mounted on the wall undr a television set,wolfe2,052_L_speaker,2,40,A12HZGOZQD5YK7,2021-02-18_09h43.20.252,MetaAwareness,2020.1.2,Win32,60,3M7OI89LVZRFAH64IRDMJN5LEPGC6V,A12HZGOZQD5YK7,3DZQRBDBSMIZ6Z6CMDAQF8S7INZS3C,BRZD0,BRZD0,3DZQRBDBSMIZ6Z6CMDAQF8S7INZS3C,3DZQRBDBSMIZ6Z6CMDAQF8S7INZS3C,276350,276350,,,,,,,,,,
,,,,2,11.409555,0,16,16,216,1,a stylish bedroom that doesn't have any framed pictures on the walls next to the large full length mirror.,a stylish bedroom that has one framed picture on the wall next to the large full length mirror.,wolfe2,049_R_painting,4,40,A12HZGOZQD5YK7,2021-02-18_09h43.20.252,MetaAwareness,2020.1.2,Win32,60,3M7OI89LVZRFAH64IRDMJN5LEPGC6V,A12HZGOZQD5YK7,3DZQRBDBSMIZ6Z6CMDAQF8S7INZS3C,BRZD0,BRZD0,3DZQRBDBSMIZ6Z6CMDAQF8S7INZS3C,3DZQRBDBSMIZ6Z6CMDAQF8S7INZS3C,276350,276350,,,,,,,,,,
,,,,1,11.36622,0,17,17,355,1,there is a black cabinet in a sunny kitchen with white cabinets.,there is a cactus plant on the kitchen counter that is housed by white shelves.,wolfe2,080_R_plant,2,40,A12HZGOZQD5YK7,2021-02-18_09h43.20.252,MetaAwareness,2020.1.2,Win32,60,3M7OI89LVZRFAH64IRDMJN5LEPGC6V,A12HZGOZQD5YK7,3DZQRBDBSMIZ6Z6CMDAQF8S7INZS3C,BRZD0,BRZD0,3DZQRBDBSMIZ6Z6CMDAQF8S7INZS3C,3DZQRBDBSMIZ6Z6CMDAQF8S7INZS3C,276350,276350,,,,,,,,,,
,,,,5,8.658505,0,18,18,29,1,bathroom sink and mirror area with white sinks,bathroom sink and mirror area with a white dish on the white sink,wolfe2,007_R_soap,5,40,A12HZGOZQD5YK7,2021-02-18_09h43.20.252,MetaAwareness,2020.1.2,Win32,60,3M7OI89LVZRFAH64IRDMJN5LEPGC6V,A12HZGOZQD5YK7,3DZQRBDBSMIZ6Z6CMDAQF8S7INZS3C,BRZD0,BRZD0,3DZQRBDBSMIZ6Z6CMDAQF8S7INZS3C,3DZQRBDBSMIZ6Z6CMDAQF8S7INZS3C,276350,276350,,,,,,,,,,
,,,,3,10.599115,0,19,19,80,1,outside view of home with some lighting missing on the patio,outside view of home with lighting on the patio,wolfe2,019_R_lamp_sized,3,40,A12HZGOZQD5YK7,2021-02-18_09h43.20.252,MetaAwareness,2020.1.2,Win32,60,3M7OI89LVZRFAH64IRDMJN5LEPGC6V,A12HZGOZQD5YK7,3DZQRBDBSMIZ6Z6CMDAQF8S7INZS3C,BRZD0,BRZD0,3DZQRBDBSMIZ6Z6CMDAQF8S7INZS3C,3DZQRBDBSMIZ6Z6CMDAQF8S7INZS3C,276350,276350,,,,,,,,,,
,,,,4,7.718165,0,20,20,474,1,a bedroom with a bed that has a hat on it.,a bedroom with a bed that doesn't have a hat on it,wolfe2,105_R_hat,4,40,A12HZGOZQD5YK7,2021-02-18_09h43.20.252,MetaAwareness,2020.1.2,Win32,60,3M7OI89LVZRFAH64IRDMJN5LEPGC6V,A12HZGOZQD5YK7,3DZQRBDBSMIZ6Z6CMDAQF8S7INZS3C,BRZD0,BRZD0,3DZQRBDBSMIZ6Z6CMDAQF8S7INZS3C,3DZQRBDBSMIZ6Z6CMDAQF8S7INZS3C,276350,276350,,,,,,,,,,
,,,,5,6.956895,0,21,21,548,1,a green cafe with 13 chairs at tables in it,a green cafe with 12 chairs at tables in it,wolfe2,122_L_chair,3,40,A12HZGOZQD5YK7,2021-02-18_09h43.20.252,MetaAwareness,2020.1.2,Win32,60,3M7OI89LVZRFAH64IRDMJN5LEPGC6V,A12HZGOZQD5YK7,3DZQRBDBSMIZ6Z6CMDAQF8S7INZS3C,BRZD0,BRZD0,3DZQRBDBSMIZ6Z6CMDAQF8S7INZS3C,3DZQRBDBSMIZ6Z6CMDAQF8S7INZS3C,276350,276350,,,,,,,,,,
,,,,5,6.239175,0,22,22,11,1,a lakeside view from a large multi-panel window,a lakeside view from a large multi-panel window that shows three ducks swimming,wolfe2,003_R_ducks,3,40,A12HZGOZQD5YK7,2021-02-18_09h43.20.252,MetaAwareness,2020.1.2,Win32,60,3M7OI89LVZRFAH64IRDMJN5LEPGC6V,A12HZGOZQD5YK7,3DZQRBDBSMIZ6Z6CMDAQF8S7INZS3C,BRZD0,BRZD0,3DZQRBDBSMIZ6Z6CMDAQF8S7INZS3C,3DZQRBDBSMIZ6Z6CMDAQF8S7INZS3C,276350,276350,,,,,,,,,,
,,,,1,9.992215,0,23,23,46,1,the white tile color scheme does not mix well with the blue tiles,the hidious bottle of perfume sits on top of the marble sink near a large bottle of pink perfume,wolfe2,011_R_parfum,4,40,A12HZGOZQD5YK7,2021-02-18_09h43.20.252,MetaAwareness,2020.1.2,Win32,60,3M7OI89LVZRFAH64IRDMJN5LEPGC6V,A12HZGOZQD5YK7,3DZQRBDBSMIZ6Z6CMDAQF8S7INZS3C,BRZD0,BRZD0,3DZQRBDBSMIZ6Z6CMDAQF8S7INZS3C,3DZQRBDBSMIZ6Z6CMDAQF8S7INZS3C,276350,276350,,,,,,,,,,
,,,,5,4.521045,0,24,24,519,1,a modern looking home with 2 trinkets sitting on the table,a modern looking home with 1 trinket sitting on the table,wolfe2,114_R_bird,1,40,A12HZGOZQD5YK7,2021-02-18_09h43.20.252,MetaAwareness,2020.1.2,Win32,60,3M7OI89LVZRFAH64IRDMJN5LEPGC6V,A12HZGOZQD5YK7,3DZQRBDBSMIZ6Z6CMDAQF8S7INZS3C,BRZD0,BRZD0,3DZQRBDBSMIZ6Z6CMDAQF8S7INZS3C,3DZQRBDBSMIZ6Z6CMDAQF8S7INZS3C,276350,276350,,,,,,,,,,
,,,,5,4.41022,0,25,25,81,1,"a small, but cozy, office space with grass garden and 2 plates on the wall","a small, but cozy, office space with grass garden and 3 plates on the wall",wolfe2,020_L_walldeco,1,40,A12HZGOZQD5YK7,2021-02-18_09h43.20.252,MetaAwareness,2020.1.2,Win32,60,3M7OI89LVZRFAH64IRDMJN5LEPGC6V,A12HZGOZQD5YK7,3DZQRBDBSMIZ6Z6CMDAQF8S7INZS3C,BRZD0,BRZD0,3DZQRBDBSMIZ6Z6CMDAQF8S7INZS3C,3DZQRBDBSMIZ6Z6CMDAQF8S7INZS3C,276350,276350,,,,,,,,,,
,,,,3,14.463125,0,26,26,144,1,there is a brass candleholder on the black shelf.  the living room has a cream colored leather couch.,there is a glass vase next to the brass candleholder on the black shelf that houses books and knick knacks,wolfe2,033_R_vase,3,40,A12HZGOZQD5YK7,2021-02-18_09h43.20.252,MetaAwareness,2020.1.2,Win32,60,3M7OI89LVZRFAH64IRDMJN5LEPGC6V,A12HZGOZQD5YK7,3DZQRBDBSMIZ6Z6CMDAQF8S7INZS3C,BRZD0,BRZD0,3DZQRBDBSMIZ6Z6CMDAQF8S7INZS3C,3DZQRBDBSMIZ6Z6CMDAQF8S7INZS3C,276350,276350,,,,,,,,,,
,,,,4,9.332525,0,27,27,462,1,bright and clean washroom with a hook on the far wall.,bright and clean washroom,wolfe2,103_R_hook,2,40,A12HZGOZQD5YK7,2021-02-18_09h43.20.252,MetaAwareness,2020.1.2,Win32,60,3M7OI89LVZRFAH64IRDMJN5LEPGC6V,A12HZGOZQD5YK7,3DZQRBDBSMIZ6Z6CMDAQF8S7INZS3C,BRZD0,BRZD0,3DZQRBDBSMIZ6Z6CMDAQF8S7INZS3C,3DZQRBDBSMIZ6Z6CMDAQF8S7INZS3C,276350,276350,,,,,,,,,,
,,,,4,6.89625,0,28,28,441,1,a hotel room with mostly white and grey furniture plus a small dark grey object lying on the floor,a hotel room with mostly white and grey furniture,wolfe2,098_R_slippers,5,40,A12HZGOZQD5YK7,2021-02-18_09h43.20.252,MetaAwareness,2020.1.2,Win32,60,3M7OI89LVZRFAH64IRDMJN5LEPGC6V,A12HZGOZQD5YK7,3DZQRBDBSMIZ6Z6CMDAQF8S7INZS3C,BRZD0,BRZD0,3DZQRBDBSMIZ6Z6CMDAQF8S7INZS3C,3DZQRBDBSMIZ6Z6CMDAQF8S7INZS3C,276350,276350,,,,,,,,,,
,,,,5,6.427435,0,29,29,541,1,a living room with white couches and a fireplace with an orchid and two decorative items,a living room with white couches and a fireplace with an orchid and one decorative item,wolfe2,120_R_art,4,40,A12HZGOZQD5YK7,2021-02-18_09h43.20.252,MetaAwareness,2020.1.2,Win32,60,3M7OI89LVZRFAH64IRDMJN5LEPGC6V,A12HZGOZQD5YK7,3DZQRBDBSMIZ6Z6CMDAQF8S7INZS3C,BRZD0,BRZD0,3DZQRBDBSMIZ6Z6CMDAQF8S7INZS3C,3DZQRBDBSMIZ6Z6CMDAQF8S7INZS3C,276350,276350,,,,,,,,,,
,,,,,,,,,,,,,,,,40,A12HZGOZQD5YK7,2021-02-18_09h43.20.252,MetaAwareness,2020.1.2,Win32,60,3M7OI89LVZRFAH64IRDMJN5LEPGC6V,A12HZGOZQD5YK7,3DZQRBDBSMIZ6Z6CMDAQF8S7INZS3C,BRZD0,BRZD0,3DZQRBDBSMIZ6Z6CMDAQF8S7INZS3C,3DZQRBDBSMIZ6Z6CMDAQF8S7INZS3C,276350,276350,6,12.478835,someone laying underneath a blue beach umbrella on a crowded beach,someone laying underneath a blue beach umbrella on a crowded beach,same,1,8.056115,members of a marching band crossing a track that all have feather plumes at the front of their hats,a cluttered and rustic looking cafe with 10 hanging lights,different
