consent_response.keys,consent_response.rt,key_resp_2.keys,key_resp_2.rt,user_resp.keys,user_resp.rt,trials.thisRepN,trials.thisTrialN,trials.thisN,trials.thisIndex,trials.ran,image_1_text,image_2_text,database,image,number,age,worker_ID,date,expName,psychopyVersion,OS,frameRate,hitId,workerId,assignmentId,a,tp_a,b,tp_b,c,tp_c,catch_same_resp.keys,catch_same_resp.rt,image_1_text_catch_same,image_2_text_catch_same,image_catch_same,catch_different_resp.keys,catch_different_resp.rt,image_1_text_catch_different,image_2_text_catch_different,image_catch_different
space,12.881,space,31.716,5,19.068,0,0,0,200,1,this is a bedroom. a night stand on the right has empty shelves.,this is a bedroom. a night stand on the right has shelves with a bowl on it.,wolfe2,082_R_bowl,9,43,A17AMTRIYI2Z2D,2021-02-18_10h18.05.132,MetaAwareness,2020.1.2,Linux x86_64,60,3ZCC2DXSD87UW4HFK2Q3Z5HXGNVYYT,A17AMTRIYI2Z2D,3HL8HNGX464CHWQ6X2B1ZMCETQQ9F4,XHLH0,XHLH0,3HL8HNGX464CHWQ6X2B1ZMCETQQ9F4,3HL8HNGX464CHWQ6X2B1ZMCETQQ9F4,276350,276350,,,,,,,,,,
,,,,3,12.524,0,1,1,105,1,a large bathroom with one light on the bathtub,a large bathroom with two lights on the bathtub,wolfe2,044_R_light,5,43,A17AMTRIYI2Z2D,2021-02-18_10h18.05.132,MetaAwareness,2020.1.2,Linux x86_64,60,3ZCC2DXSD87UW4HFK2Q3Z5HXGNVYYT,A17AMTRIYI2Z2D,3HL8HNGX464CHWQ6X2B1ZMCETQQ9F4,XHLH0,XHLH0,3HL8HNGX464CHWQ6X2B1ZMCETQQ9F4,3HL8HNGX464CHWQ6X2B1ZMCETQQ9F4,276350,276350,,,,,,,,,,
,,,,3,28.257,0,2,2,237,1,this object shows a person beauitful and the white bottle,the object shows a person beauitful and the white bottle is missing,wolfe2,095_L_candle,1,43,A17AMTRIYI2Z2D,2021-02-18_10h18.05.132,MetaAwareness,2020.1.2,Linux x86_64,60,3ZCC2DXSD87UW4HFK2Q3Z5HXGNVYYT,A17AMTRIYI2Z2D,3HL8HNGX464CHWQ6X2B1ZMCETQQ9F4,XHLH0,XHLH0,3HL8HNGX464CHWQ6X2B1ZMCETQQ9F4,3HL8HNGX464CHWQ6X2B1ZMCETQQ9F4,276350,276350,,,,,,,,,,
,,,,5,14.907,0,3,3,136,1,a colorful child's room decorated in purples and pinks with three objects on the fuzzy top table.,a colorful child's room decorated in purples and pinks with four objects on the fuzzy top table.,wolfe2,058_L_clutch,1,43,A17AMTRIYI2Z2D,2021-02-18_10h18.05.132,MetaAwareness,2020.1.2,Linux x86_64,60,3ZCC2DXSD87UW4HFK2Q3Z5HXGNVYYT,A17AMTRIYI2Z2D,3HL8HNGX464CHWQ6X2B1ZMCETQQ9F4,XHLH0,XHLH0,3HL8HNGX464CHWQ6X2B1ZMCETQQ9F4,3HL8HNGX464CHWQ6X2B1ZMCETQQ9F4,276350,276350,,,,,,,,,,
,,,,5,10.274,0,4,4,303,1,"modern living room with big glass doors, patio and 3 items on the mantle","modern living room with big glass doors, patio and 2 items on the mantle",wolfe2,120_L_art,2,43,A17AMTRIYI2Z2D,2021-02-18_10h18.05.132,MetaAwareness,2020.1.2,Linux x86_64,60,3ZCC2DXSD87UW4HFK2Q3Z5HXGNVYYT,A17AMTRIYI2Z2D,3HL8HNGX464CHWQ6X2B1ZMCETQQ9F4,XHLH0,XHLH0,3HL8HNGX464CHWQ6X2B1ZMCETQQ9F4,3HL8HNGX464CHWQ6X2B1ZMCETQQ9F4,276350,276350,,,,,,,,,,
,,,,4,15.627,0,5,5,54,1,"a light colored tiled bathroom with double sinks, a bathtub and a glass shower with a soap dish","a light colored tiled bathroom with double sinks, a bathtub and a glass shower",wolfe2,027_L_soapdish,4,43,A17AMTRIYI2Z2D,2021-02-18_10h18.05.132,MetaAwareness,2020.1.2,Linux x86_64,60,3ZCC2DXSD87UW4HFK2Q3Z5HXGNVYYT,A17AMTRIYI2Z2D,3HL8HNGX464CHWQ6X2B1ZMCETQQ9F4,XHLH0,XHLH0,3HL8HNGX464CHWQ6X2B1ZMCETQQ9F4,3HL8HNGX464CHWQ6X2B1ZMCETQQ9F4,276350,276350,,,,,,,,,,
,,,,3,14.174,0,6,6,34,1,porch or covered outside area with some small plants,porch with plants and one noticable taller tree than the rest,wolfe2,018_L_plant,1,43,A17AMTRIYI2Z2D,2021-02-18_10h18.05.132,MetaAwareness,2020.1.2,Linux x86_64,60,3ZCC2DXSD87UW4HFK2Q3Z5HXGNVYYT,A17AMTRIYI2Z2D,3HL8HNGX464CHWQ6X2B1ZMCETQQ9F4,XHLH0,XHLH0,3HL8HNGX464CHWQ6X2B1ZMCETQQ9F4,3HL8HNGX464CHWQ6X2B1ZMCETQQ9F4,276350,276350,,,,,,,,,,
,,,,1,11.157,0,7,7,256,1,a hook provides a place for robes and towels in a beautiful and clean bathroom.,taupe walls work perfectly in this beautiful and clean bathroom.,wolfe2,103_L_hook,1,43,A17AMTRIYI2Z2D,2021-02-18_10h18.05.132,MetaAwareness,2020.1.2,Linux x86_64,60,3ZCC2DXSD87UW4HFK2Q3Z5HXGNVYYT,A17AMTRIYI2Z2D,3HL8HNGX464CHWQ6X2B1ZMCETQQ9F4,XHLH0,XHLH0,3HL8HNGX464CHWQ6X2B1ZMCETQQ9F4,3HL8HNGX464CHWQ6X2B1ZMCETQQ9F4,276350,276350,,,,,,,,,,
,,,,5,18.377,0,8,8,260,1,a luxurious and bright sitting area decorated with drinks and candle lights,a luxurious and bright sitting area decorated with candle lights and empty tables,wolfe2,104_L_bottle,6,43,A17AMTRIYI2Z2D,2021-02-18_10h18.05.132,MetaAwareness,2020.1.2,Linux x86_64,60,3ZCC2DXSD87UW4HFK2Q3Z5HXGNVYYT,A17AMTRIYI2Z2D,3HL8HNGX464CHWQ6X2B1ZMCETQQ9F4,XHLH0,XHLH0,3HL8HNGX464CHWQ6X2B1ZMCETQQ9F4,3HL8HNGX464CHWQ6X2B1ZMCETQQ9F4,276350,276350,,,,,,,,,,
,,,,4,13.075,0,9,9,305,1,a small white bed table with a toy car and lamp on top.,a small white bed table with a lamp on top.,wolfe2,121_L_car,3,43,A17AMTRIYI2Z2D,2021-02-18_10h18.05.132,MetaAwareness,2020.1.2,Linux x86_64,60,3ZCC2DXSD87UW4HFK2Q3Z5HXGNVYYT,A17AMTRIYI2Z2D,3HL8HNGX464CHWQ6X2B1ZMCETQQ9F4,XHLH0,XHLH0,3HL8HNGX464CHWQ6X2B1ZMCETQQ9F4,3HL8HNGX464CHWQ6X2B1ZMCETQQ9F4,276350,276350,,,,,,,,,,
,,,,4,9.53,0,10,10,52,1,a bathroom with one shelf on the wall,a bathroom with two shelves on the wall,wolfe2,026_R_rack,3,43,A17AMTRIYI2Z2D,2021-02-18_10h18.05.132,MetaAwareness,2020.1.2,Linux x86_64,60,3ZCC2DXSD87UW4HFK2Q3Z5HXGNVYYT,A17AMTRIYI2Z2D,3HL8HNGX464CHWQ6X2B1ZMCETQQ9F4,XHLH0,XHLH0,3HL8HNGX464CHWQ6X2B1ZMCETQQ9F4,3HL8HNGX464CHWQ6X2B1ZMCETQQ9F4,276350,276350,,,,,,,,,,
,,,,4,26.91,0,11,11,198,1,a child's looking room with childrens toys on the floor. there is no toy in the corner by the shelf with the radio on it.,a child's looking room with childrens toys on the floor. there is a toy in the corner by the shelf with the radio on it.,wolfe2,081_R_football,2,43,A17AMTRIYI2Z2D,2021-02-18_10h18.05.132,MetaAwareness,2020.1.2,Linux x86_64,60,3ZCC2DXSD87UW4HFK2Q3Z5HXGNVYYT,A17AMTRIYI2Z2D,3HL8HNGX464CHWQ6X2B1ZMCETQQ9F4,XHLH0,XHLH0,3HL8HNGX464CHWQ6X2B1ZMCETQQ9F4,3HL8HNGX464CHWQ6X2B1ZMCETQQ9F4,276350,276350,,,,,,,,,,
,,,,5,9.99,0,12,12,89,1,in a dinning room there is a wall with two prints on the wall,in a dinning room there is a wall with three prints on the wall,wolfe2,040_L_painting,2,43,A17AMTRIYI2Z2D,2021-02-18_10h18.05.132,MetaAwareness,2020.1.2,Linux x86_64,60,3ZCC2DXSD87UW4HFK2Q3Z5HXGNVYYT,A17AMTRIYI2Z2D,3HL8HNGX464CHWQ6X2B1ZMCETQQ9F4,XHLH0,XHLH0,3HL8HNGX464CHWQ6X2B1ZMCETQQ9F4,3HL8HNGX464CHWQ6X2B1ZMCETQQ9F4,276350,276350,,,,,,,,,,
,,,,3,11.376,0,13,13,297,1,a dining room with a potted plant on the floor and a metal milk can sitting next to it.,a dining room with a potted plant on the floor and nothing sitting next to it.,wolfe2,116_R_basket,5,43,A17AMTRIYI2Z2D,2021-02-18_10h18.05.132,MetaAwareness,2020.1.2,Linux x86_64,60,3ZCC2DXSD87UW4HFK2Q3Z5HXGNVYYT,A17AMTRIYI2Z2D,3HL8HNGX464CHWQ6X2B1ZMCETQQ9F4,XHLH0,XHLH0,3HL8HNGX464CHWQ6X2B1ZMCETQQ9F4,3HL8HNGX464CHWQ6X2B1ZMCETQQ9F4,276350,276350,,,,,,,,,,
,,,,1,9.474,0,14,14,215,1,there is a large cake sitting on the kitchen counter.,there is nothing sitting on the kitchen counter.,wolfe2,086_R_book,3,43,A17AMTRIYI2Z2D,2021-02-18_10h18.05.132,MetaAwareness,2020.1.2,Linux x86_64,60,3ZCC2DXSD87UW4HFK2Q3Z5HXGNVYYT,A17AMTRIYI2Z2D,3HL8HNGX464CHWQ6X2B1ZMCETQQ9F4,XHLH0,XHLH0,3HL8HNGX464CHWQ6X2B1ZMCETQQ9F4,3HL8HNGX464CHWQ6X2B1ZMCETQQ9F4,276350,276350,,,,,,,,,,
,,,,4,11.261,0,15,15,234,1,a small hotel room with two wall outlets near the beds,a small hotel room with one wall outlet near the beds,wolfe2,093_L_switch,6,43,A17AMTRIYI2Z2D,2021-02-18_10h18.05.132,MetaAwareness,2020.1.2,Linux x86_64,60,3ZCC2DXSD87UW4HFK2Q3Z5HXGNVYYT,A17AMTRIYI2Z2D,3HL8HNGX464CHWQ6X2B1ZMCETQQ9F4,XHLH0,XHLH0,3HL8HNGX464CHWQ6X2B1ZMCETQQ9F4,3HL8HNGX464CHWQ6X2B1ZMCETQQ9F4,276350,276350,,,,,,,,,,
,,,,2,19.458,0,16,16,194,1,there is a black cabinet in a sunny kitchen with white cabinets.,there is a cactus plant on the kitchen counter that is housed by white shelves.,wolfe2,080_R_plant,2,43,A17AMTRIYI2Z2D,2021-02-18_10h18.05.132,MetaAwareness,2020.1.2,Linux x86_64,60,3ZCC2DXSD87UW4HFK2Q3Z5HXGNVYYT,A17AMTRIYI2Z2D,3HL8HNGX464CHWQ6X2B1ZMCETQQ9F4,XHLH0,XHLH0,3HL8HNGX464CHWQ6X2B1ZMCETQQ9F4,3HL8HNGX464CHWQ6X2B1ZMCETQQ9F4,276350,276350,,,,,,,,,,
,,,,3,7.741,0,17,17,146,1,a fireplace with no wood in it,a fireplace with wood in it,wolfe2,062_R_flowers,6,43,A17AMTRIYI2Z2D,2021-02-18_10h18.05.132,MetaAwareness,2020.1.2,Linux x86_64,60,3ZCC2DXSD87UW4HFK2Q3Z5HXGNVYYT,A17AMTRIYI2Z2D,3HL8HNGX464CHWQ6X2B1ZMCETQQ9F4,XHLH0,XHLH0,3HL8HNGX464CHWQ6X2B1ZMCETQQ9F4,3HL8HNGX464CHWQ6X2B1ZMCETQQ9F4,276350,276350,,,,,,,,,,
,,,,4,9.925,0,18,18,123,1,speaker is not avail,speaker is avail,wolfe2,052_R_speaker,3,43,A17AMTRIYI2Z2D,2021-02-18_10h18.05.132,MetaAwareness,2020.1.2,Linux x86_64,60,3ZCC2DXSD87UW4HFK2Q3Z5HXGNVYYT,A17AMTRIYI2Z2D,3HL8HNGX464CHWQ6X2B1ZMCETQQ9F4,XHLH0,XHLH0,3HL8HNGX464CHWQ6X2B1ZMCETQQ9F4,3HL8HNGX464CHWQ6X2B1ZMCETQQ9F4,276350,276350,,,,,,,,,,
,,,,4,10.146,0,19,19,184,1,spa like bathroom with neutral wall color,spa like bathroomwith neutral wall color and white towel fixture,wolfe2,076_R_hook,2,43,A17AMTRIYI2Z2D,2021-02-18_10h18.05.132,MetaAwareness,2020.1.2,Linux x86_64,60,3ZCC2DXSD87UW4HFK2Q3Z5HXGNVYYT,A17AMTRIYI2Z2D,3HL8HNGX464CHWQ6X2B1ZMCETQQ9F4,XHLH0,XHLH0,3HL8HNGX464CHWQ6X2B1ZMCETQQ9F4,3HL8HNGX464CHWQ6X2B1ZMCETQQ9F4,276350,276350,,,,,,,,,,
,,,,5,7.877,0,20,20,284,1,flowery couch and chair with basket,flowery couch and chair,wolfe2,112_L_basket,1,43,A17AMTRIYI2Z2D,2021-02-18_10h18.05.132,MetaAwareness,2020.1.2,Linux x86_64,60,3ZCC2DXSD87UW4HFK2Q3Z5HXGNVYYT,A17AMTRIYI2Z2D,3HL8HNGX464CHWQ6X2B1ZMCETQQ9F4,XHLH0,XHLH0,3HL8HNGX464CHWQ6X2B1ZMCETQQ9F4,3HL8HNGX464CHWQ6X2B1ZMCETQQ9F4,276350,276350,,,,,,,,,,
,,,,4,31.359,0,21,21,35,1,a red chair placed on the corner with a plant next to it.,a red chair placed on the corner.,wolfe2,018_L_plant,6,43,A17AMTRIYI2Z2D,2021-02-18_10h18.05.132,MetaAwareness,2020.1.2,Linux x86_64,60,3ZCC2DXSD87UW4HFK2Q3Z5HXGNVYYT,A17AMTRIYI2Z2D,3HL8HNGX464CHWQ6X2B1ZMCETQQ9F4,XHLH0,XHLH0,3HL8HNGX464CHWQ6X2B1ZMCETQQ9F4,3HL8HNGX464CHWQ6X2B1ZMCETQQ9F4,276350,276350,,,,,,,,,,
,,,,3,7.191,0,22,22,275,1,a walk in closet with a knick knack on top of the dresser,a walk in closet with nothing on top of a dresser,wolfe2,108_R_boa,2,43,A17AMTRIYI2Z2D,2021-02-18_10h18.05.132,MetaAwareness,2020.1.2,Linux x86_64,60,3ZCC2DXSD87UW4HFK2Q3Z5HXGNVYYT,A17AMTRIYI2Z2D,3HL8HNGX464CHWQ6X2B1ZMCETQQ9F4,XHLH0,XHLH0,3HL8HNGX464CHWQ6X2B1ZMCETQQ9F4,3HL8HNGX464CHWQ6X2B1ZMCETQQ9F4,276350,276350,,,,,,,,,,
,,,,4,13.577,0,23,23,211,1,a bathroom with an electric outlet near the sink,a bathroom that doesn't have an extra outlet by the sink,wolfe2,085_R_switchboard,5,43,A17AMTRIYI2Z2D,2021-02-18_10h18.05.132,MetaAwareness,2020.1.2,Linux x86_64,60,3ZCC2DXSD87UW4HFK2Q3Z5HXGNVYYT,A17AMTRIYI2Z2D,3HL8HNGX464CHWQ6X2B1ZMCETQQ9F4,XHLH0,XHLH0,3HL8HNGX464CHWQ6X2B1ZMCETQQ9F4,3HL8HNGX464CHWQ6X2B1ZMCETQQ9F4,276350,276350,,,,,,,,,,
,,,,5,18.026,0,24,24,160,1,high end bathroom with a tub that had flowers in it. there are two holders on thewall next to the tub,high end bathroom with a tub that has flowers in it. there are three holders on the wall next to the tub,wolfe2,068_R_faucet,4,43,A17AMTRIYI2Z2D,2021-02-18_10h18.05.132,MetaAwareness,2020.1.2,Linux x86_64,60,3ZCC2DXSD87UW4HFK2Q3Z5HXGNVYYT,A17AMTRIYI2Z2D,3HL8HNGX464CHWQ6X2B1ZMCETQQ9F4,XHLH0,XHLH0,3HL8HNGX464CHWQ6X2B1ZMCETQQ9F4,3HL8HNGX464CHWQ6X2B1ZMCETQQ9F4,276350,276350,,,,,,,,,,
,,,,4,13.993,0,25,25,202,1,"a bright bedroom with a bunk bed, a dresser system and a small kids table.","a brightly colored bedroom with bunk beds, a kids table and chairs and a dresser system with white knobs.",wolfe2,083_L_knob,2,43,A17AMTRIYI2Z2D,2021-02-18_10h18.05.132,MetaAwareness,2020.1.2,Linux x86_64,60,3ZCC2DXSD87UW4HFK2Q3Z5HXGNVYYT,A17AMTRIYI2Z2D,3HL8HNGX464CHWQ6X2B1ZMCETQQ9F4,XHLH0,XHLH0,3HL8HNGX464CHWQ6X2B1ZMCETQQ9F4,3HL8HNGX464CHWQ6X2B1ZMCETQQ9F4,276350,276350,,,,,,,,,,
,,,,3,14.078,0,26,26,131,1,a home studio or bedroom with some nice bright red colors and office,a home studio or bedroom with nice bright red colors and office but it has three rugs instead of two,wolfe2,055_R_carpet,4,43,A17AMTRIYI2Z2D,2021-02-18_10h18.05.132,MetaAwareness,2020.1.2,Linux x86_64,60,3ZCC2DXSD87UW4HFK2Q3Z5HXGNVYYT,A17AMTRIYI2Z2D,3HL8HNGX464CHWQ6X2B1ZMCETQQ9F4,XHLH0,XHLH0,3HL8HNGX464CHWQ6X2B1ZMCETQQ9F4,3HL8HNGX464CHWQ6X2B1ZMCETQQ9F4,276350,276350,,,,,,,,,,
,,,,5,30.775,0,27,27,180,1,"a kitchen ornately decorated with wood cabinets, with recessed lights in the ceiling that only cover one side of the room","a kitchen ornately decorated with wood cabinets, and with recessed lights along the edges of the ceiling",wolfe2,075_L_light,3,43,A17AMTRIYI2Z2D,2021-02-18_10h18.05.132,MetaAwareness,2020.1.2,Linux x86_64,60,3ZCC2DXSD87UW4HFK2Q3Z5HXGNVYYT,A17AMTRIYI2Z2D,3HL8HNGX464CHWQ6X2B1ZMCETQQ9F4,XHLH0,XHLH0,3HL8HNGX464CHWQ6X2B1ZMCETQQ9F4,3HL8HNGX464CHWQ6X2B1ZMCETQQ9F4,276350,276350,,,,,,,,,,
,,,,3,8.447,0,28,28,5,1,a view of a lake out a window in someone's study with no ducks on the lake,a view of a lake out a window in someone's study with three ducks swimming on the lake,wolfe2,003_R_ducks,4,43,A17AMTRIYI2Z2D,2021-02-18_10h18.05.132,MetaAwareness,2020.1.2,Linux x86_64,60,3ZCC2DXSD87UW4HFK2Q3Z5HXGNVYYT,A17AMTRIYI2Z2D,3HL8HNGX464CHWQ6X2B1ZMCETQQ9F4,XHLH0,XHLH0,3HL8HNGX464CHWQ6X2B1ZMCETQQ9F4,3HL8HNGX464CHWQ6X2B1ZMCETQQ9F4,276350,276350,,,,,,,,,,
,,,,4,9.259,0,29,29,125,1,stone feeling bathroom with a cabinet and drawer missing a pull,stone feeling bathroom with a cabinet and drawer,wolfe2,053_R_handle,1,43,A17AMTRIYI2Z2D,2021-02-18_10h18.05.132,MetaAwareness,2020.1.2,Linux x86_64,60,3ZCC2DXSD87UW4HFK2Q3Z5HXGNVYYT,A17AMTRIYI2Z2D,3HL8HNGX464CHWQ6X2B1ZMCETQQ9F4,XHLH0,XHLH0,3HL8HNGX464CHWQ6X2B1ZMCETQQ9F4,3HL8HNGX464CHWQ6X2B1ZMCETQQ9F4,276350,276350,,,,,,,,,,
,,,,,,,,,,,,,,,,43,A17AMTRIYI2Z2D,2021-02-18_10h18.05.132,MetaAwareness,2020.1.2,Linux x86_64,60,3ZCC2DXSD87UW4HFK2Q3Z5HXGNVYYT,A17AMTRIYI2Z2D,3HL8HNGX464CHWQ6X2B1ZMCETQQ9F4,XHLH0,XHLH0,3HL8HNGX464CHWQ6X2B1ZMCETQQ9F4,3HL8HNGX464CHWQ6X2B1ZMCETQQ9F4,276350,276350,6,11.241,someone laying underneath a blue beach umbrella on a crowded beach,someone laying underneath a blue beach umbrella on a crowded beach,same,1,9.076,members of a marching band crossing a track that all have feather plumes at the front of their hats,a cluttered and rustic looking cafe with 10 hanging lights,different
