consent_response.keys,consent_response.rt,key_resp_2.keys,key_resp_2.rt,user_resp.keys,user_resp.rt,trials.thisRepN,trials.thisTrialN,trials.thisN,trials.thisIndex,trials.ran,image_1_text,image_2_text,database,image,number,age,worker_ID,date,expName,psychopyVersion,OS,frameRate,hitId,workerId,assignmentId,a,tp_a,b,tp_b,c,tp_c,catch_same_resp.keys,catch_same_resp.rt,image_1_text_catch_same,image_2_text_catch_same,image_catch_same,catch_different_resp.keys,catch_different_resp.rt,image_1_text_catch_different,image_2_text_catch_different,image_catch_different
space,9.683,space,9.306,1,4.508,0,0,0,146,1,a fireplace with no wood in it,a fireplace with wood in it,wolfe2,062_R_flowers,6,36,A1IWRYUOVXAB0Z,2021-02-18_11h15.13.904,MetaAwareness,2020.1.2,Win32,60,3ZCC2DXSD87UW4HFK2Q3Z5HXGNVYYT,A1IWRYUOVXAB0Z,35USIKEBNSJ1N51PXJR2NHUL5G46NX,BIU50,BIU50,35USIKEBNSJ1N51PXJR2NHUL5G46NX,35USIKEBNSJ1N51PXJR2NHUL5G46NX,276350,276350,,,,,,,,,,
,,,,4,9.408,0,1,1,131,1,a home studio or bedroom with some nice bright red colors and office,a home studio or bedroom with nice bright red colors and office but it has three rugs instead of two,wolfe2,055_R_carpet,4,36,A1IWRYUOVXAB0Z,2021-02-18_11h15.13.904,MetaAwareness,2020.1.2,Win32,60,3ZCC2DXSD87UW4HFK2Q3Z5HXGNVYYT,A1IWRYUOVXAB0Z,35USIKEBNSJ1N51PXJR2NHUL5G46NX,BIU50,BIU50,35USIKEBNSJ1N51PXJR2NHUL5G46NX,35USIKEBNSJ1N51PXJR2NHUL5G46NX,276350,276350,,,,,,,,,,
,,,,3,9.008,0,2,2,162,1,a living room having a shelf without decorations on top of the shelf,a living room having a shelf with decorations on top of the shelf,wolfe2,069_L_things,3,36,A1IWRYUOVXAB0Z,2021-02-18_11h15.13.904,MetaAwareness,2020.1.2,Win32,60,3ZCC2DXSD87UW4HFK2Q3Z5HXGNVYYT,A1IWRYUOVXAB0Z,35USIKEBNSJ1N51PXJR2NHUL5G46NX,BIU50,BIU50,35USIKEBNSJ1N51PXJR2NHUL5G46NX,35USIKEBNSJ1N51PXJR2NHUL5G46NX,276350,276350,,,,,,,,,,
,,,,3,6.277,0,3,3,275,1,a walk in closet with a knick knack on top of the dresser,a walk in closet with nothing on top of a dresser,wolfe2,108_R_boa,2,36,A1IWRYUOVXAB0Z,2021-02-18_11h15.13.904,MetaAwareness,2020.1.2,Win32,60,3ZCC2DXSD87UW4HFK2Q3Z5HXGNVYYT,A1IWRYUOVXAB0Z,35USIKEBNSJ1N51PXJR2NHUL5G46NX,BIU50,BIU50,35USIKEBNSJ1N51PXJR2NHUL5G46NX,35USIKEBNSJ1N51PXJR2NHUL5G46NX,276350,276350,,,,,,,,,,
,,,,5,7.97,0,4,4,168,1,"it's an old styled living room with some light and dark colors, plus floral.","it's an old styled living room with some light and dark colors, plus floral and some extra flowers on the table top in the back right.",wolfe2,071_R_art,2,36,A1IWRYUOVXAB0Z,2021-02-18_11h15.13.904,MetaAwareness,2020.1.2,Win32,60,3ZCC2DXSD87UW4HFK2Q3Z5HXGNVYYT,A1IWRYUOVXAB0Z,35USIKEBNSJ1N51PXJR2NHUL5G46NX,BIU50,BIU50,35USIKEBNSJ1N51PXJR2NHUL5G46NX,35USIKEBNSJ1N51PXJR2NHUL5G46NX,276350,276350,,,,,,,,,,
,,,,2,3.595,0,5,5,205,1,nothing is on the wall,a light is on the wall,wolfe2,084_R_light,4,36,A1IWRYUOVXAB0Z,2021-02-18_11h15.13.904,MetaAwareness,2020.1.2,Win32,60,3ZCC2DXSD87UW4HFK2Q3Z5HXGNVYYT,A1IWRYUOVXAB0Z,35USIKEBNSJ1N51PXJR2NHUL5G46NX,BIU50,BIU50,35USIKEBNSJ1N51PXJR2NHUL5G46NX,35USIKEBNSJ1N51PXJR2NHUL5G46NX,276350,276350,,,,,,,,,,
,,,,5,8.443,0,6,6,14,1,a bathroom that has a large mirror and doubles sinks with an area for soap to be held,a bathroom that has a large mirror and doubles sinks with an an area for soap to be held containing a bar of soap.,wolfe2,007_R_soap,1,36,A1IWRYUOVXAB0Z,2021-02-18_11h15.13.904,MetaAwareness,2020.1.2,Win32,60,3ZCC2DXSD87UW4HFK2Q3Z5HXGNVYYT,A1IWRYUOVXAB0Z,35USIKEBNSJ1N51PXJR2NHUL5G46NX,BIU50,BIU50,35USIKEBNSJ1N51PXJR2NHUL5G46NX,35USIKEBNSJ1N51PXJR2NHUL5G46NX,276350,276350,,,,,,,,,,
,,,,4,8.218,0,7,7,176,1,a living roomwith a table with plants,a living room with plants and a book on the table,wolfe2,074_R_book,2,36,A1IWRYUOVXAB0Z,2021-02-18_11h15.13.904,MetaAwareness,2020.1.2,Win32,60,3ZCC2DXSD87UW4HFK2Q3Z5HXGNVYYT,A1IWRYUOVXAB0Z,35USIKEBNSJ1N51PXJR2NHUL5G46NX,BIU50,BIU50,35USIKEBNSJ1N51PXJR2NHUL5G46NX,35USIKEBNSJ1N51PXJR2NHUL5G46NX,276350,276350,,,,,,,,,,
,,,,5,11.009,0,8,8,170,1,"a bedroom that is furnished in white with black oak furniture, including an armoire that is missing a drawer handle in its lower left corner","a bedroom that is furnished in white with black oak furniture, including an armoire with ornate metal handles on its drawers",wolfe2,072_L_handle,5,36,A1IWRYUOVXAB0Z,2021-02-18_11h15.13.904,MetaAwareness,2020.1.2,Win32,60,3ZCC2DXSD87UW4HFK2Q3Z5HXGNVYYT,A1IWRYUOVXAB0Z,35USIKEBNSJ1N51PXJR2NHUL5G46NX,BIU50,BIU50,35USIKEBNSJ1N51PXJR2NHUL5G46NX,35USIKEBNSJ1N51PXJR2NHUL5G46NX,276350,276350,,,,,,,,,,
,,,,4,7.25,0,9,9,112,1,a very elegant bedroom witha mirrored closet and nothing hanging near the closet doors.,a very elegant bedroom with a mirrored closet and a framed picture hanging to the left of the closet doors.,wolfe2,049_L_painting,2,36,A1IWRYUOVXAB0Z,2021-02-18_11h15.13.904,MetaAwareness,2020.1.2,Win32,60,3ZCC2DXSD87UW4HFK2Q3Z5HXGNVYYT,A1IWRYUOVXAB0Z,35USIKEBNSJ1N51PXJR2NHUL5G46NX,BIU50,BIU50,35USIKEBNSJ1N51PXJR2NHUL5G46NX,35USIKEBNSJ1N51PXJR2NHUL5G46NX,276350,276350,,,,,,,,,,
,,,,1,2.908,0,10,10,182,1,there is no light on the ceiling,there is a light in the cielin,wolfe2,075_R_light,4,36,A1IWRYUOVXAB0Z,2021-02-18_11h15.13.904,MetaAwareness,2020.1.2,Win32,60,3ZCC2DXSD87UW4HFK2Q3Z5HXGNVYYT,A1IWRYUOVXAB0Z,35USIKEBNSJ1N51PXJR2NHUL5G46NX,BIU50,BIU50,35USIKEBNSJ1N51PXJR2NHUL5G46NX,35USIKEBNSJ1N51PXJR2NHUL5G46NX,276350,276350,,,,,,,,,,
,,,,5,7.318,0,11,11,1,1,"a master bedroom with green walls. on the walls are a tapestry of a swan, and a picture of nature.","a master bedroom with green walls. on the walls are a tapestry of a swan, a picture of nature, and a mirror.",wolfe2,001_L_mirror,5,36,A1IWRYUOVXAB0Z,2021-02-18_11h15.13.904,MetaAwareness,2020.1.2,Win32,60,3ZCC2DXSD87UW4HFK2Q3Z5HXGNVYYT,A1IWRYUOVXAB0Z,35USIKEBNSJ1N51PXJR2NHUL5G46NX,BIU50,BIU50,35USIKEBNSJ1N51PXJR2NHUL5G46NX,35USIKEBNSJ1N51PXJR2NHUL5G46NX,276350,276350,,,,,,,,,,
,,,,5,7.338,0,12,12,165,1,an upscale living room that has a nude color scheme and one light feature on the wall,an upscale living room that has a nude color scheme and 2 light features on the wall,wolfe2,070_L_lamp,3,36,A1IWRYUOVXAB0Z,2021-02-18_11h15.13.904,MetaAwareness,2020.1.2,Win32,60,3ZCC2DXSD87UW4HFK2Q3Z5HXGNVYYT,A1IWRYUOVXAB0Z,35USIKEBNSJ1N51PXJR2NHUL5G46NX,BIU50,BIU50,35USIKEBNSJ1N51PXJR2NHUL5G46NX,35USIKEBNSJ1N51PXJR2NHUL5G46NX,276350,276350,,,,,,,,,,
,,,,4,5.49,0,13,13,281,1,sunroom with small pot in front of large white flower pot.,sun room with nothing in front of large white flower pot.,wolfe2,111_L_pot,4,36,A1IWRYUOVXAB0Z,2021-02-18_11h15.13.904,MetaAwareness,2020.1.2,Win32,60,3ZCC2DXSD87UW4HFK2Q3Z5HXGNVYYT,A1IWRYUOVXAB0Z,35USIKEBNSJ1N51PXJR2NHUL5G46NX,BIU50,BIU50,35USIKEBNSJ1N51PXJR2NHUL5G46NX,35USIKEBNSJ1N51PXJR2NHUL5G46NX,276350,276350,,,,,,,,,,
,,,,5,9.078,0,14,14,196,1,"catch-all room with big front windows, black book shelf with clean floor","catch-all room with big front windows, black book shelf with object on the floor next to the left leg of book shelf",wolfe2,081_L_football,1,36,A1IWRYUOVXAB0Z,2021-02-18_11h15.13.904,MetaAwareness,2020.1.2,Win32,60,3ZCC2DXSD87UW4HFK2Q3Z5HXGNVYYT,A1IWRYUOVXAB0Z,35USIKEBNSJ1N51PXJR2NHUL5G46NX,BIU50,BIU50,35USIKEBNSJ1N51PXJR2NHUL5G46NX,35USIKEBNSJ1N51PXJR2NHUL5G46NX,276350,276350,,,,,,,,,,
,,,,5,6.011,0,15,15,173,1,a spacious sitting room with a table that has two plants sitting in the middle of it.,a spacious sitting room with a table that has two plants and a book sitting in the middle of it.,wolfe2,074_L_book,1,36,A1IWRYUOVXAB0Z,2021-02-18_11h15.13.904,MetaAwareness,2020.1.2,Win32,60,3ZCC2DXSD87UW4HFK2Q3Z5HXGNVYYT,A1IWRYUOVXAB0Z,35USIKEBNSJ1N51PXJR2NHUL5G46NX,BIU50,BIU50,35USIKEBNSJ1N51PXJR2NHUL5G46NX,35USIKEBNSJ1N51PXJR2NHUL5G46NX,276350,276350,,,,,,,,,,
,,,,5,6.602,0,16,16,308,1,a bright sunroom with a scenic view that has 17 potted plants inside around the jacuzzi.,a bright sunroom with a scenic view that has 16 potted plants inside around the jacuzzi.,wolfe2,123_L_pot,2,36,A1IWRYUOVXAB0Z,2021-02-18_11h15.13.904,MetaAwareness,2020.1.2,Win32,60,3ZCC2DXSD87UW4HFK2Q3Z5HXGNVYYT,A1IWRYUOVXAB0Z,35USIKEBNSJ1N51PXJR2NHUL5G46NX,BIU50,BIU50,35USIKEBNSJ1N51PXJR2NHUL5G46NX,35USIKEBNSJ1N51PXJR2NHUL5G46NX,276350,276350,,,,,,,,,,
,,,,4,10.068,0,17,17,225,1,"a hairdressers with no people in it, lots of empty black chairs, and a blue painting with something hanging above it on one of the walls","a hairdressers with no people in it, lots of empty black chairs, and a blue painting on one of the walls",wolfe2,088_R_clock,5,36,A1IWRYUOVXAB0Z,2021-02-18_11h15.13.904,MetaAwareness,2020.1.2,Win32,60,3ZCC2DXSD87UW4HFK2Q3Z5HXGNVYYT,A1IWRYUOVXAB0Z,35USIKEBNSJ1N51PXJR2NHUL5G46NX,BIU50,BIU50,35USIKEBNSJ1N51PXJR2NHUL5G46NX,35USIKEBNSJ1N51PXJR2NHUL5G46NX,276350,276350,,,,,,,,,,
,,,,3,10.017,0,18,18,233,1,a bedroom with large painting on the wall with a switch between two beds,a beautiful bedroom with a large paining on the wall and missing switch between two beds,wolfe2,093_L_switch,3,36,A1IWRYUOVXAB0Z,2021-02-18_11h15.13.904,MetaAwareness,2020.1.2,Win32,60,3ZCC2DXSD87UW4HFK2Q3Z5HXGNVYYT,A1IWRYUOVXAB0Z,35USIKEBNSJ1N51PXJR2NHUL5G46NX,BIU50,BIU50,35USIKEBNSJ1N51PXJR2NHUL5G46NX,35USIKEBNSJ1N51PXJR2NHUL5G46NX,276350,276350,,,,,,,,,,
,,,,4,5.784,0,19,19,43,1,living room with rustic feel,living room with rustic feel and remote control on table between the chairs,wolfe2,023_L_remote,3,36,A1IWRYUOVXAB0Z,2021-02-18_11h15.13.904,MetaAwareness,2020.1.2,Win32,60,3ZCC2DXSD87UW4HFK2Q3Z5HXGNVYYT,A1IWRYUOVXAB0Z,35USIKEBNSJ1N51PXJR2NHUL5G46NX,BIU50,BIU50,35USIKEBNSJ1N51PXJR2NHUL5G46NX,35USIKEBNSJ1N51PXJR2NHUL5G46NX,276350,276350,,,,,,,,,,
,,,,3,4.524,0,20,20,171,1,a dresser in a bedroom with a handle missing from the lowest right corner drawer,a dresser in a bedroom with all of it's handles on it,wolfe2,072_R_handle,2,36,A1IWRYUOVXAB0Z,2021-02-18_11h15.13.904,MetaAwareness,2020.1.2,Win32,60,3ZCC2DXSD87UW4HFK2Q3Z5HXGNVYYT,A1IWRYUOVXAB0Z,35USIKEBNSJ1N51PXJR2NHUL5G46NX,BIU50,BIU50,35USIKEBNSJ1N51PXJR2NHUL5G46NX,35USIKEBNSJ1N51PXJR2NHUL5G46NX,276350,276350,,,,,,,,,,
,,,,4,7.094,0,21,21,193,1,"a yellow kitchen with countertops and an island, there is one plant on the counter",a yellow kitchen with countertops and an island and two plants sitting on the counter,wolfe2,080_L_plant,3,36,A1IWRYUOVXAB0Z,2021-02-18_11h15.13.904,MetaAwareness,2020.1.2,Win32,60,3ZCC2DXSD87UW4HFK2Q3Z5HXGNVYYT,A1IWRYUOVXAB0Z,35USIKEBNSJ1N51PXJR2NHUL5G46NX,BIU50,BIU50,35USIKEBNSJ1N51PXJR2NHUL5G46NX,35USIKEBNSJ1N51PXJR2NHUL5G46NX,276350,276350,,,,,,,,,,
,,,,5,7.402,0,22,22,263,1,a bedroom woth glass doors,a bedroom with glass doors and a book is missing on the bed,wolfe2,105_L_hat,4,36,A1IWRYUOVXAB0Z,2021-02-18_11h15.13.904,MetaAwareness,2020.1.2,Win32,60,3ZCC2DXSD87UW4HFK2Q3Z5HXGNVYYT,A1IWRYUOVXAB0Z,35USIKEBNSJ1N51PXJR2NHUL5G46NX,BIU50,BIU50,35USIKEBNSJ1N51PXJR2NHUL5G46NX,35USIKEBNSJ1N51PXJR2NHUL5G46NX,276350,276350,,,,,,,,,,
,,,,5,6.826,0,23,23,180,1,"a kitchen ornately decorated with wood cabinets, with recessed lights in the ceiling that only cover one side of the room","a kitchen ornately decorated with wood cabinets, and with recessed lights along the edges of the ceiling",wolfe2,075_L_light,3,36,A1IWRYUOVXAB0Z,2021-02-18_11h15.13.904,MetaAwareness,2020.1.2,Win32,60,3ZCC2DXSD87UW4HFK2Q3Z5HXGNVYYT,A1IWRYUOVXAB0Z,35USIKEBNSJ1N51PXJR2NHUL5G46NX,BIU50,BIU50,35USIKEBNSJ1N51PXJR2NHUL5G46NX,35USIKEBNSJ1N51PXJR2NHUL5G46NX,276350,276350,,,,,,,,,,
,,,,5,7.105,0,24,24,232,1,a living room with a giant mirror on the wall with a white couch and fireplace with 2 candles in it,a living room with a giant mirror on the wall with a white couch and fireplace,wolfe2,092_L_candles,1,36,A1IWRYUOVXAB0Z,2021-02-18_11h15.13.904,MetaAwareness,2020.1.2,Win32,60,3ZCC2DXSD87UW4HFK2Q3Z5HXGNVYYT,A1IWRYUOVXAB0Z,35USIKEBNSJ1N51PXJR2NHUL5G46NX,BIU50,BIU50,35USIKEBNSJ1N51PXJR2NHUL5G46NX,35USIKEBNSJ1N51PXJR2NHUL5G46NX,276350,276350,,,,,,,,,,
,,,,4,2.926,0,25,25,70,1,a bathroom with a single dispenser,a bathroom with two dispenser,wolfe2,032_R_bottle,4,36,A1IWRYUOVXAB0Z,2021-02-18_11h15.13.904,MetaAwareness,2020.1.2,Win32,60,3ZCC2DXSD87UW4HFK2Q3Z5HXGNVYYT,A1IWRYUOVXAB0Z,35USIKEBNSJ1N51PXJR2NHUL5G46NX,BIU50,BIU50,35USIKEBNSJ1N51PXJR2NHUL5G46NX,35USIKEBNSJ1N51PXJR2NHUL5G46NX,276350,276350,,,,,,,,,,
,,,,4,5.62,0,26,26,0,1,"a bedroom with green panels on the walls, one of which has been left unadorned","a bedroom with green panels on the walls, one of which contains a small black-bordered mirror",wolfe2,001_L_mirror,1,36,A1IWRYUOVXAB0Z,2021-02-18_11h15.13.904,MetaAwareness,2020.1.2,Win32,60,3ZCC2DXSD87UW4HFK2Q3Z5HXGNVYYT,A1IWRYUOVXAB0Z,35USIKEBNSJ1N51PXJR2NHUL5G46NX,BIU50,BIU50,35USIKEBNSJ1N51PXJR2NHUL5G46NX,35USIKEBNSJ1N51PXJR2NHUL5G46NX,276350,276350,,,,,,,,,,
,,,,4,8.027,0,27,27,172,1,a chic black and white bedroom with a large dresser that has five drawer handles and is missing one in the bottom right,a chic black and white bedroom with a large dresser tha has six drawers,wolfe2,072_R_handle,3,36,A1IWRYUOVXAB0Z,2021-02-18_11h15.13.904,MetaAwareness,2020.1.2,Win32,60,3ZCC2DXSD87UW4HFK2Q3Z5HXGNVYYT,A1IWRYUOVXAB0Z,35USIKEBNSJ1N51PXJR2NHUL5G46NX,BIU50,BIU50,35USIKEBNSJ1N51PXJR2NHUL5G46NX,35USIKEBNSJ1N51PXJR2NHUL5G46NX,276350,276350,,,,,,,,,,
,,,,5,3.259,0,28,28,77,1,a bedroom with 2 decorations on the side table,a bedroom with 3 decorations on the side table,wolfe2,035_L_fruit,6,36,A1IWRYUOVXAB0Z,2021-02-18_11h15.13.904,MetaAwareness,2020.1.2,Win32,60,3ZCC2DXSD87UW4HFK2Q3Z5HXGNVYYT,A1IWRYUOVXAB0Z,35USIKEBNSJ1N51PXJR2NHUL5G46NX,BIU50,BIU50,35USIKEBNSJ1N51PXJR2NHUL5G46NX,35USIKEBNSJ1N51PXJR2NHUL5G46NX,276350,276350,,,,,,,,,,
,,,,5,7.384,0,29,29,198,1,a child's looking room with childrens toys on the floor. there is no toy in the corner by the shelf with the radio on it.,a child's looking room with childrens toys on the floor. there is a toy in the corner by the shelf with the radio on it.,wolfe2,081_R_football,2,36,A1IWRYUOVXAB0Z,2021-02-18_11h15.13.904,MetaAwareness,2020.1.2,Win32,60,3ZCC2DXSD87UW4HFK2Q3Z5HXGNVYYT,A1IWRYUOVXAB0Z,35USIKEBNSJ1N51PXJR2NHUL5G46NX,BIU50,BIU50,35USIKEBNSJ1N51PXJR2NHUL5G46NX,35USIKEBNSJ1N51PXJR2NHUL5G46NX,276350,276350,,,,,,,,,,
,,,,,,,,,,,,,,,,36,A1IWRYUOVXAB0Z,2021-02-18_11h15.13.904,MetaAwareness,2020.1.2,Win32,60,3ZCC2DXSD87UW4HFK2Q3Z5HXGNVYYT,A1IWRYUOVXAB0Z,35USIKEBNSJ1N51PXJR2NHUL5G46NX,BIU50,BIU50,35USIKEBNSJ1N51PXJR2NHUL5G46NX,35USIKEBNSJ1N51PXJR2NHUL5G46NX,276350,276350,6,6.751,someone laying underneath a blue beach umbrella on a crowded beach,someone laying underneath a blue beach umbrella on a crowded beach,same,1,5.424,members of a marching band crossing a track that all have feather plumes at the front of their hats,a cluttered and rustic looking cafe with 10 hanging lights,different
