consent_response.keys,consent_response.rt,key_resp_2.keys,key_resp_2.rt,user_resp.keys,user_resp.rt,trials.thisRepN,trials.thisTrialN,trials.thisN,trials.thisIndex,trials.ran,image_1_text,image_2_text,database,image,number,age,worker_ID,date,expName,psychopyVersion,OS,frameRate,hitId,workerId,assignmentId,a,tp_a,b,tp_b,c,tp_c,catch_same_resp.keys,catch_same_resp.rt,image_1_text_catch_same,image_2_text_catch_same,image_catch_same,catch_different_resp.keys,catch_different_resp.rt,image_1_text_catch_different,image_2_text_catch_different,image_catch_different
space,8.014775,space,21.271235,3,29.00041,0,0,0,220,1,an empy hair salon with lots of charis and a security camera in the corner.,an empty hair salon with lots of empty chairs but no security camera in the corner,wolfe2,088_L_clock,1,32,A1PNYLOKED8FWF,2021-02-18_10h22.11.696,MetaAwareness,2020.1.2,Win32,60,3ZCC2DXSD87UW4HFK2Q3Z5HXGNVYYT,A1PNYLOKED8FWF,37UEWGM5HUBRVHSKKKW2158EY2D1RI,5WU70,5WU70,37UEWGM5HUBRVHSKKKW2158EY2D1RI,37UEWGM5HUBRVHSKKKW2158EY2D1RI,276350,276350,,,,,,,,,,
,,,,5,18.84086,0,1,1,245,1,white bedroom with grey and orange accents has some cozy house slippers y the couch,this is a white bedroom with grey and orange accens,wolfe2,098_R_slippers,4,32,A1PNYLOKED8FWF,2021-02-18_10h22.11.696,MetaAwareness,2020.1.2,Win32,60,3ZCC2DXSD87UW4HFK2Q3Z5HXGNVYYT,A1PNYLOKED8FWF,37UEWGM5HUBRVHSKKKW2158EY2D1RI,5WU70,5WU70,37UEWGM5HUBRVHSKKKW2158EY2D1RI,37UEWGM5HUBRVHSKKKW2158EY2D1RI,276350,276350,,,,,,,,,,
,,,,3,18.312075,0,2,2,113,1,a stylish bedroom that doesn't have any framed pictures on the walls next to the large full length mirror.,a stylish bedroom that has one framed picture on the wall next to the large full length mirror.,wolfe2,049_R_painting,4,32,A1PNYLOKED8FWF,2021-02-18_10h22.11.696,MetaAwareness,2020.1.2,Win32,60,3ZCC2DXSD87UW4HFK2Q3Z5HXGNVYYT,A1PNYLOKED8FWF,37UEWGM5HUBRVHSKKKW2158EY2D1RI,5WU70,5WU70,37UEWGM5HUBRVHSKKKW2158EY2D1RI,37UEWGM5HUBRVHSKKKW2158EY2D1RI,276350,276350,,,,,,,,,,
,,,,4,14.505185,0,3,3,101,1,a modern looking bathroom with a large shower and a large tub with a light on the left front side of the tub,a modern looking bathroom with a large shower and a large tub with two lights on the front of the tub,wolfe2,044_L_light,5,32,A1PNYLOKED8FWF,2021-02-18_10h22.11.696,MetaAwareness,2020.1.2,Win32,60,3ZCC2DXSD87UW4HFK2Q3Z5HXGNVYYT,A1PNYLOKED8FWF,37UEWGM5HUBRVHSKKKW2158EY2D1RI,5WU70,5WU70,37UEWGM5HUBRVHSKKKW2158EY2D1RI,37UEWGM5HUBRVHSKKKW2158EY2D1RI,276350,276350,,,,,,,,,,
,,,,3,8.454925,0,4,4,5,1,a view of a lake out a window in someone's study with no ducks on the lake,a view of a lake out a window in someone's study with three ducks swimming on the lake,wolfe2,003_R_ducks,4,32,A1PNYLOKED8FWF,2021-02-18_10h22.11.696,MetaAwareness,2020.1.2,Win32,60,3ZCC2DXSD87UW4HFK2Q3Z5HXGNVYYT,A1PNYLOKED8FWF,37UEWGM5HUBRVHSKKKW2158EY2D1RI,5WU70,5WU70,37UEWGM5HUBRVHSKKKW2158EY2D1RI,37UEWGM5HUBRVHSKKKW2158EY2D1RI,276350,276350,,,,,,,,,,
,,,,4,20.794765,0,5,5,289,1,it seems to be a hangout area in a store with many plants and rustic scenic decorations and a lookout window to nature,"a hangout area in a store with one less plant by the large window, the area is still rustic with a nice lookout view to nature",wolfe2,113_R_plant,3,32,A1PNYLOKED8FWF,2021-02-18_10h22.11.696,MetaAwareness,2020.1.2,Win32,60,3ZCC2DXSD87UW4HFK2Q3Z5HXGNVYYT,A1PNYLOKED8FWF,37UEWGM5HUBRVHSKKKW2158EY2D1RI,5WU70,5WU70,37UEWGM5HUBRVHSKKKW2158EY2D1RI,37UEWGM5HUBRVHSKKKW2158EY2D1RI,276350,276350,,,,,,,,,,
,,,,2,11.45695,0,6,6,12,1,a spot where an object sits on nightstand,a pot sitting on a nightstand,wolfe2,006_R_vase,6,32,A1PNYLOKED8FWF,2021-02-18_10h22.11.696,MetaAwareness,2020.1.2,Win32,60,3ZCC2DXSD87UW4HFK2Q3Z5HXGNVYYT,A1PNYLOKED8FWF,37UEWGM5HUBRVHSKKKW2158EY2D1RI,5WU70,5WU70,37UEWGM5HUBRVHSKKKW2158EY2D1RI,37UEWGM5HUBRVHSKKKW2158EY2D1RI,276350,276350,,,,,,,,,,
,,,,5,9.25263,0,7,7,28,1,a restaurant with very high ceilings and three light fixtures on the upper part of the wall,a restaurant with very high ceilings and four light fixgures on the upper part of the wall,wolfe2,014_L_lamp,2,32,A1PNYLOKED8FWF,2021-02-18_10h22.11.696,MetaAwareness,2020.1.2,Win32,60,3ZCC2DXSD87UW4HFK2Q3Z5HXGNVYYT,A1PNYLOKED8FWF,37UEWGM5HUBRVHSKKKW2158EY2D1RI,5WU70,5WU70,37UEWGM5HUBRVHSKKKW2158EY2D1RI,37UEWGM5HUBRVHSKKKW2158EY2D1RI,276350,276350,,,,,,,,,,
,,,,3,12.377105,0,8,8,109,1,it is a picture of a hotel room with nothing on the bed side table.,it is a picture of a hotel room with a number of electronics on the bed side table.,wolfe2,045_R_musicdock,4,32,A1PNYLOKED8FWF,2021-02-18_10h22.11.696,MetaAwareness,2020.1.2,Win32,60,3ZCC2DXSD87UW4HFK2Q3Z5HXGNVYYT,A1PNYLOKED8FWF,37UEWGM5HUBRVHSKKKW2158EY2D1RI,5WU70,5WU70,37UEWGM5HUBRVHSKKKW2158EY2D1RI,37UEWGM5HUBRVHSKKKW2158EY2D1RI,276350,276350,,,,,,,,,,
,,,,4,11.644425,0,9,9,75,1,push and puller not  in this,push and puller has available,wolfe2,034_R_handle,3,32,A1PNYLOKED8FWF,2021-02-18_10h22.11.696,MetaAwareness,2020.1.2,Win32,60,3ZCC2DXSD87UW4HFK2Q3Z5HXGNVYYT,A1PNYLOKED8FWF,37UEWGM5HUBRVHSKKKW2158EY2D1RI,5WU70,5WU70,37UEWGM5HUBRVHSKKKW2158EY2D1RI,37UEWGM5HUBRVHSKKKW2158EY2D1RI,276350,276350,,,,,,,,,,
,,,,4,13.633125,0,10,10,48,1,there is one piece of art on the right side of a shelf in the living room,there are two pieces of art on the right side of a shelf in the living room,wolfe2,025_R_vase,2,32,A1PNYLOKED8FWF,2021-02-18_10h22.11.696,MetaAwareness,2020.1.2,Win32,60,3ZCC2DXSD87UW4HFK2Q3Z5HXGNVYYT,A1PNYLOKED8FWF,37UEWGM5HUBRVHSKKKW2158EY2D1RI,5WU70,5WU70,37UEWGM5HUBRVHSKKKW2158EY2D1RI,37UEWGM5HUBRVHSKKKW2158EY2D1RI,276350,276350,,,,,,,,,,
,,,,3,7.748905,0,11,11,199,1,a closed drawer,an open end of a drawer,wolfe2,082_L_bowl,4,32,A1PNYLOKED8FWF,2021-02-18_10h22.11.696,MetaAwareness,2020.1.2,Win32,60,3ZCC2DXSD87UW4HFK2Q3Z5HXGNVYYT,A1PNYLOKED8FWF,37UEWGM5HUBRVHSKKKW2158EY2D1RI,5WU70,5WU70,37UEWGM5HUBRVHSKKKW2158EY2D1RI,37UEWGM5HUBRVHSKKKW2158EY2D1RI,276350,276350,,,,,,,,,,
,,,,4,36.0277,0,12,12,56,1,a black bathroom countertop with a metal block sitting on top,a black bathroom countertop with two metal blocks sitting on top,wolfe2,028_L_vase,3,32,A1PNYLOKED8FWF,2021-02-18_10h22.11.696,MetaAwareness,2020.1.2,Win32,60,3ZCC2DXSD87UW4HFK2Q3Z5HXGNVYYT,A1PNYLOKED8FWF,37UEWGM5HUBRVHSKKKW2158EY2D1RI,5WU70,5WU70,37UEWGM5HUBRVHSKKKW2158EY2D1RI,37UEWGM5HUBRVHSKKKW2158EY2D1RI,276350,276350,,,,,,,,,,
,,,,3,8.234745,0,13,13,222,1,wal l light has been installe on the top  of the picture,the wall light has been missing top of the picturenum,wolfe2,088_R_clock,2,32,A1PNYLOKED8FWF,2021-02-18_10h22.11.696,MetaAwareness,2020.1.2,Win32,60,3ZCC2DXSD87UW4HFK2Q3Z5HXGNVYYT,A1PNYLOKED8FWF,37UEWGM5HUBRVHSKKKW2158EY2D1RI,5WU70,5WU70,37UEWGM5HUBRVHSKKKW2158EY2D1RI,37UEWGM5HUBRVHSKKKW2158EY2D1RI,276350,276350,,,,,,,,,,
,,,,4,9.01101,0,14,14,143,1,a dining room that has one wine glass on the table,a dining room that has two wine glasses on the table,wolfe2,061_L_glass,6,32,A1PNYLOKED8FWF,2021-02-18_10h22.11.696,MetaAwareness,2020.1.2,Win32,60,3ZCC2DXSD87UW4HFK2Q3Z5HXGNVYYT,A1PNYLOKED8FWF,37UEWGM5HUBRVHSKKKW2158EY2D1RI,5WU70,5WU70,37UEWGM5HUBRVHSKKKW2158EY2D1RI,37UEWGM5HUBRVHSKKKW2158EY2D1RI,276350,276350,,,,,,,,,,
,,,,4,15.1884,0,15,15,105,1,a large bathroom with one light on the bathtub,a large bathroom with two lights on the bathtub,wolfe2,044_R_light,5,32,A1PNYLOKED8FWF,2021-02-18_10h22.11.696,MetaAwareness,2020.1.2,Win32,60,3ZCC2DXSD87UW4HFK2Q3Z5HXGNVYYT,A1PNYLOKED8FWF,37UEWGM5HUBRVHSKKKW2158EY2D1RI,5WU70,5WU70,37UEWGM5HUBRVHSKKKW2158EY2D1RI,37UEWGM5HUBRVHSKKKW2158EY2D1RI,276350,276350,,,,,,,,,,
,,,,4,14.739335,0,16,16,42,1,nice kitchen with an island. the island has two hanging lights above it,nice kitchen with an island. the island has three hanging lights above it,wolfe2,022_R_lamp,5,32,A1PNYLOKED8FWF,2021-02-18_10h22.11.696,MetaAwareness,2020.1.2,Win32,60,3ZCC2DXSD87UW4HFK2Q3Z5HXGNVYYT,A1PNYLOKED8FWF,37UEWGM5HUBRVHSKKKW2158EY2D1RI,5WU70,5WU70,37UEWGM5HUBRVHSKKKW2158EY2D1RI,37UEWGM5HUBRVHSKKKW2158EY2D1RI,276350,276350,,,,,,,,,,
,,,,4,13.24977,0,17,17,123,1,speaker is not avail,speaker is avail,wolfe2,052_R_speaker,3,32,A1PNYLOKED8FWF,2021-02-18_10h22.11.696,MetaAwareness,2020.1.2,Win32,60,3ZCC2DXSD87UW4HFK2Q3Z5HXGNVYYT,A1PNYLOKED8FWF,37UEWGM5HUBRVHSKKKW2158EY2D1RI,5WU70,5WU70,37UEWGM5HUBRVHSKKKW2158EY2D1RI,37UEWGM5HUBRVHSKKKW2158EY2D1RI,276350,276350,,,,,,,,,,
,,,,4,20.598925,0,18,18,91,1,"a nice, clean dining room with two paintings hanging above a china cabinet.","a nice, clean dining room with three paintings hanging above a china cabinet.",wolfe2,040_R_painting,4,32,A1PNYLOKED8FWF,2021-02-18_10h22.11.696,MetaAwareness,2020.1.2,Win32,60,3ZCC2DXSD87UW4HFK2Q3Z5HXGNVYYT,A1PNYLOKED8FWF,37UEWGM5HUBRVHSKKKW2158EY2D1RI,5WU70,5WU70,37UEWGM5HUBRVHSKKKW2158EY2D1RI,37UEWGM5HUBRVHSKKKW2158EY2D1RI,276350,276350,,,,,,,,,,
,,,,2,10.13816,0,19,19,181,1,i really think that this image provides a classic home.  there should really be more lights in this area but overall it looks great.,i love the extra lighting.  the whole decor is welcoming.,wolfe2,075_R_light,2,32,A1PNYLOKED8FWF,2021-02-18_10h22.11.696,MetaAwareness,2020.1.2,Win32,60,3ZCC2DXSD87UW4HFK2Q3Z5HXGNVYYT,A1PNYLOKED8FWF,37UEWGM5HUBRVHSKKKW2158EY2D1RI,5WU70,5WU70,37UEWGM5HUBRVHSKKKW2158EY2D1RI,37UEWGM5HUBRVHSKKKW2158EY2D1RI,276350,276350,,,,,,,,,,
,,,,3,8.889415,0,20,20,265,1,a bedroom with a bed that has a hat on it.,a bedroom with a bed that doesn't have a hat on it,wolfe2,105_R_hat,4,32,A1PNYLOKED8FWF,2021-02-18_10h22.11.696,MetaAwareness,2020.1.2,Win32,60,3ZCC2DXSD87UW4HFK2Q3Z5HXGNVYYT,A1PNYLOKED8FWF,37UEWGM5HUBRVHSKKKW2158EY2D1RI,5WU70,5WU70,37UEWGM5HUBRVHSKKKW2158EY2D1RI,37UEWGM5HUBRVHSKKKW2158EY2D1RI,276350,276350,,,,,,,,,,
,,,,3,16.4613,0,21,21,280,1,a house witha few of the backyard with pool. small plant in the corner of the room,a house with a view of the backyard with a pool. no plant in the corner of the room,wolfe2,110_R_plant,5,32,A1PNYLOKED8FWF,2021-02-18_10h22.11.696,MetaAwareness,2020.1.2,Win32,60,3ZCC2DXSD87UW4HFK2Q3Z5HXGNVYYT,A1PNYLOKED8FWF,37UEWGM5HUBRVHSKKKW2158EY2D1RI,5WU70,5WU70,37UEWGM5HUBRVHSKKKW2158EY2D1RI,37UEWGM5HUBRVHSKKKW2158EY2D1RI,276350,276350,,,,,,,,,,
,,,,4,17.951825,0,22,22,158,1,a modern bathroom with contrasting colors from the white walls to the brown drawers to the black tub with only a left side handle,a modern bathroom with contrasting colors from the white walls to the brown drawers to the black tub with a right side and left side handles,wolfe2,068_L_faucet,2,32,A1PNYLOKED8FWF,2021-02-18_10h22.11.696,MetaAwareness,2020.1.2,Win32,60,3ZCC2DXSD87UW4HFK2Q3Z5HXGNVYYT,A1PNYLOKED8FWF,37UEWGM5HUBRVHSKKKW2158EY2D1RI,5WU70,5WU70,37UEWGM5HUBRVHSKKKW2158EY2D1RI,37UEWGM5HUBRVHSKKKW2158EY2D1RI,276350,276350,,,,,,,,,,
,,,,4,15.97095,0,23,23,172,1,a chic black and white bedroom with a large dresser that has five drawer handles and is missing one in the bottom right,a chic black and white bedroom with a large dresser tha has six drawers,wolfe2,072_R_handle,3,32,A1PNYLOKED8FWF,2021-02-18_10h22.11.696,MetaAwareness,2020.1.2,Win32,60,3ZCC2DXSD87UW4HFK2Q3Z5HXGNVYYT,A1PNYLOKED8FWF,37UEWGM5HUBRVHSKKKW2158EY2D1RI,5WU70,5WU70,37UEWGM5HUBRVHSKKKW2158EY2D1RI,37UEWGM5HUBRVHSKKKW2158EY2D1RI,276350,276350,,,,,,,,,,
,,,,3,15.6348,0,24,24,87,1,a large view of the living room and kitchen with no vent on the ceiling,a large view of the living room and kitchen with a vent on the ceiling,wolfe2,039_R_ventilator,3,32,A1PNYLOKED8FWF,2021-02-18_10h22.11.696,MetaAwareness,2020.1.2,Win32,60,3ZCC2DXSD87UW4HFK2Q3Z5HXGNVYYT,A1PNYLOKED8FWF,37UEWGM5HUBRVHSKKKW2158EY2D1RI,5WU70,5WU70,37UEWGM5HUBRVHSKKKW2158EY2D1RI,37UEWGM5HUBRVHSKKKW2158EY2D1RI,276350,276350,,,,,,,,,,
,,,,3,15.974675,0,25,25,217,1,a very messy bathroom with a crowded sink area and a large ring on the wall between the sink and toilet.,a very messy bathroom with a crowded sink area and nothing hanging on the lower left wall.,wolfe2,087_L_towelhandle,1,32,A1PNYLOKED8FWF,2021-02-18_10h22.11.696,MetaAwareness,2020.1.2,Win32,60,3ZCC2DXSD87UW4HFK2Q3Z5HXGNVYYT,A1PNYLOKED8FWF,37UEWGM5HUBRVHSKKKW2158EY2D1RI,5WU70,5WU70,37UEWGM5HUBRVHSKKKW2158EY2D1RI,37UEWGM5HUBRVHSKKKW2158EY2D1RI,276350,276350,,,,,,,,,,
,,,,3,5.29062,0,26,26,134,1,an empty library with a clear walk way,an empty library with a trash can in the walk way,wolfe2,057_L_bin,2,32,A1PNYLOKED8FWF,2021-02-18_10h22.11.696,MetaAwareness,2020.1.2,Win32,60,3ZCC2DXSD87UW4HFK2Q3Z5HXGNVYYT,A1PNYLOKED8FWF,37UEWGM5HUBRVHSKKKW2158EY2D1RI,5WU70,5WU70,37UEWGM5HUBRVHSKKKW2158EY2D1RI,37UEWGM5HUBRVHSKKKW2158EY2D1RI,276350,276350,,,,,,,,,,
,,,,3,7.395625,0,27,27,259,1,a restaurant that has food on one of the tables,a restaurant that does not have food on any of the tables,wolfe2,104_L_bottle,5,32,A1PNYLOKED8FWF,2021-02-18_10h22.11.696,MetaAwareness,2020.1.2,Win32,60,3ZCC2DXSD87UW4HFK2Q3Z5HXGNVYYT,A1PNYLOKED8FWF,37UEWGM5HUBRVHSKKKW2158EY2D1RI,5WU70,5WU70,37UEWGM5HUBRVHSKKKW2158EY2D1RI,37UEWGM5HUBRVHSKKKW2158EY2D1RI,276350,276350,,,,,,,,,,
,,,,4,10.85003,0,28,28,129,1,a red decorated dorm room with 2 round rugs on the floor,a red decorated dorm room with 3 round rugs on the floor,wolfe2,055_L_carpet,4,32,A1PNYLOKED8FWF,2021-02-18_10h22.11.696,MetaAwareness,2020.1.2,Win32,60,3ZCC2DXSD87UW4HFK2Q3Z5HXGNVYYT,A1PNYLOKED8FWF,37UEWGM5HUBRVHSKKKW2158EY2D1RI,5WU70,5WU70,37UEWGM5HUBRVHSKKKW2158EY2D1RI,37UEWGM5HUBRVHSKKKW2158EY2D1RI,276350,276350,,,,,,,,,,
,,,,3,7.372525,0,29,29,7,1,a bedroom with multiple dressers and a rug with an empty nightstand,a bedroom with multiple dressers and a rug with a nightstand with a vase on it,wolfe2,006_L_vase,2,32,A1PNYLOKED8FWF,2021-02-18_10h22.11.696,MetaAwareness,2020.1.2,Win32,60,3ZCC2DXSD87UW4HFK2Q3Z5HXGNVYYT,A1PNYLOKED8FWF,37UEWGM5HUBRVHSKKKW2158EY2D1RI,5WU70,5WU70,37UEWGM5HUBRVHSKKKW2158EY2D1RI,37UEWGM5HUBRVHSKKKW2158EY2D1RI,276350,276350,,,,,,,,,,
,,,,,,,,,,,,,,,,32,A1PNYLOKED8FWF,2021-02-18_10h22.11.696,MetaAwareness,2020.1.2,Win32,60,3ZCC2DXSD87UW4HFK2Q3Z5HXGNVYYT,A1PNYLOKED8FWF,37UEWGM5HUBRVHSKKKW2158EY2D1RI,5WU70,5WU70,37UEWGM5HUBRVHSKKKW2158EY2D1RI,37UEWGM5HUBRVHSKKKW2158EY2D1RI,276350,276350,6,17.92773,someone laying underneath a blue beach umbrella on a crowded beach,someone laying underneath a blue beach umbrella on a crowded beach,same,1,7.135415,members of a marching band crossing a track that all have feather plumes at the front of their hats,a cluttered and rustic looking cafe with 10 hanging lights,different
