consent_response.keys,consent_response.rt,key_resp_2.keys,key_resp_2.rt,user_resp.keys,user_resp.rt,trials.thisRepN,trials.thisTrialN,trials.thisN,trials.thisIndex,trials.ran,image_1_text,image_2_text,database,image,number,age,worker_ID,date,expName,psychopyVersion,OS,frameRate,hitId,workerId,assignmentId,a,tp_a,b,tp_b,c,tp_c,catch_same_resp.keys,catch_same_resp.rt,image_1_text_catch_same,image_2_text_catch_same,image_catch_same,catch_different_resp.keys,catch_different_resp.rt,image_1_text_catch_different,image_2_text_catch_different,image_catch_different
space,12.4677,space,74.70444,5,17.44222,0,0,0,174,1,white living room with coffee table,white living room with coffee table and book on it,wolfe2,074_L_book,2,44,A1VZGUYVL6SHJ2,2021-02-18_11h16.02.004,MetaAwareness,2020.1.2,Win32,60,3ZCC2DXSD87UW4HFK2Q3Z5HXGNVYYT,A1VZGUYVL6SHJ2,37W3JXSD67BTTJK9V3DH2RR5X20WYD,DJW70,DJW70,37W3JXSD67BTTJK9V3DH2RR5X20WYD,37W3JXSD67BTTJK9V3DH2RR5X20WYD,276350,276350,,,,,,,,,,
,,,,6,18.81377,0,1,1,127,1,"the living room has a large bookshelf, comfortable couch, and a convenient nook in the wall.","the living room has a large bookshelf, comfortable couch, and small nook full of firewood",wolfe2,054_R_firewood,2,44,A1VZGUYVL6SHJ2,2021-02-18_11h16.02.004,MetaAwareness,2020.1.2,Win32,60,3ZCC2DXSD87UW4HFK2Q3Z5HXGNVYYT,A1VZGUYVL6SHJ2,37W3JXSD67BTTJK9V3DH2RR5X20WYD,DJW70,DJW70,37W3JXSD67BTTJK9V3DH2RR5X20WYD,37W3JXSD67BTTJK9V3DH2RR5X20WYD,276350,276350,,,,,,,,,,
,,,,5,16.832635,0,2,2,82,1,a room with table adjoining to a living room with bamboo and no art on the walls,a room with table adjoining to a living room with bamboo and wood art on the wall,wolfe2,038_L_art,4,44,A1VZGUYVL6SHJ2,2021-02-18_11h16.02.004,MetaAwareness,2020.1.2,Win32,60,3ZCC2DXSD87UW4HFK2Q3Z5HXGNVYYT,A1VZGUYVL6SHJ2,37W3JXSD67BTTJK9V3DH2RR5X20WYD,DJW70,DJW70,37W3JXSD67BTTJK9V3DH2RR5X20WYD,37W3JXSD67BTTJK9V3DH2RR5X20WYD,276350,276350,,,,,,,,,,
,,,,5,10.345055,0,3,3,103,1,"shiny, bright and clean washroom","shiny, bright and clean washroom with a light inside a brown square",wolfe2,044_R_light,2,44,A1VZGUYVL6SHJ2,2021-02-18_11h16.02.004,MetaAwareness,2020.1.2,Win32,60,3ZCC2DXSD87UW4HFK2Q3Z5HXGNVYYT,A1VZGUYVL6SHJ2,37W3JXSD67BTTJK9V3DH2RR5X20WYD,DJW70,DJW70,37W3JXSD67BTTJK9V3DH2RR5X20WYD,37W3JXSD67BTTJK9V3DH2RR5X20WYD,276350,276350,,,,,,,,,,
,,,,5,6.45325,0,4,4,91,1,"a nice, clean dining room with two paintings hanging above a china cabinet.","a nice, clean dining room with three paintings hanging above a china cabinet.",wolfe2,040_R_painting,4,44,A1VZGUYVL6SHJ2,2021-02-18_11h16.02.004,MetaAwareness,2020.1.2,Win32,60,3ZCC2DXSD87UW4HFK2Q3Z5HXGNVYYT,A1VZGUYVL6SHJ2,37W3JXSD67BTTJK9V3DH2RR5X20WYD,DJW70,DJW70,37W3JXSD67BTTJK9V3DH2RR5X20WYD,37W3JXSD67BTTJK9V3DH2RR5X20WYD,276350,276350,,,,,,,,,,
,,,,5,7.425615,0,5,5,160,1,high end bathroom with a tub that had flowers in it. there are two holders on thewall next to the tub,high end bathroom with a tub that has flowers in it. there are three holders on the wall next to the tub,wolfe2,068_R_faucet,4,44,A1VZGUYVL6SHJ2,2021-02-18_11h16.02.004,MetaAwareness,2020.1.2,Win32,60,3ZCC2DXSD87UW4HFK2Q3Z5HXGNVYYT,A1VZGUYVL6SHJ2,37W3JXSD67BTTJK9V3DH2RR5X20WYD,DJW70,DJW70,37W3JXSD67BTTJK9V3DH2RR5X20WYD,37W3JXSD67BTTJK9V3DH2RR5X20WYD,276350,276350,,,,,,,,,,
,,,,5,7.25194,0,6,6,136,1,a colorful child's room decorated in purples and pinks with three objects on the fuzzy top table.,a colorful child's room decorated in purples and pinks with four objects on the fuzzy top table.,wolfe2,058_L_clutch,1,44,A1VZGUYVL6SHJ2,2021-02-18_11h16.02.004,MetaAwareness,2020.1.2,Win32,60,3ZCC2DXSD87UW4HFK2Q3Z5HXGNVYYT,A1VZGUYVL6SHJ2,37W3JXSD67BTTJK9V3DH2RR5X20WYD,DJW70,DJW70,37W3JXSD67BTTJK9V3DH2RR5X20WYD,37W3JXSD67BTTJK9V3DH2RR5X20WYD,276350,276350,,,,,,,,,,
,,,,6,5.566815,0,7,7,293,1,a kitchen with a basket on the floor next to the door,a kitchen without a basket on the foor,wolfe2,116_L_basket,3,44,A1VZGUYVL6SHJ2,2021-02-18_11h16.02.004,MetaAwareness,2020.1.2,Win32,60,3ZCC2DXSD87UW4HFK2Q3Z5HXGNVYYT,A1VZGUYVL6SHJ2,37W3JXSD67BTTJK9V3DH2RR5X20WYD,DJW70,DJW70,37W3JXSD67BTTJK9V3DH2RR5X20WYD,37W3JXSD67BTTJK9V3DH2RR5X20WYD,276350,276350,,,,,,,,,,
,,,,5,9.71738,0,8,8,169,1,a mostly black and tan living room,a mostly black and tan living room with a unique sculture on the end table,wolfe2,071_R_art,4,44,A1VZGUYVL6SHJ2,2021-02-18_11h16.02.004,MetaAwareness,2020.1.2,Win32,60,3ZCC2DXSD87UW4HFK2Q3Z5HXGNVYYT,A1VZGUYVL6SHJ2,37W3JXSD67BTTJK9V3DH2RR5X20WYD,DJW70,DJW70,37W3JXSD67BTTJK9V3DH2RR5X20WYD,37W3JXSD67BTTJK9V3DH2RR5X20WYD,276350,276350,,,,,,,,,,
,,,,5,12.79329,0,9,9,164,1,a comfortable living area with a large mirror above the fireplace and a light sconce on the right side of the mirror,a comfortable living area with a large mirror above the fireplace and a set of light sconces on either side of the mirror,wolfe2,070_L_lamp,2,44,A1VZGUYVL6SHJ2,2021-02-18_11h16.02.004,MetaAwareness,2020.1.2,Win32,60,3ZCC2DXSD87UW4HFK2Q3Z5HXGNVYYT,A1VZGUYVL6SHJ2,37W3JXSD67BTTJK9V3DH2RR5X20WYD,DJW70,DJW70,37W3JXSD67BTTJK9V3DH2RR5X20WYD,37W3JXSD67BTTJK9V3DH2RR5X20WYD,276350,276350,,,,,,,,,,
,,,,5,19.16788,0,10,10,170,1,"a bedroom that is furnished in white with black oak furniture, including an armoire that is missing a drawer handle in its lower left corner","a bedroom that is furnished in white with black oak furniture, including an armoire with ornate metal handles on its drawers",wolfe2,072_L_handle,5,44,A1VZGUYVL6SHJ2,2021-02-18_11h16.02.004,MetaAwareness,2020.1.2,Win32,60,3ZCC2DXSD87UW4HFK2Q3Z5HXGNVYYT,A1VZGUYVL6SHJ2,37W3JXSD67BTTJK9V3DH2RR5X20WYD,DJW70,DJW70,37W3JXSD67BTTJK9V3DH2RR5X20WYD,37W3JXSD67BTTJK9V3DH2RR5X20WYD,276350,276350,,,,,,,,,,
,,,,5,4.407845,0,11,11,307,1,a green cafe with 13 chairs at tables in it,a green cafe with 12 chairs at tables in it,wolfe2,122_L_chair,3,44,A1VZGUYVL6SHJ2,2021-02-18_11h16.02.004,MetaAwareness,2020.1.2,Win32,60,3ZCC2DXSD87UW4HFK2Q3Z5HXGNVYYT,A1VZGUYVL6SHJ2,37W3JXSD67BTTJK9V3DH2RR5X20WYD,DJW70,DJW70,37W3JXSD67BTTJK9V3DH2RR5X20WYD,37W3JXSD67BTTJK9V3DH2RR5X20WYD,276350,276350,,,,,,,,,,
,,,,3,10.046245,0,12,12,166,1,the living room has cream colored carpeting and off white walls,a chandelier hangs off the wall in the cozy living room with plush furniture and cream colored carpeting,wolfe2,070_R_lamp,2,44,A1VZGUYVL6SHJ2,2021-02-18_11h16.02.004,MetaAwareness,2020.1.2,Win32,60,3ZCC2DXSD87UW4HFK2Q3Z5HXGNVYYT,A1VZGUYVL6SHJ2,37W3JXSD67BTTJK9V3DH2RR5X20WYD,DJW70,DJW70,37W3JXSD67BTTJK9V3DH2RR5X20WYD,37W3JXSD67BTTJK9V3DH2RR5X20WYD,276350,276350,,,,,,,,,,
,,,,5,6.096565,0,13,13,239,1,a living room with a mirror fireplace with three small candles set beside it,a living room with a mirror fireplace with two small candles set beside it,wolfe2,095_R_candle,2,44,A1VZGUYVL6SHJ2,2021-02-18_11h16.02.004,MetaAwareness,2020.1.2,Win32,60,3ZCC2DXSD87UW4HFK2Q3Z5HXGNVYYT,A1VZGUYVL6SHJ2,37W3JXSD67BTTJK9V3DH2RR5X20WYD,DJW70,DJW70,37W3JXSD67BTTJK9V3DH2RR5X20WYD,37W3JXSD67BTTJK9V3DH2RR5X20WYD,276350,276350,,,,,,,,,,
,,,,4,11.360985,0,14,14,282,1,"a glass-enclosed sunroom with plants, a couch, a coffee table, and pottery on the floor","a glass-enclosed sunroom with a couch, a coffee table, a chair, and a potted plant on the floor",wolfe2,111_R_pot,2,44,A1VZGUYVL6SHJ2,2021-02-18_11h16.02.004,MetaAwareness,2020.1.2,Win32,60,3ZCC2DXSD87UW4HFK2Q3Z5HXGNVYYT,A1VZGUYVL6SHJ2,37W3JXSD67BTTJK9V3DH2RR5X20WYD,DJW70,DJW70,37W3JXSD67BTTJK9V3DH2RR5X20WYD,37W3JXSD67BTTJK9V3DH2RR5X20WYD,276350,276350,,,,,,,,,,
,,,,5,9.551325,0,15,15,306,1,a sleek bedroom with a large window and a decorative item on the bedside table,a sleek bedroom with a large window and a bedside table,wolfe2,121_R_car,5,44,A1VZGUYVL6SHJ2,2021-02-18_11h16.02.004,MetaAwareness,2020.1.2,Win32,60,3ZCC2DXSD87UW4HFK2Q3Z5HXGNVYYT,A1VZGUYVL6SHJ2,37W3JXSD67BTTJK9V3DH2RR5X20WYD,DJW70,DJW70,37W3JXSD67BTTJK9V3DH2RR5X20WYD,37W3JXSD67BTTJK9V3DH2RR5X20WYD,276350,276350,,,,,,,,,,
,,,,5,5.46189,0,16,16,94,1,a kitchen with a bowl that has no items,a kitchen wit a bowel that contains some food items,wolfe2,041_R_fruit,5,44,A1VZGUYVL6SHJ2,2021-02-18_11h16.02.004,MetaAwareness,2020.1.2,Win32,60,3ZCC2DXSD87UW4HFK2Q3Z5HXGNVYYT,A1VZGUYVL6SHJ2,37W3JXSD67BTTJK9V3DH2RR5X20WYD,DJW70,DJW70,37W3JXSD67BTTJK9V3DH2RR5X20WYD,37W3JXSD67BTTJK9V3DH2RR5X20WYD,276350,276350,,,,,,,,,,
,,,,5,15.762215,0,17,17,101,1,a modern looking bathroom with a large shower and a large tub with a light on the left front side of the tub,a modern looking bathroom with a large shower and a large tub with two lights on the front of the tub,wolfe2,044_L_light,5,44,A1VZGUYVL6SHJ2,2021-02-18_11h16.02.004,MetaAwareness,2020.1.2,Win32,60,3ZCC2DXSD87UW4HFK2Q3Z5HXGNVYYT,A1VZGUYVL6SHJ2,37W3JXSD67BTTJK9V3DH2RR5X20WYD,DJW70,DJW70,37W3JXSD67BTTJK9V3DH2RR5X20WYD,37W3JXSD67BTTJK9V3DH2RR5X20WYD,276350,276350,,,,,,,,,,
,,,,5,8.892045,0,18,18,86,1,a living room that does not have any ventilation on it's ceiling.,a living room that has a fan vent on the ceiling.,wolfe2,039_R_ventilator,1,44,A1VZGUYVL6SHJ2,2021-02-18_11h16.02.004,MetaAwareness,2020.1.2,Win32,60,3ZCC2DXSD87UW4HFK2Q3Z5HXGNVYYT,A1VZGUYVL6SHJ2,37W3JXSD67BTTJK9V3DH2RR5X20WYD,DJW70,DJW70,37W3JXSD67BTTJK9V3DH2RR5X20WYD,37W3JXSD67BTTJK9V3DH2RR5X20WYD,276350,276350,,,,,,,,,,
,,,,5,6.558595,0,19,19,317,1,"a contemporary sitting room with glass walls, sofas, an occupied dog bed, and two light sconces","a contemporary sitting room with glass walls, sofas, an occupied dog bed, and one light sconce",wolfe2,127_L_light,4,44,A1VZGUYVL6SHJ2,2021-02-18_11h16.02.004,MetaAwareness,2020.1.2,Win32,60,3ZCC2DXSD87UW4HFK2Q3Z5HXGNVYYT,A1VZGUYVL6SHJ2,37W3JXSD67BTTJK9V3DH2RR5X20WYD,DJW70,DJW70,37W3JXSD67BTTJK9V3DH2RR5X20WYD,37W3JXSD67BTTJK9V3DH2RR5X20WYD,276350,276350,,,,,,,,,,
,,,,5,4.47534,0,20,20,3,1,a special event dining room with 7 napkins on the closest table,a special event dining room with 8 napkins on the closest table,wolfe2,002_L_napkin,2,44,A1VZGUYVL6SHJ2,2021-02-18_11h16.02.004,MetaAwareness,2020.1.2,Win32,60,3ZCC2DXSD87UW4HFK2Q3Z5HXGNVYYT,A1VZGUYVL6SHJ2,37W3JXSD67BTTJK9V3DH2RR5X20WYD,DJW70,DJW70,37W3JXSD67BTTJK9V3DH2RR5X20WYD,37W3JXSD67BTTJK9V3DH2RR5X20WYD,276350,276350,,,,,,,,,,
,,,,5,4.036935,0,21,21,204,1,"a living room overlooking the water, without a light fixture on the wall","a living room overlooking the water, with a light fixture on the wall",wolfe2,084_R_light,3,44,A1VZGUYVL6SHJ2,2021-02-18_11h16.02.004,MetaAwareness,2020.1.2,Win32,60,3ZCC2DXSD87UW4HFK2Q3Z5HXGNVYYT,A1VZGUYVL6SHJ2,37W3JXSD67BTTJK9V3DH2RR5X20WYD,DJW70,DJW70,37W3JXSD67BTTJK9V3DH2RR5X20WYD,37W3JXSD67BTTJK9V3DH2RR5X20WYD,276350,276350,,,,,,,,,,
,,,,5,10.577625,0,22,22,318,1,"a large modern living room with a large dog, a view of the pool, art on the walls, two sofas, and a pair of wall sconces","a large modern living room with a large dog, a view of the pool, art on the walls, two sofas, and one wall sconce",wolfe2,127_R_light,4,44,A1VZGUYVL6SHJ2,2021-02-18_11h16.02.004,MetaAwareness,2020.1.2,Win32,60,3ZCC2DXSD87UW4HFK2Q3Z5HXGNVYYT,A1VZGUYVL6SHJ2,37W3JXSD67BTTJK9V3DH2RR5X20WYD,DJW70,DJW70,37W3JXSD67BTTJK9V3DH2RR5X20WYD,37W3JXSD67BTTJK9V3DH2RR5X20WYD,276350,276350,,,,,,,,,,
,,,,1,7.59067,0,23,23,315,1,there is a pair of deodrant,the contains an empty wall,wolfe2,126_L_candles,3,44,A1VZGUYVL6SHJ2,2021-02-18_11h16.02.004,MetaAwareness,2020.1.2,Win32,60,3ZCC2DXSD87UW4HFK2Q3Z5HXGNVYYT,A1VZGUYVL6SHJ2,37W3JXSD67BTTJK9V3DH2RR5X20WYD,DJW70,DJW70,37W3JXSD67BTTJK9V3DH2RR5X20WYD,37W3JXSD67BTTJK9V3DH2RR5X20WYD,276350,276350,,,,,,,,,,
,,,,5,9.932185,0,24,24,39,1,a small office with a desk and two circular pieces of art hanging on the wall,a small office with a desk and three circular pieces of art hanging on the wall,wolfe2,020_R_walldeco,4,44,A1VZGUYVL6SHJ2,2021-02-18_11h16.02.004,MetaAwareness,2020.1.2,Win32,60,3ZCC2DXSD87UW4HFK2Q3Z5HXGNVYYT,A1VZGUYVL6SHJ2,37W3JXSD67BTTJK9V3DH2RR5X20WYD,DJW70,DJW70,37W3JXSD67BTTJK9V3DH2RR5X20WYD,37W3JXSD67BTTJK9V3DH2RR5X20WYD,276350,276350,,,,,,,,,,
,,,,5,218.405945,0,25,25,26,1,a sectioned room with a hardwood floor and one light over a seating table,a sectioned room with a hardwood floor and two lights over a seating table,wolfe2,013_L_lamp,5,44,A1VZGUYVL6SHJ2,2021-02-18_11h16.02.004,MetaAwareness,2020.1.2,Win32,60,3ZCC2DXSD87UW4HFK2Q3Z5HXGNVYYT,A1VZGUYVL6SHJ2,37W3JXSD67BTTJK9V3DH2RR5X20WYD,DJW70,DJW70,37W3JXSD67BTTJK9V3DH2RR5X20WYD,37W3JXSD67BTTJK9V3DH2RR5X20WYD,276350,276350,,,,,,,,,,
,,,,1,8.839635,0,26,26,181,1,i really think that this image provides a classic home.  there should really be more lights in this area but overall it looks great.,i love the extra lighting.  the whole decor is welcoming.,wolfe2,075_R_light,2,44,A1VZGUYVL6SHJ2,2021-02-18_11h16.02.004,MetaAwareness,2020.1.2,Win32,60,3ZCC2DXSD87UW4HFK2Q3Z5HXGNVYYT,A1VZGUYVL6SHJ2,37W3JXSD67BTTJK9V3DH2RR5X20WYD,DJW70,DJW70,37W3JXSD67BTTJK9V3DH2RR5X20WYD,37W3JXSD67BTTJK9V3DH2RR5X20WYD,276350,276350,,,,,,,,,,
,,,,5,3.16122,0,27,27,122,1,4 speakers  are available in the room,there is 5 speakers available in the room,wolfe2,052_R_speaker,1,44,A1VZGUYVL6SHJ2,2021-02-18_11h16.02.004,MetaAwareness,2020.1.2,Win32,60,3ZCC2DXSD87UW4HFK2Q3Z5HXGNVYYT,A1VZGUYVL6SHJ2,37W3JXSD67BTTJK9V3DH2RR5X20WYD,DJW70,DJW70,37W3JXSD67BTTJK9V3DH2RR5X20WYD,37W3JXSD67BTTJK9V3DH2RR5X20WYD,276350,276350,,,,,,,,,,
,,,,5,8.983265,0,28,28,258,1,a restaruaunt seating area with an extra pillow on a seat,a restaraunt seating area with a seat with only one pillow,wolfe2,104_L_bottle,4,44,A1VZGUYVL6SHJ2,2021-02-18_11h16.02.004,MetaAwareness,2020.1.2,Win32,60,3ZCC2DXSD87UW4HFK2Q3Z5HXGNVYYT,A1VZGUYVL6SHJ2,37W3JXSD67BTTJK9V3DH2RR5X20WYD,DJW70,DJW70,37W3JXSD67BTTJK9V3DH2RR5X20WYD,37W3JXSD67BTTJK9V3DH2RR5X20WYD,276350,276350,,,,,,,,,,
,,,,4,9.48566,0,29,29,226,1,a simple hair salon with decorated images of hair cuts and different individuals,a simple hair salon with minimal decor of images of hair cuts and different individuals,wolfe2,089_L_poster,3,44,A1VZGUYVL6SHJ2,2021-02-18_11h16.02.004,MetaAwareness,2020.1.2,Win32,60,3ZCC2DXSD87UW4HFK2Q3Z5HXGNVYYT,A1VZGUYVL6SHJ2,37W3JXSD67BTTJK9V3DH2RR5X20WYD,DJW70,DJW70,37W3JXSD67BTTJK9V3DH2RR5X20WYD,37W3JXSD67BTTJK9V3DH2RR5X20WYD,276350,276350,,,,,,,,,,
,,,,,,,,,,,,,,,,44,A1VZGUYVL6SHJ2,2021-02-18_11h16.02.004,MetaAwareness,2020.1.2,Win32,60,3ZCC2DXSD87UW4HFK2Q3Z5HXGNVYYT,A1VZGUYVL6SHJ2,37W3JXSD67BTTJK9V3DH2RR5X20WYD,DJW70,DJW70,37W3JXSD67BTTJK9V3DH2RR5X20WYD,37W3JXSD67BTTJK9V3DH2RR5X20WYD,276350,276350,6,9.02283,someone laying underneath a blue beach umbrella on a crowded beach,someone laying underneath a blue beach umbrella on a crowded beach,same,1,6.321805,members of a marching band crossing a track that all have feather plumes at the front of their hats,a cluttered and rustic looking cafe with 10 hanging lights,different
