consent_response.keys,consent_response.rt,key_resp_2.keys,key_resp_2.rt,user_resp.keys,user_resp.rt,trials.thisRepN,trials.thisTrialN,trials.thisN,trials.thisIndex,trials.ran,image_1_text,image_2_text,database,image,number,age,worker_ID,date,expName,psychopyVersion,OS,frameRate,hitId,workerId,assignmentId,a,tp_a,b,tp_b,c,tp_c,catch_same_resp.keys,catch_same_resp.rt,image_1_text_catch_same,image_2_text_catch_same,image_catch_same,catch_different_resp.keys,catch_different_resp.rt,image_1_text_catch_different,image_2_text_catch_different,image_catch_different
space,15.88425,space,4.136455,5,7.30408,0,0,0,176,1,a living roomwith a table with plants,a living room with plants and a book on the table,wolfe2,074_R_book,2,40,A25MG4IOG897E0,2021-02-18_10h35.40.598,MetaAwareness,2020.1.2,Win32,60,37M4O367VKLW0ZIHQXXVUDWXC8C5MT,A25MG4IOG897E0,388U7OUMF84ROS72O1S2N0P4T91R0X,M7880,M7880,388U7OUMF84ROS72O1S2N0P4T91R0X,388U7OUMF84ROS72O1S2N0P4T91R0X,276350,276350,,,,,,,,,,
,,,,4,13.11197,0,1,1,168,1,"it's an old styled living room with some light and dark colors, plus floral.","it's an old styled living room with some light and dark colors, plus floral and some extra flowers on the table top in the back right.",wolfe2,071_R_art,2,40,A25MG4IOG897E0,2021-02-18_10h35.40.598,MetaAwareness,2020.1.2,Win32,60,37M4O367VKLW0ZIHQXXVUDWXC8C5MT,A25MG4IOG897E0,388U7OUMF84ROS72O1S2N0P4T91R0X,M7880,M7880,388U7OUMF84ROS72O1S2N0P4T91R0X,388U7OUMF84ROS72O1S2N0P4T91R0X,276350,276350,,,,,,,,,,
,,,,5,14.24085,0,2,2,15,1,"a bathroom with two sinks, a mirror, multi-colored towels, and a soap dish on one of the sinks","a bathroom with two sinks, a mirror, multi-colored towels, and a soap dish for each sink",wolfe2,007_R_soap,4,40,A25MG4IOG897E0,2021-02-18_10h35.40.598,MetaAwareness,2020.1.2,Win32,60,37M4O367VKLW0ZIHQXXVUDWXC8C5MT,A25MG4IOG897E0,388U7OUMF84ROS72O1S2N0P4T91R0X,M7880,M7880,388U7OUMF84ROS72O1S2N0P4T91R0X,388U7OUMF84ROS72O1S2N0P4T91R0X,276350,276350,,,,,,,,,,
,,,,3,8.98033,0,3,3,68,1,a sunlit modern living room with one beam crossing the ceiling,a sunlit modern living room with two beams crossing the ceiling,wolfe2,031_R_log,3,40,A25MG4IOG897E0,2021-02-18_10h35.40.598,MetaAwareness,2020.1.2,Win32,60,37M4O367VKLW0ZIHQXXVUDWXC8C5MT,A25MG4IOG897E0,388U7OUMF84ROS72O1S2N0P4T91R0X,M7880,M7880,388U7OUMF84ROS72O1S2N0P4T91R0X,388U7OUMF84ROS72O1S2N0P4T91R0X,276350,276350,,,,,,,,,,
,,,,3,9.798205,0,4,4,87,1,a large view of the living room and kitchen with no vent on the ceiling,a large view of the living room and kitchen with a vent on the ceiling,wolfe2,039_R_ventilator,3,40,A25MG4IOG897E0,2021-02-18_10h35.40.598,MetaAwareness,2020.1.2,Win32,60,37M4O367VKLW0ZIHQXXVUDWXC8C5MT,A25MG4IOG897E0,388U7OUMF84ROS72O1S2N0P4T91R0X,M7880,M7880,388U7OUMF84ROS72O1S2N0P4T91R0X,388U7OUMF84ROS72O1S2N0P4T91R0X,276350,276350,,,,,,,,,,
,,,,6,20.938405,0,5,5,14,1,a bathroom that has a large mirror and doubles sinks with an area for soap to be held,a bathroom that has a large mirror and doubles sinks with an an area for soap to be held containing a bar of soap.,wolfe2,007_R_soap,1,40,A25MG4IOG897E0,2021-02-18_10h35.40.598,MetaAwareness,2020.1.2,Win32,60,37M4O367VKLW0ZIHQXXVUDWXC8C5MT,A25MG4IOG897E0,388U7OUMF84ROS72O1S2N0P4T91R0X,M7880,M7880,388U7OUMF84ROS72O1S2N0P4T91R0X,388U7OUMF84ROS72O1S2N0P4T91R0X,276350,276350,,,,,,,,,,
,,,,4,17.596865,0,6,6,292,1,there is a small statue next to the book and vases on the coffee table.,there is nothing but a book and vases on this coffee table.,wolfe2,114_R_bird,2,40,A25MG4IOG897E0,2021-02-18_10h35.40.598,MetaAwareness,2020.1.2,Win32,60,37M4O367VKLW0ZIHQXXVUDWXC8C5MT,A25MG4IOG897E0,388U7OUMF84ROS72O1S2N0P4T91R0X,M7880,M7880,388U7OUMF84ROS72O1S2N0P4T91R0X,388U7OUMF84ROS72O1S2N0P4T91R0X,276350,276350,,,,,,,,,,
,,,,3,7.04659,0,7,7,309,1,a sauna room with a plant in the left corner,a sauna room with no plant in the left corner,wolfe2,123_L_pot,4,40,A25MG4IOG897E0,2021-02-18_10h35.40.598,MetaAwareness,2020.1.2,Win32,60,37M4O367VKLW0ZIHQXXVUDWXC8C5MT,A25MG4IOG897E0,388U7OUMF84ROS72O1S2N0P4T91R0X,M7880,M7880,388U7OUMF84ROS72O1S2N0P4T91R0X,388U7OUMF84ROS72O1S2N0P4T91R0X,276350,276350,,,,,,,,,,
,,,,3,15.66888,0,8,8,263,1,a bedroom woth glass doors,a bedroom with glass doors and a book is missing on the bed,wolfe2,105_L_hat,4,40,A25MG4IOG897E0,2021-02-18_10h35.40.598,MetaAwareness,2020.1.2,Win32,60,37M4O367VKLW0ZIHQXXVUDWXC8C5MT,A25MG4IOG897E0,388U7OUMF84ROS72O1S2N0P4T91R0X,M7880,M7880,388U7OUMF84ROS72O1S2N0P4T91R0X,388U7OUMF84ROS72O1S2N0P4T91R0X,276350,276350,,,,,,,,,,
,,,,6,15.443415,0,9,9,252,1,a bathroom. there is a shelve with lots of glasses and bottes on it. on the one shelf is a red glass next two a green and red wine glasses.,"a bathroom. there is a shelf with bottls and glasses. the one shelf has a red wine glass, and green wine glass.",wolfe2,101_L_cup,1,40,A25MG4IOG897E0,2021-02-18_10h35.40.598,MetaAwareness,2020.1.2,Win32,60,37M4O367VKLW0ZIHQXXVUDWXC8C5MT,A25MG4IOG897E0,388U7OUMF84ROS72O1S2N0P4T91R0X,M7880,M7880,388U7OUMF84ROS72O1S2N0P4T91R0X,388U7OUMF84ROS72O1S2N0P4T91R0X,276350,276350,,,,,,,,,,
,,,,5,5.646925,0,10,10,4,1,a table in an upscale dining room with 7 place settings,a table in an upscale dining room with 8 place settings.,wolfe2,002_R_napkin,2,40,A25MG4IOG897E0,2021-02-18_10h35.40.598,MetaAwareness,2020.1.2,Win32,60,37M4O367VKLW0ZIHQXXVUDWXC8C5MT,A25MG4IOG897E0,388U7OUMF84ROS72O1S2N0P4T91R0X,M7880,M7880,388U7OUMF84ROS72O1S2N0P4T91R0X,388U7OUMF84ROS72O1S2N0P4T91R0X,276350,276350,,,,,,,,,,
,,,,6,8.499,0,11,11,173,1,a spacious sitting room with a table that has two plants sitting in the middle of it.,a spacious sitting room with a table that has two plants and a book sitting in the middle of it.,wolfe2,074_L_book,1,40,A25MG4IOG897E0,2021-02-18_10h35.40.598,MetaAwareness,2020.1.2,Win32,60,37M4O367VKLW0ZIHQXXVUDWXC8C5MT,A25MG4IOG897E0,388U7OUMF84ROS72O1S2N0P4T91R0X,M7880,M7880,388U7OUMF84ROS72O1S2N0P4T91R0X,388U7OUMF84ROS72O1S2N0P4T91R0X,276350,276350,,,,,,,,,,
,,,,4,4.86283,0,12,12,210,1,a bright and clean bathroom with a light switch on the wall,a bright and clean bathroom,wolfe2,085_R_switchboard,2,40,A25MG4IOG897E0,2021-02-18_10h35.40.598,MetaAwareness,2020.1.2,Win32,60,37M4O367VKLW0ZIHQXXVUDWXC8C5MT,A25MG4IOG897E0,388U7OUMF84ROS72O1S2N0P4T91R0X,M7880,M7880,388U7OUMF84ROS72O1S2N0P4T91R0X,388U7OUMF84ROS72O1S2N0P4T91R0X,276350,276350,,,,,,,,,,
,,,,1,3.634045,0,13,13,95,1,it is an empty wall,it has a water pipe,wolfe2,042_L_tap,1,40,A25MG4IOG897E0,2021-02-18_10h35.40.598,MetaAwareness,2020.1.2,Win32,60,37M4O367VKLW0ZIHQXXVUDWXC8C5MT,A25MG4IOG897E0,388U7OUMF84ROS72O1S2N0P4T91R0X,M7880,M7880,388U7OUMF84ROS72O1S2N0P4T91R0X,388U7OUMF84ROS72O1S2N0P4T91R0X,276350,276350,,,,,,,,,,
,,,,5,8.810555,0,14,14,214,1,wood like kitchen table that is set with a caserole on the counter,wood like kitchen table that is set with a bowl on the counter,wolfe2,086_R_book,2,40,A25MG4IOG897E0,2021-02-18_10h35.40.598,MetaAwareness,2020.1.2,Win32,60,37M4O367VKLW0ZIHQXXVUDWXC8C5MT,A25MG4IOG897E0,388U7OUMF84ROS72O1S2N0P4T91R0X,M7880,M7880,388U7OUMF84ROS72O1S2N0P4T91R0X,388U7OUMF84ROS72O1S2N0P4T91R0X,276350,276350,,,,,,,,,,
,,,,5,11.431455,0,15,15,277,1,"a sitting room located adjacent to a large pool containing many windows and two houseplants, one on the floor and the other on the coffee table",a sitting room located adjacent to a large pool containing many windows and one houseplant on the coffee table,wolfe2,110_L_plant,3,40,A25MG4IOG897E0,2021-02-18_10h35.40.598,MetaAwareness,2020.1.2,Win32,60,37M4O367VKLW0ZIHQXXVUDWXC8C5MT,A25MG4IOG897E0,388U7OUMF84ROS72O1S2N0P4T91R0X,M7880,M7880,388U7OUMF84ROS72O1S2N0P4T91R0X,388U7OUMF84ROS72O1S2N0P4T91R0X,276350,276350,,,,,,,,,,
,,,,6,7.0334,0,16,16,294,1,"a modern style open living area with a large table, sliding doors opening to a patio, and a plant with a basket next to it","a modern style open living area with a large table, sliding doors opening to a patio, and a plant",wolfe2,116_L_basket,4,40,A25MG4IOG897E0,2021-02-18_10h35.40.598,MetaAwareness,2020.1.2,Win32,60,37M4O367VKLW0ZIHQXXVUDWXC8C5MT,A25MG4IOG897E0,388U7OUMF84ROS72O1S2N0P4T91R0X,M7880,M7880,388U7OUMF84ROS72O1S2N0P4T91R0X,388U7OUMF84ROS72O1S2N0P4T91R0X,276350,276350,,,,,,,,,,
,,,,4,8.03163,0,17,17,200,1,this is a bedroom. a night stand on the right has empty shelves.,this is a bedroom. a night stand on the right has shelves with a bowl on it.,wolfe2,082_R_bowl,9,40,A25MG4IOG897E0,2021-02-18_10h35.40.598,MetaAwareness,2020.1.2,Win32,60,37M4O367VKLW0ZIHQXXVUDWXC8C5MT,A25MG4IOG897E0,388U7OUMF84ROS72O1S2N0P4T91R0X,M7880,M7880,388U7OUMF84ROS72O1S2N0P4T91R0X,388U7OUMF84ROS72O1S2N0P4T91R0X,276350,276350,,,,,,,,,,
,,,,4,10.9197,0,18,18,124,1,a stone floored bathroom with linen closet that has 1 large drawer on the bottom,a stone floored bathroom with linen closet that has 2 small drawers on the bottom,wolfe2,053_L_handle,2,40,A25MG4IOG897E0,2021-02-18_10h35.40.598,MetaAwareness,2020.1.2,Win32,60,37M4O367VKLW0ZIHQXXVUDWXC8C5MT,A25MG4IOG897E0,388U7OUMF84ROS72O1S2N0P4T91R0X,M7880,M7880,388U7OUMF84ROS72O1S2N0P4T91R0X,388U7OUMF84ROS72O1S2N0P4T91R0X,276350,276350,,,,,,,,,,
,,,,5,5.30165,0,19,19,307,1,a green cafe with 13 chairs at tables in it,a green cafe with 12 chairs at tables in it,wolfe2,122_L_chair,3,40,A25MG4IOG897E0,2021-02-18_10h35.40.598,MetaAwareness,2020.1.2,Win32,60,37M4O367VKLW0ZIHQXXVUDWXC8C5MT,A25MG4IOG897E0,388U7OUMF84ROS72O1S2N0P4T91R0X,M7880,M7880,388U7OUMF84ROS72O1S2N0P4T91R0X,388U7OUMF84ROS72O1S2N0P4T91R0X,276350,276350,,,,,,,,,,
,,,,5,9.702405,0,20,20,80,1,lit and spacious kitchen with a color combination of red and white,"lit and spacious kitchen with a color combination of red and white, bowls in the middle",wolfe2,036_R_bowl,4,40,A25MG4IOG897E0,2021-02-18_10h35.40.598,MetaAwareness,2020.1.2,Win32,60,37M4O367VKLW0ZIHQXXVUDWXC8C5MT,A25MG4IOG897E0,388U7OUMF84ROS72O1S2N0P4T91R0X,M7880,M7880,388U7OUMF84ROS72O1S2N0P4T91R0X,388U7OUMF84ROS72O1S2N0P4T91R0X,276350,276350,,,,,,,,,,
,,,,4,6.92965,0,21,21,41,1,a depicition of a home office with a yellow desk with very little on it,a picture of a home office with a keyboard on a yellow desk,wolfe2,021_L_keyboard,2,40,A25MG4IOG897E0,2021-02-18_10h35.40.598,MetaAwareness,2020.1.2,Win32,60,37M4O367VKLW0ZIHQXXVUDWXC8C5MT,A25MG4IOG897E0,388U7OUMF84ROS72O1S2N0P4T91R0X,M7880,M7880,388U7OUMF84ROS72O1S2N0P4T91R0X,388U7OUMF84ROS72O1S2N0P4T91R0X,276350,276350,,,,,,,,,,
,,,,5,9.978895,0,22,22,248,1,"a dining room area with a table, four chairs, a large mirror and three hanging candles on the wall","a dining room area with a table, four chairs, a large mirror and two hanging candles on the wall",wolfe2,099_R_sconce,2,40,A25MG4IOG897E0,2021-02-18_10h35.40.598,MetaAwareness,2020.1.2,Win32,60,37M4O367VKLW0ZIHQXXVUDWXC8C5MT,A25MG4IOG897E0,388U7OUMF84ROS72O1S2N0P4T91R0X,M7880,M7880,388U7OUMF84ROS72O1S2N0P4T91R0X,388U7OUMF84ROS72O1S2N0P4T91R0X,276350,276350,,,,,,,,,,
,,,,4,5.71514,0,23,23,43,1,living room with rustic feel,living room with rustic feel and remote control on table between the chairs,wolfe2,023_L_remote,3,40,A25MG4IOG897E0,2021-02-18_10h35.40.598,MetaAwareness,2020.1.2,Win32,60,37M4O367VKLW0ZIHQXXVUDWXC8C5MT,A25MG4IOG897E0,388U7OUMF84ROS72O1S2N0P4T91R0X,M7880,M7880,388U7OUMF84ROS72O1S2N0P4T91R0X,388U7OUMF84ROS72O1S2N0P4T91R0X,276350,276350,,,,,,,,,,
,,,,4,7.774455,0,24,24,235,1,a drab hotel room with two electrical outlets.,a drab hotel room with only one electrical outlet.,wolfe2,093_L_switch,9,40,A25MG4IOG897E0,2021-02-18_10h35.40.598,MetaAwareness,2020.1.2,Win32,60,37M4O367VKLW0ZIHQXXVUDWXC8C5MT,A25MG4IOG897E0,388U7OUMF84ROS72O1S2N0P4T91R0X,M7880,M7880,388U7OUMF84ROS72O1S2N0P4T91R0X,388U7OUMF84ROS72O1S2N0P4T91R0X,276350,276350,,,,,,,,,,
,,,,6,5.21521,0,25,25,249,1,a farm style dining area with art work and a mirror above a shelfing unit,a farm style dining area with art work above a shelfing unit,wolfe2,099_R_sconce,3,40,A25MG4IOG897E0,2021-02-18_10h35.40.598,MetaAwareness,2020.1.2,Win32,60,37M4O367VKLW0ZIHQXXVUDWXC8C5MT,A25MG4IOG897E0,388U7OUMF84ROS72O1S2N0P4T91R0X,M7880,M7880,388U7OUMF84ROS72O1S2N0P4T91R0X,388U7OUMF84ROS72O1S2N0P4T91R0X,276350,276350,,,,,,,,,,
,,,,5,6.63668,0,26,26,179,1,a coffee table in middle of living room,a book is sitting on a table,wolfe2,074_R_book,7,40,A25MG4IOG897E0,2021-02-18_10h35.40.598,MetaAwareness,2020.1.2,Win32,60,37M4O367VKLW0ZIHQXXVUDWXC8C5MT,A25MG4IOG897E0,388U7OUMF84ROS72O1S2N0P4T91R0X,M7880,M7880,388U7OUMF84ROS72O1S2N0P4T91R0X,388U7OUMF84ROS72O1S2N0P4T91R0X,276350,276350,,,,,,,,,,
,,,,4,4.789805,0,27,27,284,1,flowery couch and chair with basket,flowery couch and chair,wolfe2,112_L_basket,1,40,A25MG4IOG897E0,2021-02-18_10h35.40.598,MetaAwareness,2020.1.2,Win32,60,37M4O367VKLW0ZIHQXXVUDWXC8C5MT,A25MG4IOG897E0,388U7OUMF84ROS72O1S2N0P4T91R0X,M7880,M7880,388U7OUMF84ROS72O1S2N0P4T91R0X,388U7OUMF84ROS72O1S2N0P4T91R0X,276350,276350,,,,,,,,,,
,,,,6,11.912065,0,28,28,53,1,"a room with flower washes,  two wash basin and sanidizer present","a room with flower washes, two wash basin and sanidizer present",wolfe2,027_L_soapdish,1,40,A25MG4IOG897E0,2021-02-18_10h35.40.598,MetaAwareness,2020.1.2,Win32,60,37M4O367VKLW0ZIHQXXVUDWXC8C5MT,A25MG4IOG897E0,388U7OUMF84ROS72O1S2N0P4T91R0X,M7880,M7880,388U7OUMF84ROS72O1S2N0P4T91R0X,388U7OUMF84ROS72O1S2N0P4T91R0X,276350,276350,,,,,,,,,,
,,,,1,6.30087,0,29,29,205,1,nothing is on the wall,a light is on the wall,wolfe2,084_R_light,4,40,A25MG4IOG897E0,2021-02-18_10h35.40.598,MetaAwareness,2020.1.2,Win32,60,37M4O367VKLW0ZIHQXXVUDWXC8C5MT,A25MG4IOG897E0,388U7OUMF84ROS72O1S2N0P4T91R0X,M7880,M7880,388U7OUMF84ROS72O1S2N0P4T91R0X,388U7OUMF84ROS72O1S2N0P4T91R0X,276350,276350,,,,,,,,,,
,,,,,,,,,,,,,,,,40,A25MG4IOG897E0,2021-02-18_10h35.40.598,MetaAwareness,2020.1.2,Win32,60,37M4O367VKLW0ZIHQXXVUDWXC8C5MT,A25MG4IOG897E0,388U7OUMF84ROS72O1S2N0P4T91R0X,M7880,M7880,388U7OUMF84ROS72O1S2N0P4T91R0X,388U7OUMF84ROS72O1S2N0P4T91R0X,276350,276350,6,5.839945,someone laying underneath a blue beach umbrella on a crowded beach,someone laying underneath a blue beach umbrella on a crowded beach,same,1,5.405925,members of a marching band crossing a track that all have feather plumes at the front of their hats,a cluttered and rustic looking cafe with 10 hanging lights,different
