consent_response.keys,consent_response.rt,key_resp_2.keys,key_resp_2.rt,user_resp.keys,user_resp.rt,trials.thisRepN,trials.thisTrialN,trials.thisN,trials.thisIndex,trials.ran,image_1_text,image_2_text,database,image,number,age,worker_ID,date,expName,psychopyVersion,OS,frameRate,hitId,workerId,assignmentId,a,tp_a,b,tp_b,c,tp_c,catch_same_resp.keys,catch_same_resp.rt,image_1_text_catch_same,image_2_text_catch_same,image_catch_same,catch_different_resp.keys,catch_different_resp.rt,image_1_text_catch_different,image_2_text_catch_different,image_catch_different
space,23.232425,space,23.77377,4,28.278745,0,0,0,188,1,"it's a home kitchen next to the backyard with four seets at the counter, very modern and clean","still a home kitchen thats very modern and clean, but the four seats all have foot pedals now, while the other kitchen only three seats did.",wolfe2,077_R_footrest,3,46,A2YTO4EY3MNYAJ,2021-02-18_09h15.07.506,MetaAwareness,2020.1.2,Win32,60,37M4O367VKLW0ZIHQXXVUDWXC8C5MT,A2YTO4EY3MNYAJ,37QW5D2ZRHPL7WCIYU5M6P0IY9X8SQ,Z5Q70,Z5Q70,37QW5D2ZRHPL7WCIYU5M6P0IY9X8SQ,37QW5D2ZRHPL7WCIYU5M6P0IY9X8SQ,276350,276350,,,,,,,,,,
,,,,5,10.522935,0,1,1,35,1,a red chair placed on the corner with a plant next to it.,a red chair placed on the corner.,wolfe2,018_L_plant,6,46,A2YTO4EY3MNYAJ,2021-02-18_09h15.07.506,MetaAwareness,2020.1.2,Win32,60,37M4O367VKLW0ZIHQXXVUDWXC8C5MT,A2YTO4EY3MNYAJ,37QW5D2ZRHPL7WCIYU5M6P0IY9X8SQ,Z5Q70,Z5Q70,37QW5D2ZRHPL7WCIYU5M6P0IY9X8SQ,37QW5D2ZRHPL7WCIYU5M6P0IY9X8SQ,276350,276350,,,,,,,,,,
,,,,6,21.012985,0,2,2,170,1,"a bedroom that is furnished in white with black oak furniture, including an armoire that is missing a drawer handle in its lower left corner","a bedroom that is furnished in white with black oak furniture, including an armoire with ornate metal handles on its drawers",wolfe2,072_L_handle,5,46,A2YTO4EY3MNYAJ,2021-02-18_09h15.07.506,MetaAwareness,2020.1.2,Win32,60,37M4O367VKLW0ZIHQXXVUDWXC8C5MT,A2YTO4EY3MNYAJ,37QW5D2ZRHPL7WCIYU5M6P0IY9X8SQ,Z5Q70,Z5Q70,37QW5D2ZRHPL7WCIYU5M6P0IY9X8SQ,37QW5D2ZRHPL7WCIYU5M6P0IY9X8SQ,276350,276350,,,,,,,,,,
,,,,5,20.099715,0,3,3,54,1,"a light colored tiled bathroom with double sinks, a bathtub and a glass shower with a soap dish","a light colored tiled bathroom with double sinks, a bathtub and a glass shower",wolfe2,027_L_soapdish,4,46,A2YTO4EY3MNYAJ,2021-02-18_09h15.07.506,MetaAwareness,2020.1.2,Win32,60,37M4O367VKLW0ZIHQXXVUDWXC8C5MT,A2YTO4EY3MNYAJ,37QW5D2ZRHPL7WCIYU5M6P0IY9X8SQ,Z5Q70,Z5Q70,37QW5D2ZRHPL7WCIYU5M6P0IY9X8SQ,37QW5D2ZRHPL7WCIYU5M6P0IY9X8SQ,276350,276350,,,,,,,,,,
,,,,5,23.61328,0,4,4,204,1,"a living room overlooking the water, without a light fixture on the wall","a living room overlooking the water, with a light fixture on the wall",wolfe2,084_R_light,3,46,A2YTO4EY3MNYAJ,2021-02-18_09h15.07.506,MetaAwareness,2020.1.2,Win32,60,37M4O367VKLW0ZIHQXXVUDWXC8C5MT,A2YTO4EY3MNYAJ,37QW5D2ZRHPL7WCIYU5M6P0IY9X8SQ,Z5Q70,Z5Q70,37QW5D2ZRHPL7WCIYU5M6P0IY9X8SQ,37QW5D2ZRHPL7WCIYU5M6P0IY9X8SQ,276350,276350,,,,,,,,,,
,,,,5,23.217265,0,5,5,279,1,"a living room with a coffee table that has a plant on it, a second table with a lamp, a plant in the corner, and a view of a pool","a living room with a coffee table that has a plant on it, a second table with a lamp, no plant in the corner, and a view of a pool",wolfe2,110_R_plant,2,46,A2YTO4EY3MNYAJ,2021-02-18_09h15.07.506,MetaAwareness,2020.1.2,Win32,60,37M4O367VKLW0ZIHQXXVUDWXC8C5MT,A2YTO4EY3MNYAJ,37QW5D2ZRHPL7WCIYU5M6P0IY9X8SQ,Z5Q70,Z5Q70,37QW5D2ZRHPL7WCIYU5M6P0IY9X8SQ,37QW5D2ZRHPL7WCIYU5M6P0IY9X8SQ,276350,276350,,,,,,,,,,
,,,,4,20.285385,0,6,6,88,1,a very large room with a large table with chairs and a large sofa,"a very large room with a large table with chairs and a large sofa, with a vent on the ceiling above the sofa",wolfe2,039_R_ventilator,4,46,A2YTO4EY3MNYAJ,2021-02-18_09h15.07.506,MetaAwareness,2020.1.2,Win32,60,37M4O367VKLW0ZIHQXXVUDWXC8C5MT,A2YTO4EY3MNYAJ,37QW5D2ZRHPL7WCIYU5M6P0IY9X8SQ,Z5Q70,Z5Q70,37QW5D2ZRHPL7WCIYU5M6P0IY9X8SQ,37QW5D2ZRHPL7WCIYU5M6P0IY9X8SQ,276350,276350,,,,,,,,,,
,,,,1,15.362775,0,7,7,24,1,the white tile color scheme does not mix well with the blue tiles,the hidious bottle of perfume sits on top of the marble sink near a large bottle of pink perfume,wolfe2,011_R_parfum,4,46,A2YTO4EY3MNYAJ,2021-02-18_09h15.07.506,MetaAwareness,2020.1.2,Win32,60,37M4O367VKLW0ZIHQXXVUDWXC8C5MT,A2YTO4EY3MNYAJ,37QW5D2ZRHPL7WCIYU5M6P0IY9X8SQ,Z5Q70,Z5Q70,37QW5D2ZRHPL7WCIYU5M6P0IY9X8SQ,37QW5D2ZRHPL7WCIYU5M6P0IY9X8SQ,276350,276350,,,,,,,,,,
,,,,5,15.24699,0,8,8,151,1,a beige and white bedroom with desk and a shelf with books,a beige and white bedroom with desk and a shelf with books and cds,wolfe2,065_L_cd,1,46,A2YTO4EY3MNYAJ,2021-02-18_09h15.07.506,MetaAwareness,2020.1.2,Win32,60,37M4O367VKLW0ZIHQXXVUDWXC8C5MT,A2YTO4EY3MNYAJ,37QW5D2ZRHPL7WCIYU5M6P0IY9X8SQ,Z5Q70,Z5Q70,37QW5D2ZRHPL7WCIYU5M6P0IY9X8SQ,37QW5D2ZRHPL7WCIYU5M6P0IY9X8SQ,276350,276350,,,,,,,,,,
,,,,4,6.809235,0,9,9,146,1,a fireplace with no wood in it,a fireplace with wood in it,wolfe2,062_R_flowers,6,46,A2YTO4EY3MNYAJ,2021-02-18_09h15.07.506,MetaAwareness,2020.1.2,Win32,60,37M4O367VKLW0ZIHQXXVUDWXC8C5MT,A2YTO4EY3MNYAJ,37QW5D2ZRHPL7WCIYU5M6P0IY9X8SQ,Z5Q70,Z5Q70,37QW5D2ZRHPL7WCIYU5M6P0IY9X8SQ,37QW5D2ZRHPL7WCIYU5M6P0IY9X8SQ,276350,276350,,,,,,,,,,
,,,,4,7.93848,0,10,10,103,1,"shiny, bright and clean washroom","shiny, bright and clean washroom with a light inside a brown square",wolfe2,044_R_light,2,46,A2YTO4EY3MNYAJ,2021-02-18_09h15.07.506,MetaAwareness,2020.1.2,Win32,60,37M4O367VKLW0ZIHQXXVUDWXC8C5MT,A2YTO4EY3MNYAJ,37QW5D2ZRHPL7WCIYU5M6P0IY9X8SQ,Z5Q70,Z5Q70,37QW5D2ZRHPL7WCIYU5M6P0IY9X8SQ,37QW5D2ZRHPL7WCIYU5M6P0IY9X8SQ,276350,276350,,,,,,,,,,
,,,,3,12.17356,0,11,11,292,1,there is a small statue next to the book and vases on the coffee table.,there is nothing but a book and vases on this coffee table.,wolfe2,114_R_bird,2,46,A2YTO4EY3MNYAJ,2021-02-18_09h15.07.506,MetaAwareness,2020.1.2,Win32,60,37M4O367VKLW0ZIHQXXVUDWXC8C5MT,A2YTO4EY3MNYAJ,37QW5D2ZRHPL7WCIYU5M6P0IY9X8SQ,Z5Q70,Z5Q70,37QW5D2ZRHPL7WCIYU5M6P0IY9X8SQ,37QW5D2ZRHPL7WCIYU5M6P0IY9X8SQ,276350,276350,,,,,,,,,,
,,,,4,12.65113,0,12,12,72,1,a white living room with no vase on the shelf,a white living room with a glass vase on the shelf,wolfe2,033_L_vase,3,46,A2YTO4EY3MNYAJ,2021-02-18_09h15.07.506,MetaAwareness,2020.1.2,Win32,60,37M4O367VKLW0ZIHQXXVUDWXC8C5MT,A2YTO4EY3MNYAJ,37QW5D2ZRHPL7WCIYU5M6P0IY9X8SQ,Z5Q70,Z5Q70,37QW5D2ZRHPL7WCIYU5M6P0IY9X8SQ,37QW5D2ZRHPL7WCIYU5M6P0IY9X8SQ,276350,276350,,,,,,,,,,
,,,,6,16.831495,0,13,13,30,1,a contemporary living room leading out to an outdoor space with a black box on a pedestool in the far corner,a contemporary living room leading out to an outdoor space with a black statue on a pedestool in the far corner,wolfe2,016_R_art,1,46,A2YTO4EY3MNYAJ,2021-02-18_09h15.07.506,MetaAwareness,2020.1.2,Win32,60,37M4O367VKLW0ZIHQXXVUDWXC8C5MT,A2YTO4EY3MNYAJ,37QW5D2ZRHPL7WCIYU5M6P0IY9X8SQ,Z5Q70,Z5Q70,37QW5D2ZRHPL7WCIYU5M6P0IY9X8SQ,37QW5D2ZRHPL7WCIYU5M6P0IY9X8SQ,276350,276350,,,,,,,,,,
,,,,2,13.27962,0,14,14,11,1,the well-outfitted bedroom is missing a vase.,a vase balances the bedroom in this image,wolfe2,006_R_vase,4,46,A2YTO4EY3MNYAJ,2021-02-18_09h15.07.506,MetaAwareness,2020.1.2,Win32,60,37M4O367VKLW0ZIHQXXVUDWXC8C5MT,A2YTO4EY3MNYAJ,37QW5D2ZRHPL7WCIYU5M6P0IY9X8SQ,Z5Q70,Z5Q70,37QW5D2ZRHPL7WCIYU5M6P0IY9X8SQ,37QW5D2ZRHPL7WCIYU5M6P0IY9X8SQ,276350,276350,,,,,,,,,,
,,,,5,13.427955,0,15,15,140,1,"a modern living room with wood floors and accents, white walls, and a cream colored couch with three cream and two black accent pillows","a modern living room with wood floors and accents, white walls, and a cream colored couch with three cream and three black accent pillows",wolfe2,060_R_pillow,3,46,A2YTO4EY3MNYAJ,2021-02-18_09h15.07.506,MetaAwareness,2020.1.2,Win32,60,37M4O367VKLW0ZIHQXXVUDWXC8C5MT,A2YTO4EY3MNYAJ,37QW5D2ZRHPL7WCIYU5M6P0IY9X8SQ,Z5Q70,Z5Q70,37QW5D2ZRHPL7WCIYU5M6P0IY9X8SQ,37QW5D2ZRHPL7WCIYU5M6P0IY9X8SQ,276350,276350,,,,,,,,,,
,,,,3,18.664995,0,16,16,301,1,a living room space with wall frame portrait,a living room space with no wall frame,wolfe2,119_R_painting,3,46,A2YTO4EY3MNYAJ,2021-02-18_09h15.07.506,MetaAwareness,2020.1.2,Win32,60,37M4O367VKLW0ZIHQXXVUDWXC8C5MT,A2YTO4EY3MNYAJ,37QW5D2ZRHPL7WCIYU5M6P0IY9X8SQ,Z5Q70,Z5Q70,37QW5D2ZRHPL7WCIYU5M6P0IY9X8SQ,37QW5D2ZRHPL7WCIYU5M6P0IY9X8SQ,276350,276350,,,,,,,,,,
,,,,3,11.58862,0,17,17,186,1,a clean kitchen with four stools and one missing a footrest.,a clean kitchen with four stools that all have footrests.,wolfe2,077_R_footrest,1,46,A2YTO4EY3MNYAJ,2021-02-18_09h15.07.506,MetaAwareness,2020.1.2,Win32,60,37M4O367VKLW0ZIHQXXVUDWXC8C5MT,A2YTO4EY3MNYAJ,37QW5D2ZRHPL7WCIYU5M6P0IY9X8SQ,Z5Q70,Z5Q70,37QW5D2ZRHPL7WCIYU5M6P0IY9X8SQ,37QW5D2ZRHPL7WCIYU5M6P0IY9X8SQ,276350,276350,,,,,,,,,,
,,,,4,26.42543,0,18,18,192,1,"a kitchen with white cabinets, wood countertops, a baker's rack and black shelving in the corner with 1 small plant","a kitchen with white cabinets, wood countertop, a baker's rack and black shelving in the corner with 2 small plants",wolfe2,080_L_plant,2,46,A2YTO4EY3MNYAJ,2021-02-18_09h15.07.506,MetaAwareness,2020.1.2,Win32,60,37M4O367VKLW0ZIHQXXVUDWXC8C5MT,A2YTO4EY3MNYAJ,37QW5D2ZRHPL7WCIYU5M6P0IY9X8SQ,Z5Q70,Z5Q70,37QW5D2ZRHPL7WCIYU5M6P0IY9X8SQ,37QW5D2ZRHPL7WCIYU5M6P0IY9X8SQ,276350,276350,,,,,,,,,,
,,,,4,20.61855,0,19,19,42,1,nice kitchen with an island. the island has two hanging lights above it,nice kitchen with an island. the island has three hanging lights above it,wolfe2,022_R_lamp,5,46,A2YTO4EY3MNYAJ,2021-02-18_09h15.07.506,MetaAwareness,2020.1.2,Win32,60,37M4O367VKLW0ZIHQXXVUDWXC8C5MT,A2YTO4EY3MNYAJ,37QW5D2ZRHPL7WCIYU5M6P0IY9X8SQ,Z5Q70,Z5Q70,37QW5D2ZRHPL7WCIYU5M6P0IY9X8SQ,37QW5D2ZRHPL7WCIYU5M6P0IY9X8SQ,276350,276350,,,,,,,,,,
,,,,1,6.788485,0,20,20,267,1,paper towel dispenser on wall,wall is bare,wolfe2,106_R_toweldispenser,3,46,A2YTO4EY3MNYAJ,2021-02-18_09h15.07.506,MetaAwareness,2020.1.2,Win32,60,37M4O367VKLW0ZIHQXXVUDWXC8C5MT,A2YTO4EY3MNYAJ,37QW5D2ZRHPL7WCIYU5M6P0IY9X8SQ,Z5Q70,Z5Q70,37QW5D2ZRHPL7WCIYU5M6P0IY9X8SQ,37QW5D2ZRHPL7WCIYU5M6P0IY9X8SQ,276350,276350,,,,,,,,,,
,,,,4,9.761065,0,21,21,278,1,a patio with two plants that overlooks a pool outside,a patio with one plant that overlooks a pool outside,wolfe2,110_R_plant,1,46,A2YTO4EY3MNYAJ,2021-02-18_09h15.07.506,MetaAwareness,2020.1.2,Win32,60,37M4O367VKLW0ZIHQXXVUDWXC8C5MT,A2YTO4EY3MNYAJ,37QW5D2ZRHPL7WCIYU5M6P0IY9X8SQ,Z5Q70,Z5Q70,37QW5D2ZRHPL7WCIYU5M6P0IY9X8SQ,37QW5D2ZRHPL7WCIYU5M6P0IY9X8SQ,276350,276350,,,,,,,,,,
,,,,4,7.614175,0,22,22,36,1,an artistic building with one light hanging from the deck,an artistic building with two lights hanging from the deck,wolfe2,019_R_lamp_sized,1,46,A2YTO4EY3MNYAJ,2021-02-18_09h15.07.506,MetaAwareness,2020.1.2,Win32,60,37M4O367VKLW0ZIHQXXVUDWXC8C5MT,A2YTO4EY3MNYAJ,37QW5D2ZRHPL7WCIYU5M6P0IY9X8SQ,Z5Q70,Z5Q70,37QW5D2ZRHPL7WCIYU5M6P0IY9X8SQ,37QW5D2ZRHPL7WCIYU5M6P0IY9X8SQ,276350,276350,,,,,,,,,,
,,,,1,7.00332,0,23,23,178,1,the table is bare at the end,a book is on the table,wolfe2,074_R_book,4,46,A2YTO4EY3MNYAJ,2021-02-18_09h15.07.506,MetaAwareness,2020.1.2,Win32,60,37M4O367VKLW0ZIHQXXVUDWXC8C5MT,A2YTO4EY3MNYAJ,37QW5D2ZRHPL7WCIYU5M6P0IY9X8SQ,Z5Q70,Z5Q70,37QW5D2ZRHPL7WCIYU5M6P0IY9X8SQ,37QW5D2ZRHPL7WCIYU5M6P0IY9X8SQ,276350,276350,,,,,,,,,,
,,,,1,11.98465,0,24,24,203,1,"colorful bedroom with bunkbed, table and a row of drawers on the wall with one missing",colorful bedroom with an open window and the matching drawer has a white pull fr it.,wolfe2,083_R_knob,4,46,A2YTO4EY3MNYAJ,2021-02-18_09h15.07.506,MetaAwareness,2020.1.2,Win32,60,37M4O367VKLW0ZIHQXXVUDWXC8C5MT,A2YTO4EY3MNYAJ,37QW5D2ZRHPL7WCIYU5M6P0IY9X8SQ,Z5Q70,Z5Q70,37QW5D2ZRHPL7WCIYU5M6P0IY9X8SQ,37QW5D2ZRHPL7WCIYU5M6P0IY9X8SQ,276350,276350,,,,,,,,,,
,,,,1,6.56992,0,25,25,206,1,a well appointed living area contains a vast assortment of accoutremonts.,a wall sconce appears in the busy livingroom,wolfe2,084_R_light,5,46,A2YTO4EY3MNYAJ,2021-02-18_09h15.07.506,MetaAwareness,2020.1.2,Win32,60,37M4O367VKLW0ZIHQXXVUDWXC8C5MT,A2YTO4EY3MNYAJ,37QW5D2ZRHPL7WCIYU5M6P0IY9X8SQ,Z5Q70,Z5Q70,37QW5D2ZRHPL7WCIYU5M6P0IY9X8SQ,37QW5D2ZRHPL7WCIYU5M6P0IY9X8SQ,276350,276350,,,,,,,,,,
,,,,4,7.719505,0,26,26,249,1,a farm style dining area with art work and a mirror above a shelfing unit,a farm style dining area with art work above a shelfing unit,wolfe2,099_R_sconce,3,46,A2YTO4EY3MNYAJ,2021-02-18_09h15.07.506,MetaAwareness,2020.1.2,Win32,60,37M4O367VKLW0ZIHQXXVUDWXC8C5MT,A2YTO4EY3MNYAJ,37QW5D2ZRHPL7WCIYU5M6P0IY9X8SQ,Z5Q70,Z5Q70,37QW5D2ZRHPL7WCIYU5M6P0IY9X8SQ,37QW5D2ZRHPL7WCIYU5M6P0IY9X8SQ,276350,276350,,,,,,,,,,
,,,,4,6.491245,0,27,27,119,1,an old fashioned living room with a lot of decor,"an old fashioned living room with a lot of decor, including a bird on the mantle",wolfe2,051_R_owl,6,46,A2YTO4EY3MNYAJ,2021-02-18_09h15.07.506,MetaAwareness,2020.1.2,Win32,60,37M4O367VKLW0ZIHQXXVUDWXC8C5MT,A2YTO4EY3MNYAJ,37QW5D2ZRHPL7WCIYU5M6P0IY9X8SQ,Z5Q70,Z5Q70,37QW5D2ZRHPL7WCIYU5M6P0IY9X8SQ,37QW5D2ZRHPL7WCIYU5M6P0IY9X8SQ,276350,276350,,,,,,,,,,
,,,,3,8.884025,0,28,28,161,1,"a fireplace, table, mirror and bookshelf all wooden","a wooden fireplace, table, mirror and bookshelf with candles",wolfe2,069_L_things,2,46,A2YTO4EY3MNYAJ,2021-02-18_09h15.07.506,MetaAwareness,2020.1.2,Win32,60,37M4O367VKLW0ZIHQXXVUDWXC8C5MT,A2YTO4EY3MNYAJ,37QW5D2ZRHPL7WCIYU5M6P0IY9X8SQ,Z5Q70,Z5Q70,37QW5D2ZRHPL7WCIYU5M6P0IY9X8SQ,37QW5D2ZRHPL7WCIYU5M6P0IY9X8SQ,276350,276350,,,,,,,,,,
,,,,4,7.58949,0,29,29,303,1,"modern living room with big glass doors, patio and 3 items on the mantle","modern living room with big glass doors, patio and 2 items on the mantle",wolfe2,120_L_art,2,46,A2YTO4EY3MNYAJ,2021-02-18_09h15.07.506,MetaAwareness,2020.1.2,Win32,60,37M4O367VKLW0ZIHQXXVUDWXC8C5MT,A2YTO4EY3MNYAJ,37QW5D2ZRHPL7WCIYU5M6P0IY9X8SQ,Z5Q70,Z5Q70,37QW5D2ZRHPL7WCIYU5M6P0IY9X8SQ,37QW5D2ZRHPL7WCIYU5M6P0IY9X8SQ,276350,276350,,,,,,,,,,
,,,,,,,,,,,,,,,,46,A2YTO4EY3MNYAJ,2021-02-18_09h15.07.506,MetaAwareness,2020.1.2,Win32,60,37M4O367VKLW0ZIHQXXVUDWXC8C5MT,A2YTO4EY3MNYAJ,37QW5D2ZRHPL7WCIYU5M6P0IY9X8SQ,Z5Q70,Z5Q70,37QW5D2ZRHPL7WCIYU5M6P0IY9X8SQ,37QW5D2ZRHPL7WCIYU5M6P0IY9X8SQ,276350,276350,6,7.56974,someone laying underneath a blue beach umbrella on a crowded beach,someone laying underneath a blue beach umbrella on a crowded beach,same,1,6.8952,members of a marching band crossing a track that all have feather plumes at the front of their hats,a cluttered and rustic looking cafe with 10 hanging lights,different
