consent_response.keys,consent_response.rt,key_resp_2.keys,key_resp_2.rt,user_resp.keys,user_resp.rt,trials.thisRepN,trials.thisTrialN,trials.thisN,trials.thisIndex,trials.ran,image_1_text,image_2_text,database,image,number,age,worker_ID,date,expName,psychopyVersion,OS,frameRate,hitId,workerId,assignmentId,a,tp_a,b,tp_b,c,tp_c,catch_same_resp.keys,catch_same_resp.rt,image_1_text_catch_same,image_2_text_catch_same,image_catch_same,catch_different_resp.keys,catch_different_resp.rt,image_1_text_catch_different,image_2_text_catch_different,image_catch_different
space,24.507445,space,17.76194,5,29.020325,0,0,0,50,1,"a modern living room with a view of a park, white couches, and two pointy art pieces on a built-in wood shelving system","a modern living room with a view of a park, white couches, and three pointy art pieces on a built-in wood shelving system",wolfe2,025_R_vase,5,27,A3QAHF4UUBM7ZO,2021-02-18_11h28.45.756,MetaAwareness,2020.1.2,Win32,60,3ZCC2DXSD87UW4HFK2Q3Z5HXGNVYYT,A3QAHF4UUBM7ZO,308Q0PEVB9GWRNSWYAHM2JP69II9IV,V0800,V0800,308Q0PEVB9GWRNSWYAHM2JP69II9IV,308Q0PEVB9GWRNSWYAHM2JP69II9IV,276350,276350,,,,,,,,,,
,,,,1,21.28478,0,1,1,244,1,"the image is blending and matches with grace.   the item, likely shoes, on the floor, give it a suggestion of peace or home.",this image is a little severe.  it needs something more than the carpet strip to give it a comfortable appearance.,wolfe2,098_R_slippers,2,27,A3QAHF4UUBM7ZO,2021-02-18_11h28.45.756,MetaAwareness,2020.1.2,Win32,60,3ZCC2DXSD87UW4HFK2Q3Z5HXGNVYYT,A3QAHF4UUBM7ZO,308Q0PEVB9GWRNSWYAHM2JP69II9IV,V0800,V0800,308Q0PEVB9GWRNSWYAHM2JP69II9IV,308Q0PEVB9GWRNSWYAHM2JP69II9IV,276350,276350,,,,,,,,,,
,,,,5,28.61223,0,2,2,60,1,a nice bathroom with two sinks and two red cups sitting on a shelf,a nice bathroom with two sinks and three red cups sitting on a shelf.,wolfe2,029_R_glass,1,27,A3QAHF4UUBM7ZO,2021-02-18_11h28.45.756,MetaAwareness,2020.1.2,Win32,60,3ZCC2DXSD87UW4HFK2Q3Z5HXGNVYYT,A3QAHF4UUBM7ZO,308Q0PEVB9GWRNSWYAHM2JP69II9IV,V0800,V0800,308Q0PEVB9GWRNSWYAHM2JP69II9IV,308Q0PEVB9GWRNSWYAHM2JP69II9IV,276350,276350,,,,,,,,,,
,,,,5,15.35635,0,3,3,225,1,"a hairdressers with no people in it, lots of empty black chairs, and a blue painting with something hanging above it on one of the walls","a hairdressers with no people in it, lots of empty black chairs, and a blue painting on one of the walls",wolfe2,088_R_clock,5,27,A3QAHF4UUBM7ZO,2021-02-18_11h28.45.756,MetaAwareness,2020.1.2,Win32,60,3ZCC2DXSD87UW4HFK2Q3Z5HXGNVYYT,A3QAHF4UUBM7ZO,308Q0PEVB9GWRNSWYAHM2JP69II9IV,V0800,V0800,308Q0PEVB9GWRNSWYAHM2JP69II9IV,308Q0PEVB9GWRNSWYAHM2JP69II9IV,276350,276350,,,,,,,,,,
,,,,5,10.029505,0,4,4,62,1,there are four red candle holders in this large modern bathroom,there are five red candle holders in this large modern bathroom,wolfe2,029_R_glass,3,27,A3QAHF4UUBM7ZO,2021-02-18_11h28.45.756,MetaAwareness,2020.1.2,Win32,60,3ZCC2DXSD87UW4HFK2Q3Z5HXGNVYYT,A3QAHF4UUBM7ZO,308Q0PEVB9GWRNSWYAHM2JP69II9IV,V0800,V0800,308Q0PEVB9GWRNSWYAHM2JP69II9IV,308Q0PEVB9GWRNSWYAHM2JP69II9IV,276350,276350,,,,,,,,,,
,,,,3,20.401475,0,5,5,167,1,"a living area with fancy decor, white couches and white walls.","a mostly white living area with white couches, white walls, and a candle holder hanging on the wall",wolfe2,070_R_lamp,4,27,A3QAHF4UUBM7ZO,2021-02-18_11h28.45.756,MetaAwareness,2020.1.2,Win32,60,3ZCC2DXSD87UW4HFK2Q3Z5HXGNVYYT,A3QAHF4UUBM7ZO,308Q0PEVB9GWRNSWYAHM2JP69II9IV,V0800,V0800,308Q0PEVB9GWRNSWYAHM2JP69II9IV,308Q0PEVB9GWRNSWYAHM2JP69II9IV,276350,276350,,,,,,,,,,
,,,,6,9.66219,0,6,6,144,1,a dining room with wooden furniture and three wine glasses,a dining room with wooden furniture and three wine glasses,wolfe2,061_L_glass,7,27,A3QAHF4UUBM7ZO,2021-02-18_11h28.45.756,MetaAwareness,2020.1.2,Win32,60,3ZCC2DXSD87UW4HFK2Q3Z5HXGNVYYT,A3QAHF4UUBM7ZO,308Q0PEVB9GWRNSWYAHM2JP69II9IV,V0800,V0800,308Q0PEVB9GWRNSWYAHM2JP69II9IV,308Q0PEVB9GWRNSWYAHM2JP69II9IV,276350,276350,,,,,,,,,,
,,,,5,41.92726,0,7,7,302,1,in a living room there is are three objects on a shelf above the fireplace,in a living room there are two objects on a shelf above the fireplace,wolfe2,120_L_art,1,27,A3QAHF4UUBM7ZO,2021-02-18_11h28.45.756,MetaAwareness,2020.1.2,Win32,60,3ZCC2DXSD87UW4HFK2Q3Z5HXGNVYYT,A3QAHF4UUBM7ZO,308Q0PEVB9GWRNSWYAHM2JP69II9IV,V0800,V0800,308Q0PEVB9GWRNSWYAHM2JP69II9IV,308Q0PEVB9GWRNSWYAHM2JP69II9IV,276350,276350,,,,,,,,,,
,,,,4,17.83648,0,8,8,280,1,a house witha few of the backyard with pool. small plant in the corner of the room,a house with a view of the backyard with a pool. no plant in the corner of the room,wolfe2,110_R_plant,5,27,A3QAHF4UUBM7ZO,2021-02-18_11h28.45.756,MetaAwareness,2020.1.2,Win32,60,3ZCC2DXSD87UW4HFK2Q3Z5HXGNVYYT,A3QAHF4UUBM7ZO,308Q0PEVB9GWRNSWYAHM2JP69II9IV,V0800,V0800,308Q0PEVB9GWRNSWYAHM2JP69II9IV,308Q0PEVB9GWRNSWYAHM2JP69II9IV,276350,276350,,,,,,,,,,
,,,,5,16.32224,0,9,9,91,1,"a nice, clean dining room with two paintings hanging above a china cabinet.","a nice, clean dining room with three paintings hanging above a china cabinet.",wolfe2,040_R_painting,4,27,A3QAHF4UUBM7ZO,2021-02-18_11h28.45.756,MetaAwareness,2020.1.2,Win32,60,3ZCC2DXSD87UW4HFK2Q3Z5HXGNVYYT,A3QAHF4UUBM7ZO,308Q0PEVB9GWRNSWYAHM2JP69II9IV,V0800,V0800,308Q0PEVB9GWRNSWYAHM2JP69II9IV,308Q0PEVB9GWRNSWYAHM2JP69II9IV,276350,276350,,,,,,,,,,
,,,,4,17.170065,0,10,10,288,1,"a furnished country club lounge, the back right corner has a potted plant",a furnished country club lounge,wolfe2,113_R_plant,2,27,A3QAHF4UUBM7ZO,2021-02-18_11h28.45.756,MetaAwareness,2020.1.2,Win32,60,3ZCC2DXSD87UW4HFK2Q3Z5HXGNVYYT,A3QAHF4UUBM7ZO,308Q0PEVB9GWRNSWYAHM2JP69II9IV,V0800,V0800,308Q0PEVB9GWRNSWYAHM2JP69II9IV,308Q0PEVB9GWRNSWYAHM2JP69II9IV,276350,276350,,,,,,,,,,
,,,,5,54.445025,0,11,11,90,1,a fully furnished dining table with nice paintings in the side wall,a fully furnishe dining room with three nice paintings in the wall just above the cupboard.,wolfe2,040_L_painting,4,27,A3QAHF4UUBM7ZO,2021-02-18_11h28.45.756,MetaAwareness,2020.1.2,Win32,60,3ZCC2DXSD87UW4HFK2Q3Z5HXGNVYYT,A3QAHF4UUBM7ZO,308Q0PEVB9GWRNSWYAHM2JP69II9IV,V0800,V0800,308Q0PEVB9GWRNSWYAHM2JP69II9IV,308Q0PEVB9GWRNSWYAHM2JP69II9IV,276350,276350,,,,,,,,,,
,,,,4,7.718135,0,12,12,83,1,a dining area with brown chairs and table,"a dining area with brown chairs, a table, and artwork hanging near the table",wolfe2,038_R_art,4,27,A3QAHF4UUBM7ZO,2021-02-18_11h28.45.756,MetaAwareness,2020.1.2,Win32,60,3ZCC2DXSD87UW4HFK2Q3Z5HXGNVYYT,A3QAHF4UUBM7ZO,308Q0PEVB9GWRNSWYAHM2JP69II9IV,V0800,V0800,308Q0PEVB9GWRNSWYAHM2JP69II9IV,308Q0PEVB9GWRNSWYAHM2JP69II9IV,276350,276350,,,,,,,,,,
,,,,1,17.24535,0,13,13,24,1,the white tile color scheme does not mix well with the blue tiles,the hidious bottle of perfume sits on top of the marble sink near a large bottle of pink perfume,wolfe2,011_R_parfum,4,27,A3QAHF4UUBM7ZO,2021-02-18_11h28.45.756,MetaAwareness,2020.1.2,Win32,60,3ZCC2DXSD87UW4HFK2Q3Z5HXGNVYYT,A3QAHF4UUBM7ZO,308Q0PEVB9GWRNSWYAHM2JP69II9IV,V0800,V0800,308Q0PEVB9GWRNSWYAHM2JP69II9IV,308Q0PEVB9GWRNSWYAHM2JP69II9IV,276350,276350,,,,,,,,,,
,,,,5,10.331,0,14,14,247,1,a modern dining room with a three candlesticks hanging off the wall,a modern dining room with two candlesticks hanging off the wall,wolfe2,099_R_sconce,1,27,A3QAHF4UUBM7ZO,2021-02-18_11h28.45.756,MetaAwareness,2020.1.2,Win32,60,3ZCC2DXSD87UW4HFK2Q3Z5HXGNVYYT,A3QAHF4UUBM7ZO,308Q0PEVB9GWRNSWYAHM2JP69II9IV,V0800,V0800,308Q0PEVB9GWRNSWYAHM2JP69II9IV,308Q0PEVB9GWRNSWYAHM2JP69II9IV,276350,276350,,,,,,,,,,
,,,,4,11.78465,0,15,15,16,1,bathroom sink and mirror area with white sinks,bathroom sink and mirror area with a white dish on the white sink,wolfe2,007_R_soap,5,27,A3QAHF4UUBM7ZO,2021-02-18_11h28.45.756,MetaAwareness,2020.1.2,Win32,60,3ZCC2DXSD87UW4HFK2Q3Z5HXGNVYYT,A3QAHF4UUBM7ZO,308Q0PEVB9GWRNSWYAHM2JP69II9IV,V0800,V0800,308Q0PEVB9GWRNSWYAHM2JP69II9IV,308Q0PEVB9GWRNSWYAHM2JP69II9IV,276350,276350,,,,,,,,,,
,,,,4,15.4083,0,16,16,49,1,"a room in a house with two sofas, a table, and a shelving unit that has one long, pale art object","a room in a house with two sofas, a table, and a shelving unit that has two long, pale art objects",wolfe2,025_R_vase,4,27,A3QAHF4UUBM7ZO,2021-02-18_11h28.45.756,MetaAwareness,2020.1.2,Win32,60,3ZCC2DXSD87UW4HFK2Q3Z5HXGNVYYT,A3QAHF4UUBM7ZO,308Q0PEVB9GWRNSWYAHM2JP69II9IV,V0800,V0800,308Q0PEVB9GWRNSWYAHM2JP69II9IV,308Q0PEVB9GWRNSWYAHM2JP69II9IV,276350,276350,,,,,,,,,,
,,,,1,5.236615,0,17,17,267,1,paper towel dispenser on wall,wall is bare,wolfe2,106_R_toweldispenser,3,27,A3QAHF4UUBM7ZO,2021-02-18_11h28.45.756,MetaAwareness,2020.1.2,Win32,60,3ZCC2DXSD87UW4HFK2Q3Z5HXGNVYYT,A3QAHF4UUBM7ZO,308Q0PEVB9GWRNSWYAHM2JP69II9IV,V0800,V0800,308Q0PEVB9GWRNSWYAHM2JP69II9IV,308Q0PEVB9GWRNSWYAHM2JP69II9IV,276350,276350,,,,,,,,,,
,,,,4,8.75696,0,18,18,183,1,a bathroom with no towel hook on the wall,a bathroom with a towel hook on the wall,wolfe2,076_L_hook,5,27,A3QAHF4UUBM7ZO,2021-02-18_11h28.45.756,MetaAwareness,2020.1.2,Win32,60,3ZCC2DXSD87UW4HFK2Q3Z5HXGNVYYT,A3QAHF4UUBM7ZO,308Q0PEVB9GWRNSWYAHM2JP69II9IV,V0800,V0800,308Q0PEVB9GWRNSWYAHM2JP69II9IV,308Q0PEVB9GWRNSWYAHM2JP69II9IV,276350,276350,,,,,,,,,,
,,,,3,11.147495,0,19,19,196,1,"catch-all room with big front windows, black book shelf with clean floor","catch-all room with big front windows, black book shelf with object on the floor next to the left leg of book shelf",wolfe2,081_L_football,1,27,A3QAHF4UUBM7ZO,2021-02-18_11h28.45.756,MetaAwareness,2020.1.2,Win32,60,3ZCC2DXSD87UW4HFK2Q3Z5HXGNVYYT,A3QAHF4UUBM7ZO,308Q0PEVB9GWRNSWYAHM2JP69II9IV,V0800,V0800,308Q0PEVB9GWRNSWYAHM2JP69II9IV,308Q0PEVB9GWRNSWYAHM2JP69II9IV,276350,276350,,,,,,,,,,
,,,,4,17.924705,0,20,20,160,1,high end bathroom with a tub that had flowers in it. there are two holders on thewall next to the tub,high end bathroom with a tub that has flowers in it. there are three holders on the wall next to the tub,wolfe2,068_R_faucet,4,27,A3QAHF4UUBM7ZO,2021-02-18_11h28.45.756,MetaAwareness,2020.1.2,Win32,60,3ZCC2DXSD87UW4HFK2Q3Z5HXGNVYYT,A3QAHF4UUBM7ZO,308Q0PEVB9GWRNSWYAHM2JP69II9IV,V0800,V0800,308Q0PEVB9GWRNSWYAHM2JP69II9IV,308Q0PEVB9GWRNSWYAHM2JP69II9IV,276350,276350,,,,,,,,,,
,,,,4,14.094335,0,21,21,240,1,living room with a mirror in place of fireplace. it has multiple candles on the shelf and there are two red candles,living room with a mirror in place of fireplace. it has multiple candles on the shelf and there is only on red candle,wolfe2,095_R_candle,5,27,A3QAHF4UUBM7ZO,2021-02-18_11h28.45.756,MetaAwareness,2020.1.2,Win32,60,3ZCC2DXSD87UW4HFK2Q3Z5HXGNVYYT,A3QAHF4UUBM7ZO,308Q0PEVB9GWRNSWYAHM2JP69II9IV,V0800,V0800,308Q0PEVB9GWRNSWYAHM2JP69II9IV,308Q0PEVB9GWRNSWYAHM2JP69II9IV,276350,276350,,,,,,,,,,
,,,,4,8.798225,0,22,22,219,1,a messy bathroom counter with a towel hook on the wall next to it,a messy bathroom counter with no towel hook on the wall,wolfe2,087_R_towelhandle,4,27,A3QAHF4UUBM7ZO,2021-02-18_11h28.45.756,MetaAwareness,2020.1.2,Win32,60,3ZCC2DXSD87UW4HFK2Q3Z5HXGNVYYT,A3QAHF4UUBM7ZO,308Q0PEVB9GWRNSWYAHM2JP69II9IV,V0800,V0800,308Q0PEVB9GWRNSWYAHM2JP69II9IV,308Q0PEVB9GWRNSWYAHM2JP69II9IV,276350,276350,,,,,,,,,,
,,,,4,6.307375,0,23,23,142,1,a dining room with two wine glasses on the table,a dining room with three wine glasses on the table,wolfe2,061_L_glass,5,27,A3QAHF4UUBM7ZO,2021-02-18_11h28.45.756,MetaAwareness,2020.1.2,Win32,60,3ZCC2DXSD87UW4HFK2Q3Z5HXGNVYYT,A3QAHF4UUBM7ZO,308Q0PEVB9GWRNSWYAHM2JP69II9IV,V0800,V0800,308Q0PEVB9GWRNSWYAHM2JP69II9IV,308Q0PEVB9GWRNSWYAHM2JP69II9IV,276350,276350,,,,,,,,,,
,,,,4,5.75273,0,24,24,100,1,a modern living room with no clock in the cupboard,a modern living room with a clock in the cupboard,wolfe2,043_R_clock,1,27,A3QAHF4UUBM7ZO,2021-02-18_11h28.45.756,MetaAwareness,2020.1.2,Win32,60,3ZCC2DXSD87UW4HFK2Q3Z5HXGNVYYT,A3QAHF4UUBM7ZO,308Q0PEVB9GWRNSWYAHM2JP69II9IV,V0800,V0800,308Q0PEVB9GWRNSWYAHM2JP69II9IV,308Q0PEVB9GWRNSWYAHM2JP69II9IV,276350,276350,,,,,,,,,,
,,,,4,8.686855,0,25,25,78,1,a charming hotel room with a side table that has two vases sitting on it.,a charming hotel room with a side table that has two vases and a decor arrangement.,wolfe2,035_L_fruit,7,27,A3QAHF4UUBM7ZO,2021-02-18_11h28.45.756,MetaAwareness,2020.1.2,Win32,60,3ZCC2DXSD87UW4HFK2Q3Z5HXGNVYYT,A3QAHF4UUBM7ZO,308Q0PEVB9GWRNSWYAHM2JP69II9IV,V0800,V0800,308Q0PEVB9GWRNSWYAHM2JP69II9IV,308Q0PEVB9GWRNSWYAHM2JP69II9IV,276350,276350,,,,,,,,,,
,,,,4,6.96696,0,26,26,89,1,in a dinning room there is a wall with two prints on the wall,in a dinning room there is a wall with three prints on the wall,wolfe2,040_L_painting,2,27,A3QAHF4UUBM7ZO,2021-02-18_11h28.45.756,MetaAwareness,2020.1.2,Win32,60,3ZCC2DXSD87UW4HFK2Q3Z5HXGNVYYT,A3QAHF4UUBM7ZO,308Q0PEVB9GWRNSWYAHM2JP69II9IV,V0800,V0800,308Q0PEVB9GWRNSWYAHM2JP69II9IV,308Q0PEVB9GWRNSWYAHM2JP69II9IV,276350,276350,,,,,,,,,,
,,,,3,11.163355,0,27,27,112,1,a very elegant bedroom witha mirrored closet and nothing hanging near the closet doors.,a very elegant bedroom with a mirrored closet and a framed picture hanging to the left of the closet doors.,wolfe2,049_L_painting,2,27,A3QAHF4UUBM7ZO,2021-02-18_11h28.45.756,MetaAwareness,2020.1.2,Win32,60,3ZCC2DXSD87UW4HFK2Q3Z5HXGNVYYT,A3QAHF4UUBM7ZO,308Q0PEVB9GWRNSWYAHM2JP69II9IV,V0800,V0800,308Q0PEVB9GWRNSWYAHM2JP69II9IV,308Q0PEVB9GWRNSWYAHM2JP69II9IV,276350,276350,,,,,,,,,,
,,,,3,7.332495,0,28,28,132,1,a white chaise lounge sofa,a white chaise lounge sofa with a brown throw blanket draped,wolfe2,056_R_comforter,2,27,A3QAHF4UUBM7ZO,2021-02-18_11h28.45.756,MetaAwareness,2020.1.2,Win32,60,3ZCC2DXSD87UW4HFK2Q3Z5HXGNVYYT,A3QAHF4UUBM7ZO,308Q0PEVB9GWRNSWYAHM2JP69II9IV,V0800,V0800,308Q0PEVB9GWRNSWYAHM2JP69II9IV,308Q0PEVB9GWRNSWYAHM2JP69II9IV,276350,276350,,,,,,,,,,
,,,,1,4.75949,0,29,29,95,1,it is an empty wall,it has a water pipe,wolfe2,042_L_tap,1,27,A3QAHF4UUBM7ZO,2021-02-18_11h28.45.756,MetaAwareness,2020.1.2,Win32,60,3ZCC2DXSD87UW4HFK2Q3Z5HXGNVYYT,A3QAHF4UUBM7ZO,308Q0PEVB9GWRNSWYAHM2JP69II9IV,V0800,V0800,308Q0PEVB9GWRNSWYAHM2JP69II9IV,308Q0PEVB9GWRNSWYAHM2JP69II9IV,276350,276350,,,,,,,,,,
,,,,,,,,,,,,,,,,27,A3QAHF4UUBM7ZO,2021-02-18_11h28.45.756,MetaAwareness,2020.1.2,Win32,60,3ZCC2DXSD87UW4HFK2Q3Z5HXGNVYYT,A3QAHF4UUBM7ZO,308Q0PEVB9GWRNSWYAHM2JP69II9IV,V0800,V0800,308Q0PEVB9GWRNSWYAHM2JP69II9IV,308Q0PEVB9GWRNSWYAHM2JP69II9IV,276350,276350,6,13.977945,someone laying underneath a blue beach umbrella on a crowded beach,someone laying underneath a blue beach umbrella on a crowded beach,same,1,12.478275,members of a marching band crossing a track that all have feather plumes at the front of their hats,a cluttered and rustic looking cafe with 10 hanging lights,different
