consent_response.keys,consent_response.rt,key_resp_2.keys,key_resp_2.rt,user_resp.keys,user_resp.rt,trials.thisRepN,trials.thisTrialN,trials.thisN,trials.thisIndex,trials.ran,image_1_text,image_2_text,database,image,number,age,worker_ID,date,expName,psychopyVersion,OS,frameRate,hitId,workerId,assignmentId,a,tp_a,b,tp_b,c,tp_c,catch_same_resp.keys,catch_same_resp.rt,image_1_text_catch_same,image_2_text_catch_same,image_catch_same,catch_different_resp.keys,catch_different_resp.rt,image_1_text_catch_different,image_2_text_catch_different,image_catch_different
space,5.320915,space,15.242045,4,8.851725,0,0,0,88,1,a very large room with a large table with chairs and a large sofa,"a very large room with a large table with chairs and a large sofa, with a vent on the ceiling above the sofa",wolfe2,039_R_ventilator,4,35,A3U2VUZ2L7HIWG,2021-02-18_11h14.28.103,MetaAwareness,2020.1.2,Win32,60,3ZCC2DXSD87UW4HFK2Q3Z5HXGNVYYT,A3U2VUZ2L7HIWG,3PH3VY7DJM0TY9UERPF0GY073W4WZ4,DVHP0,DVHP0,3PH3VY7DJM0TY9UERPF0GY073W4WZ4,3PH3VY7DJM0TY9UERPF0GY073W4WZ4,276350,276350,,,,,,,,,,
,,,,6,6.462785,0,1,1,261,1,in the dark restaurant there are cozy tables with candles on them.,in the dark restaurant most of the cozy tables have candles on them.,wolfe2,104_R_bottle,3,35,A3U2VUZ2L7HIWG,2021-02-18_11h14.28.103,MetaAwareness,2020.1.2,Win32,60,3ZCC2DXSD87UW4HFK2Q3Z5HXGNVYYT,A3U2VUZ2L7HIWG,3PH3VY7DJM0TY9UERPF0GY073W4WZ4,DVHP0,DVHP0,3PH3VY7DJM0TY9UERPF0GY073W4WZ4,3PH3VY7DJM0TY9UERPF0GY073W4WZ4,276350,276350,,,,,,,,,,
,,,,3,7.970385,0,2,2,113,1,a stylish bedroom that doesn't have any framed pictures on the walls next to the large full length mirror.,a stylish bedroom that has one framed picture on the wall next to the large full length mirror.,wolfe2,049_R_painting,4,35,A3U2VUZ2L7HIWG,2021-02-18_11h14.28.103,MetaAwareness,2020.1.2,Win32,60,3ZCC2DXSD87UW4HFK2Q3Z5HXGNVYYT,A3U2VUZ2L7HIWG,3PH3VY7DJM0TY9UERPF0GY073W4WZ4,DVHP0,DVHP0,3PH3VY7DJM0TY9UERPF0GY073W4WZ4,3PH3VY7DJM0TY9UERPF0GY073W4WZ4,276350,276350,,,,,,,,,,
,,,,3,8.4297,0,3,3,59,1,a bathroom with one hanging bath towel,a bathroom with two hanging bath towels,wolfe2,028_R_vase,4,35,A3U2VUZ2L7HIWG,2021-02-18_11h14.28.103,MetaAwareness,2020.1.2,Win32,60,3ZCC2DXSD87UW4HFK2Q3Z5HXGNVYYT,A3U2VUZ2L7HIWG,3PH3VY7DJM0TY9UERPF0GY073W4WZ4,DVHP0,DVHP0,3PH3VY7DJM0TY9UERPF0GY073W4WZ4,3PH3VY7DJM0TY9UERPF0GY073W4WZ4,276350,276350,,,,,,,,,,
,,,,3,5.6145,0,4,4,68,1,a sunlit modern living room with one beam crossing the ceiling,a sunlit modern living room with two beams crossing the ceiling,wolfe2,031_R_log,3,35,A3U2VUZ2L7HIWG,2021-02-18_11h14.28.103,MetaAwareness,2020.1.2,Win32,60,3ZCC2DXSD87UW4HFK2Q3Z5HXGNVYYT,A3U2VUZ2L7HIWG,3PH3VY7DJM0TY9UERPF0GY073W4WZ4,DVHP0,DVHP0,3PH3VY7DJM0TY9UERPF0GY073W4WZ4,3PH3VY7DJM0TY9UERPF0GY073W4WZ4,276350,276350,,,,,,,,,,
,,,,2,7.431195,0,5,5,219,1,a messy bathroom counter with a towel hook on the wall next to it,a messy bathroom counter with no towel hook on the wall,wolfe2,087_R_towelhandle,4,35,A3U2VUZ2L7HIWG,2021-02-18_11h14.28.103,MetaAwareness,2020.1.2,Win32,60,3ZCC2DXSD87UW4HFK2Q3Z5HXGNVYYT,A3U2VUZ2L7HIWG,3PH3VY7DJM0TY9UERPF0GY073W4WZ4,DVHP0,DVHP0,3PH3VY7DJM0TY9UERPF0GY073W4WZ4,3PH3VY7DJM0TY9UERPF0GY073W4WZ4,276350,276350,,,,,,,,,,
,,,,1,8.483395,0,6,6,226,1,a simple hair salon with decorated images of hair cuts and different individuals,a simple hair salon with minimal decor of images of hair cuts and different individuals,wolfe2,089_L_poster,3,35,A3U2VUZ2L7HIWG,2021-02-18_11h14.28.103,MetaAwareness,2020.1.2,Win32,60,3ZCC2DXSD87UW4HFK2Q3Z5HXGNVYYT,A3U2VUZ2L7HIWG,3PH3VY7DJM0TY9UERPF0GY073W4WZ4,DVHP0,DVHP0,3PH3VY7DJM0TY9UERPF0GY073W4WZ4,3PH3VY7DJM0TY9UERPF0GY073W4WZ4,276350,276350,,,,,,,,,,
,,,,3,9.71723,0,7,7,64,1,a sunny bathroom with two counter and sink units,a sunny bathroom with one long counter and two sinks,wolfe2,030_L_drawer,6,35,A3U2VUZ2L7HIWG,2021-02-18_11h14.28.103,MetaAwareness,2020.1.2,Win32,60,3ZCC2DXSD87UW4HFK2Q3Z5HXGNVYYT,A3U2VUZ2L7HIWG,3PH3VY7DJM0TY9UERPF0GY073W4WZ4,DVHP0,DVHP0,3PH3VY7DJM0TY9UERPF0GY073W4WZ4,3PH3VY7DJM0TY9UERPF0GY073W4WZ4,276350,276350,,,,,,,,,,
,,,,5,10.42102,0,8,8,184,1,spa like bathroom with neutral wall color,spa like bathroomwith neutral wall color and white towel fixture,wolfe2,076_R_hook,2,35,A3U2VUZ2L7HIWG,2021-02-18_11h14.28.103,MetaAwareness,2020.1.2,Win32,60,3ZCC2DXSD87UW4HFK2Q3Z5HXGNVYYT,A3U2VUZ2L7HIWG,3PH3VY7DJM0TY9UERPF0GY073W4WZ4,DVHP0,DVHP0,3PH3VY7DJM0TY9UERPF0GY073W4WZ4,3PH3VY7DJM0TY9UERPF0GY073W4WZ4,276350,276350,,,,,,,,,,
,,,,3,12.99894,0,9,9,208,1,this is a luxury beach condo with a blank wall next to the door,this is a luxury beach condo with a wall sconce on the wall next to the door,wolfe2,084_R_light,9,35,A3U2VUZ2L7HIWG,2021-02-18_11h14.28.103,MetaAwareness,2020.1.2,Win32,60,3ZCC2DXSD87UW4HFK2Q3Z5HXGNVYYT,A3U2VUZ2L7HIWG,3PH3VY7DJM0TY9UERPF0GY073W4WZ4,DVHP0,DVHP0,3PH3VY7DJM0TY9UERPF0GY073W4WZ4,3PH3VY7DJM0TY9UERPF0GY073W4WZ4,276350,276350,,,,,,,,,,
,,,,2,9.028225,0,10,10,310,1,it is a guest house there are chair and table present and natural scenary present there is an water can present inside the box,it is a guest house there are chair and table present and natural scenary present. there is no object present in the box,wolfe2,124_L_vase,1,35,A3U2VUZ2L7HIWG,2021-02-18_11h14.28.103,MetaAwareness,2020.1.2,Win32,60,3ZCC2DXSD87UW4HFK2Q3Z5HXGNVYYT,A3U2VUZ2L7HIWG,3PH3VY7DJM0TY9UERPF0GY073W4WZ4,DVHP0,DVHP0,3PH3VY7DJM0TY9UERPF0GY073W4WZ4,3PH3VY7DJM0TY9UERPF0GY073W4WZ4,276350,276350,,,,,,,,,,
,,,,5,8.87846,0,11,11,196,1,"catch-all room with big front windows, black book shelf with clean floor","catch-all room with big front windows, black book shelf with object on the floor next to the left leg of book shelf",wolfe2,081_L_football,1,35,A3U2VUZ2L7HIWG,2021-02-18_11h14.28.103,MetaAwareness,2020.1.2,Win32,60,3ZCC2DXSD87UW4HFK2Q3Z5HXGNVYYT,A3U2VUZ2L7HIWG,3PH3VY7DJM0TY9UERPF0GY073W4WZ4,DVHP0,DVHP0,3PH3VY7DJM0TY9UERPF0GY073W4WZ4,3PH3VY7DJM0TY9UERPF0GY073W4WZ4,276350,276350,,,,,,,,,,
,,,,1,6.428825,0,12,12,316,1,a living room with a decorative piece of art below the tv.,a living room with no items underneath the tv.,wolfe2,126_R_candles,2,35,A3U2VUZ2L7HIWG,2021-02-18_11h14.28.103,MetaAwareness,2020.1.2,Win32,60,3ZCC2DXSD87UW4HFK2Q3Z5HXGNVYYT,A3U2VUZ2L7HIWG,3PH3VY7DJM0TY9UERPF0GY073W4WZ4,DVHP0,DVHP0,3PH3VY7DJM0TY9UERPF0GY073W4WZ4,3PH3VY7DJM0TY9UERPF0GY073W4WZ4,276350,276350,,,,,,,,,,
,,,,5,10.99739,0,13,13,287,1,a gathering room or lobby in an upscale cabin resort with a small decorative tree in the far corner,a gathering room or lobby in upscale cabin resort,wolfe2,113_R_plant,1,35,A3U2VUZ2L7HIWG,2021-02-18_11h14.28.103,MetaAwareness,2020.1.2,Win32,60,3ZCC2DXSD87UW4HFK2Q3Z5HXGNVYYT,A3U2VUZ2L7HIWG,3PH3VY7DJM0TY9UERPF0GY073W4WZ4,DVHP0,DVHP0,3PH3VY7DJM0TY9UERPF0GY073W4WZ4,3PH3VY7DJM0TY9UERPF0GY073W4WZ4,276350,276350,,,,,,,,,,
,,,,2,10.83141,0,14,14,115,1,"a european contemporary style bedroom that has a wall of closets and shelves. on the left set of shelves, all but one contain books.","a european contemporary style bedroom that has a wall of closets and shelves. on the left set of shelves, all of them are holding books.",wolfe2,050_L_book,3,35,A3U2VUZ2L7HIWG,2021-02-18_11h14.28.103,MetaAwareness,2020.1.2,Win32,60,3ZCC2DXSD87UW4HFK2Q3Z5HXGNVYYT,A3U2VUZ2L7HIWG,3PH3VY7DJM0TY9UERPF0GY073W4WZ4,DVHP0,DVHP0,3PH3VY7DJM0TY9UERPF0GY073W4WZ4,3PH3VY7DJM0TY9UERPF0GY073W4WZ4,276350,276350,,,,,,,,,,
,,,,6,10.460775,0,15,15,53,1,"a room with flower washes,  two wash basin and sanidizer present","a room with flower washes, two wash basin and sanidizer present",wolfe2,027_L_soapdish,1,35,A3U2VUZ2L7HIWG,2021-02-18_11h14.28.103,MetaAwareness,2020.1.2,Win32,60,3ZCC2DXSD87UW4HFK2Q3Z5HXGNVYYT,A3U2VUZ2L7HIWG,3PH3VY7DJM0TY9UERPF0GY073W4WZ4,DVHP0,DVHP0,3PH3VY7DJM0TY9UERPF0GY073W4WZ4,3PH3VY7DJM0TY9UERPF0GY073W4WZ4,276350,276350,,,,,,,,,,
,,,,5,8.01498,0,16,16,51,1,a well lit bathroom with a white and brown theme,a well lit bathroom with a white a brown theme that is missing a shelf,wolfe2,026_R_rack,2,35,A3U2VUZ2L7HIWG,2021-02-18_11h14.28.103,MetaAwareness,2020.1.2,Win32,60,3ZCC2DXSD87UW4HFK2Q3Z5HXGNVYYT,A3U2VUZ2L7HIWG,3PH3VY7DJM0TY9UERPF0GY073W4WZ4,DVHP0,DVHP0,3PH3VY7DJM0TY9UERPF0GY073W4WZ4,3PH3VY7DJM0TY9UERPF0GY073W4WZ4,276350,276350,,,,,,,,,,
,,,,3,6.933565,0,17,17,278,1,a patio with two plants that overlooks a pool outside,a patio with one plant that overlooks a pool outside,wolfe2,110_R_plant,1,35,A3U2VUZ2L7HIWG,2021-02-18_11h14.28.103,MetaAwareness,2020.1.2,Win32,60,3ZCC2DXSD87UW4HFK2Q3Z5HXGNVYYT,A3U2VUZ2L7HIWG,3PH3VY7DJM0TY9UERPF0GY073W4WZ4,DVHP0,DVHP0,3PH3VY7DJM0TY9UERPF0GY073W4WZ4,3PH3VY7DJM0TY9UERPF0GY073W4WZ4,276350,276350,,,,,,,,,,
,,,,6,5.789975,0,18,18,189,1,a chiar without leg support,a chair with leg support,wolfe2,077_R_footrest,4,35,A3U2VUZ2L7HIWG,2021-02-18_11h14.28.103,MetaAwareness,2020.1.2,Win32,60,3ZCC2DXSD87UW4HFK2Q3Z5HXGNVYYT,A3U2VUZ2L7HIWG,3PH3VY7DJM0TY9UERPF0GY073W4WZ4,DVHP0,DVHP0,3PH3VY7DJM0TY9UERPF0GY073W4WZ4,3PH3VY7DJM0TY9UERPF0GY073W4WZ4,276350,276350,,,,,,,,,,
,,,,3,11.66437,0,19,19,313,1,a little stool appears in the right corner,no one has appear in the right corner yellow space,wolfe2,125_R_sofa,1,35,A3U2VUZ2L7HIWG,2021-02-18_11h14.28.103,MetaAwareness,2020.1.2,Win32,60,3ZCC2DXSD87UW4HFK2Q3Z5HXGNVYYT,A3U2VUZ2L7HIWG,3PH3VY7DJM0TY9UERPF0GY073W4WZ4,DVHP0,DVHP0,3PH3VY7DJM0TY9UERPF0GY073W4WZ4,3PH3VY7DJM0TY9UERPF0GY073W4WZ4,276350,276350,,,,,,,,,,
,,,,5,6.108005,0,20,20,83,1,a dining area with brown chairs and table,"a dining area with brown chairs, a table, and artwork hanging near the table",wolfe2,038_R_art,4,35,A3U2VUZ2L7HIWG,2021-02-18_11h14.28.103,MetaAwareness,2020.1.2,Win32,60,3ZCC2DXSD87UW4HFK2Q3Z5HXGNVYYT,A3U2VUZ2L7HIWG,3PH3VY7DJM0TY9UERPF0GY073W4WZ4,DVHP0,DVHP0,3PH3VY7DJM0TY9UERPF0GY073W4WZ4,3PH3VY7DJM0TY9UERPF0GY073W4WZ4,276350,276350,,,,,,,,,,
,,,,2,6.34172,0,21,21,32,1,a red and white living room with large windows and an unlit fireplace,a red and white livving room with large windows and a lit fireplace,wolfe2,017_L_wood,2,35,A3U2VUZ2L7HIWG,2021-02-18_11h14.28.103,MetaAwareness,2020.1.2,Win32,60,3ZCC2DXSD87UW4HFK2Q3Z5HXGNVYYT,A3U2VUZ2L7HIWG,3PH3VY7DJM0TY9UERPF0GY073W4WZ4,DVHP0,DVHP0,3PH3VY7DJM0TY9UERPF0GY073W4WZ4,3PH3VY7DJM0TY9UERPF0GY073W4WZ4,276350,276350,,,,,,,,,,
,,,,1,5.023675,0,22,22,179,1,a coffee table in middle of living room,a book is sitting on a table,wolfe2,074_R_book,7,35,A3U2VUZ2L7HIWG,2021-02-18_11h14.28.103,MetaAwareness,2020.1.2,Win32,60,3ZCC2DXSD87UW4HFK2Q3Z5HXGNVYYT,A3U2VUZ2L7HIWG,3PH3VY7DJM0TY9UERPF0GY073W4WZ4,DVHP0,DVHP0,3PH3VY7DJM0TY9UERPF0GY073W4WZ4,3PH3VY7DJM0TY9UERPF0GY073W4WZ4,276350,276350,,,,,,,,,,
,,,,3,6.742325,0,23,23,280,1,a house witha few of the backyard with pool. small plant in the corner of the room,a house with a view of the backyard with a pool. no plant in the corner of the room,wolfe2,110_R_plant,5,35,A3U2VUZ2L7HIWG,2021-02-18_11h14.28.103,MetaAwareness,2020.1.2,Win32,60,3ZCC2DXSD87UW4HFK2Q3Z5HXGNVYYT,A3U2VUZ2L7HIWG,3PH3VY7DJM0TY9UERPF0GY073W4WZ4,DVHP0,DVHP0,3PH3VY7DJM0TY9UERPF0GY073W4WZ4,3PH3VY7DJM0TY9UERPF0GY073W4WZ4,276350,276350,,,,,,,,,,
,,,,2,13.633395,0,24,24,244,1,"the image is blending and matches with grace.   the item, likely shoes, on the floor, give it a suggestion of peace or home.",this image is a little severe.  it needs something more than the carpet strip to give it a comfortable appearance.,wolfe2,098_R_slippers,2,35,A3U2VUZ2L7HIWG,2021-02-18_11h14.28.103,MetaAwareness,2020.1.2,Win32,60,3ZCC2DXSD87UW4HFK2Q3Z5HXGNVYYT,A3U2VUZ2L7HIWG,3PH3VY7DJM0TY9UERPF0GY073W4WZ4,DVHP0,DVHP0,3PH3VY7DJM0TY9UERPF0GY073W4WZ4,3PH3VY7DJM0TY9UERPF0GY073W4WZ4,276350,276350,,,,,,,,,,
,,,,5,7.26179,0,25,25,262,1,"a bedroom with a cheetah print comforter, two blankets and a hat on the bed",a bedroom with a cheetah print comforter and two blankets on the bed,wolfe2,105_L_hat,2,35,A3U2VUZ2L7HIWG,2021-02-18_11h14.28.103,MetaAwareness,2020.1.2,Win32,60,3ZCC2DXSD87UW4HFK2Q3Z5HXGNVYYT,A3U2VUZ2L7HIWG,3PH3VY7DJM0TY9UERPF0GY073W4WZ4,DVHP0,DVHP0,3PH3VY7DJM0TY9UERPF0GY073W4WZ4,3PH3VY7DJM0TY9UERPF0GY073W4WZ4,276350,276350,,,,,,,,,,
,,,,3,5.9085,0,26,26,63,1,a bathroom where you can walk to the window,a bathroom with a counter in front of the window,wolfe2,030_L_drawer,4,35,A3U2VUZ2L7HIWG,2021-02-18_11h14.28.103,MetaAwareness,2020.1.2,Win32,60,3ZCC2DXSD87UW4HFK2Q3Z5HXGNVYYT,A3U2VUZ2L7HIWG,3PH3VY7DJM0TY9UERPF0GY073W4WZ4,DVHP0,DVHP0,3PH3VY7DJM0TY9UERPF0GY073W4WZ4,3PH3VY7DJM0TY9UERPF0GY073W4WZ4,276350,276350,,,,,,,,,,
,,,,2,7.42242,0,27,27,148,1,dining room with 6 chairs,dining room with wine bottles on desk in the back,wolfe2,064_L_bottles,3,35,A3U2VUZ2L7HIWG,2021-02-18_11h14.28.103,MetaAwareness,2020.1.2,Win32,60,3ZCC2DXSD87UW4HFK2Q3Z5HXGNVYYT,A3U2VUZ2L7HIWG,3PH3VY7DJM0TY9UERPF0GY073W4WZ4,DVHP0,DVHP0,3PH3VY7DJM0TY9UERPF0GY073W4WZ4,3PH3VY7DJM0TY9UERPF0GY073W4WZ4,276350,276350,,,,,,,,,,
,,,,3,5.884125,0,28,28,47,1,a nice living room with a shelf that contains a club,a nice living room with a shelf that contains two clubs,wolfe2,025_L_vase,4,35,A3U2VUZ2L7HIWG,2021-02-18_11h14.28.103,MetaAwareness,2020.1.2,Win32,60,3ZCC2DXSD87UW4HFK2Q3Z5HXGNVYYT,A3U2VUZ2L7HIWG,3PH3VY7DJM0TY9UERPF0GY073W4WZ4,DVHP0,DVHP0,3PH3VY7DJM0TY9UERPF0GY073W4WZ4,3PH3VY7DJM0TY9UERPF0GY073W4WZ4,276350,276350,,,,,,,,,,
,,,,2,6.224855,0,29,29,265,1,a bedroom with a bed that has a hat on it.,a bedroom with a bed that doesn't have a hat on it,wolfe2,105_R_hat,4,35,A3U2VUZ2L7HIWG,2021-02-18_11h14.28.103,MetaAwareness,2020.1.2,Win32,60,3ZCC2DXSD87UW4HFK2Q3Z5HXGNVYYT,A3U2VUZ2L7HIWG,3PH3VY7DJM0TY9UERPF0GY073W4WZ4,DVHP0,DVHP0,3PH3VY7DJM0TY9UERPF0GY073W4WZ4,3PH3VY7DJM0TY9UERPF0GY073W4WZ4,276350,276350,,,,,,,,,,
,,,,,,,,,,,,,,,,35,A3U2VUZ2L7HIWG,2021-02-18_11h14.28.103,MetaAwareness,2020.1.2,Win32,60,3ZCC2DXSD87UW4HFK2Q3Z5HXGNVYYT,A3U2VUZ2L7HIWG,3PH3VY7DJM0TY9UERPF0GY073W4WZ4,DVHP0,DVHP0,3PH3VY7DJM0TY9UERPF0GY073W4WZ4,3PH3VY7DJM0TY9UERPF0GY073W4WZ4,276350,276350,6,7.10906,someone laying underneath a blue beach umbrella on a crowded beach,someone laying underneath a blue beach umbrella on a crowded beach,same,6,1.90802,members of a marching band crossing a track that all have feather plumes at the front of their hats,a cluttered and rustic looking cafe with 10 hanging lights,different
