consent_response.keys,consent_response.rt,key_resp_2.keys,key_resp_2.rt,user_resp.keys,user_resp.rt,trials.thisRepN,trials.thisTrialN,trials.thisN,trials.thisIndex,trials.ran,image_1_text,image_2_text,database,image,number,age,worker_ID,date,expName,psychopyVersion,OS,frameRate,hitId,workerId,assignmentId,a,tp_a,b,tp_b,c,tp_c,catch_same_resp.keys,catch_same_resp.rt,image_1_text_catch_same,image_2_text_catch_same,image_catch_same,catch_different_resp.keys,catch_different_resp.rt,image_1_text_catch_different,image_2_text_catch_different,image_catch_different
space,24.70339,space,65.34098,3,6.96041,0,0,0,139,1,this brightly colored child's bedroom has a decorative car above the closet.num_enter,this brightly colored childs bedroom has many cars on the floor,wolfe2,059_R_car,3,33,A3VG22WR5I4UG2,2021-02-18_09h27.05.937,MetaAwareness,2020.1.2,Win32,60,37M4O367VKLW0ZIHQXXVUDWXC8C5MT,A3VG22WR5I4UG2,34Z02EIMITG447KUSQXXNFQMHUZ0TK,M2Z40,M2Z40,34Z02EIMITG447KUSQXXNFQMHUZ0TK,34Z02EIMITG447KUSQXXNFQMHUZ0TK,276350,276350,,,,,,,,,,
,,,,1,6.263495,0,1,1,69,1,bathroom cleaner only one has,bathroom cleaner has two pieces,wolfe2,032_R_bottle,3,33,A3VG22WR5I4UG2,2021-02-18_09h27.05.937,MetaAwareness,2020.1.2,Win32,60,37M4O367VKLW0ZIHQXXVUDWXC8C5MT,A3VG22WR5I4UG2,34Z02EIMITG447KUSQXXNFQMHUZ0TK,M2Z40,M2Z40,34Z02EIMITG447KUSQXXNFQMHUZ0TK,34Z02EIMITG447KUSQXXNFQMHUZ0TK,276350,276350,,,,,,,,,,
,,,,3,5.846025,0,2,2,72,1,a white living room with no vase on the shelf,a white living room with a glass vase on the shelf,wolfe2,033_L_vase,3,33,A3VG22WR5I4UG2,2021-02-18_09h27.05.937,MetaAwareness,2020.1.2,Win32,60,37M4O367VKLW0ZIHQXXVUDWXC8C5MT,A3VG22WR5I4UG2,34Z02EIMITG447KUSQXXNFQMHUZ0TK,M2Z40,M2Z40,34Z02EIMITG447KUSQXXNFQMHUZ0TK,34Z02EIMITG447KUSQXXNFQMHUZ0TK,276350,276350,,,,,,,,,,
,,,,3,6.608215,0,3,3,81,1,a bathroom area with two brown towels,a bathroom area with three brown towels,wolfe2,037_R_towel,2,33,A3VG22WR5I4UG2,2021-02-18_09h27.05.937,MetaAwareness,2020.1.2,Win32,60,37M4O367VKLW0ZIHQXXVUDWXC8C5MT,A3VG22WR5I4UG2,34Z02EIMITG447KUSQXXNFQMHUZ0TK,M2Z40,M2Z40,34Z02EIMITG447KUSQXXNFQMHUZ0TK,34Z02EIMITG447KUSQXXNFQMHUZ0TK,276350,276350,,,,,,,,,,
,,,,2,9.483395,0,4,4,96,1,a bathrom with two bowl shaped sinks with the one on the right  missing a faucet,a bathroom with two bowl shaped sinks and two faucets.,wolfe2,042_L_tap,4,33,A3VG22WR5I4UG2,2021-02-18_09h27.05.937,MetaAwareness,2020.1.2,Win32,60,37M4O367VKLW0ZIHQXXVUDWXC8C5MT,A3VG22WR5I4UG2,34Z02EIMITG447KUSQXXNFQMHUZ0TK,M2Z40,M2Z40,34Z02EIMITG447KUSQXXNFQMHUZ0TK,34Z02EIMITG447KUSQXXNFQMHUZ0TK,276350,276350,,,,,,,,,,
,,,,3,6.89732,0,5,5,271,1,a clothing rack with a white shirt outside of the rack at the end,a clothing rack with a white shirt inside of the rack,wolfe2,107_L_shirts,5,33,A3VG22WR5I4UG2,2021-02-18_09h27.05.937,MetaAwareness,2020.1.2,Win32,60,37M4O367VKLW0ZIHQXXVUDWXC8C5MT,A3VG22WR5I4UG2,34Z02EIMITG447KUSQXXNFQMHUZ0TK,M2Z40,M2Z40,34Z02EIMITG447KUSQXXNFQMHUZ0TK,34Z02EIMITG447KUSQXXNFQMHUZ0TK,276350,276350,,,,,,,,,,
,,,,3,16.965745,0,6,6,98,1,a very stylish and contemporary looking bathroom that has a lot of tan and brown coloring and two sinks and one faucet,a very stylish and contemporary looking bathroom that has a lot of tan and brown coloring and two sinks and two faucets,wolfe2,042_R_tap,5,33,A3VG22WR5I4UG2,2021-02-18_09h27.05.937,MetaAwareness,2020.1.2,Win32,60,37M4O367VKLW0ZIHQXXVUDWXC8C5MT,A3VG22WR5I4UG2,34Z02EIMITG447KUSQXXNFQMHUZ0TK,M2Z40,M2Z40,34Z02EIMITG447KUSQXXNFQMHUZ0TK,34Z02EIMITG447KUSQXXNFQMHUZ0TK,276350,276350,,,,,,,,,,
,,,,2,8.670425,0,7,7,32,1,a red and white living room with large windows and an unlit fireplace,a red and white livving room with large windows and a lit fireplace,wolfe2,017_L_wood,2,33,A3VG22WR5I4UG2,2021-02-18_09h27.05.937,MetaAwareness,2020.1.2,Win32,60,37M4O367VKLW0ZIHQXXVUDWXC8C5MT,A3VG22WR5I4UG2,34Z02EIMITG447KUSQXXNFQMHUZ0TK,M2Z40,M2Z40,34Z02EIMITG447KUSQXXNFQMHUZ0TK,34Z02EIMITG447KUSQXXNFQMHUZ0TK,276350,276350,,,,,,,,,,
,,,,3,5.77783,0,8,8,47,1,a nice living room with a shelf that contains a club,a nice living room with a shelf that contains two clubs,wolfe2,025_L_vase,4,33,A3VG22WR5I4UG2,2021-02-18_09h27.05.937,MetaAwareness,2020.1.2,Win32,60,37M4O367VKLW0ZIHQXXVUDWXC8C5MT,A3VG22WR5I4UG2,34Z02EIMITG447KUSQXXNFQMHUZ0TK,M2Z40,M2Z40,34Z02EIMITG447KUSQXXNFQMHUZ0TK,34Z02EIMITG447KUSQXXNFQMHUZ0TK,276350,276350,,,,,,,,,,
,,,,3,4.322575,0,9,9,103,1,"shiny, bright and clean washroom","shiny, bright and clean washroom with a light inside a brown square",wolfe2,044_R_light,2,33,A3VG22WR5I4UG2,2021-02-18_09h27.05.937,MetaAwareness,2020.1.2,Win32,60,37M4O367VKLW0ZIHQXXVUDWXC8C5MT,A3VG22WR5I4UG2,34Z02EIMITG447KUSQXXNFQMHUZ0TK,M2Z40,M2Z40,34Z02EIMITG447KUSQXXNFQMHUZ0TK,34Z02EIMITG447KUSQXXNFQMHUZ0TK,276350,276350,,,,,,,,,,
,,,,3,3.925055,0,10,10,18,1,a blue themed bathroom,a blue themed bathroom with a bottle missing,wolfe2,008_R_bottle,1,33,A3VG22WR5I4UG2,2021-02-18_09h27.05.937,MetaAwareness,2020.1.2,Win32,60,37M4O367VKLW0ZIHQXXVUDWXC8C5MT,A3VG22WR5I4UG2,34Z02EIMITG447KUSQXXNFQMHUZ0TK,M2Z40,M2Z40,34Z02EIMITG447KUSQXXNFQMHUZ0TK,34Z02EIMITG447KUSQXXNFQMHUZ0TK,276350,276350,,,,,,,,,,
,,,,3,8.48116,0,11,11,229,1,"a very neat bedroom with a bed, mirrors and a small lamp in the corner","a very neat bedroom with a bed, mirrors and no lamp in the corner",wolfe2,090_L_lamp,2,33,A3VG22WR5I4UG2,2021-02-18_09h27.05.937,MetaAwareness,2020.1.2,Win32,60,37M4O367VKLW0ZIHQXXVUDWXC8C5MT,A3VG22WR5I4UG2,34Z02EIMITG447KUSQXXNFQMHUZ0TK,M2Z40,M2Z40,34Z02EIMITG447KUSQXXNFQMHUZ0TK,34Z02EIMITG447KUSQXXNFQMHUZ0TK,276350,276350,,,,,,,,,,
,,,,3,5.444245,0,12,12,56,1,a black bathroom countertop with a metal block sitting on top,a black bathroom countertop with two metal blocks sitting on top,wolfe2,028_L_vase,3,33,A3VG22WR5I4UG2,2021-02-18_09h27.05.937,MetaAwareness,2020.1.2,Win32,60,37M4O367VKLW0ZIHQXXVUDWXC8C5MT,A3VG22WR5I4UG2,34Z02EIMITG447KUSQXXNFQMHUZ0TK,M2Z40,M2Z40,34Z02EIMITG447KUSQXXNFQMHUZ0TK,34Z02EIMITG447KUSQXXNFQMHUZ0TK,276350,276350,,,,,,,,,,
,,,,3,7.02719,0,13,13,237,1,this object shows a person beauitful and the white bottle,the object shows a person beauitful and the white bottle is missing,wolfe2,095_L_candle,1,33,A3VG22WR5I4UG2,2021-02-18_09h27.05.937,MetaAwareness,2020.1.2,Win32,60,37M4O367VKLW0ZIHQXXVUDWXC8C5MT,A3VG22WR5I4UG2,34Z02EIMITG447KUSQXXNFQMHUZ0TK,M2Z40,M2Z40,34Z02EIMITG447KUSQXXNFQMHUZ0TK,34Z02EIMITG447KUSQXXNFQMHUZ0TK,276350,276350,,,,,,,,,,
,,,,3,2.01221,0,14,14,97,1,"this tiled bathroom is cream in color, with brown accents set by the towels and the rug on the floor.","this lovely tiled bathroom is cream in color, and there are two faucets on the wall, each going into it's own basin, and each has it's own mirror above it.",wolfe2,042_L_tap,5,33,A3VG22WR5I4UG2,2021-02-18_09h27.05.937,MetaAwareness,2020.1.2,Win32,60,37M4O367VKLW0ZIHQXXVUDWXC8C5MT,A3VG22WR5I4UG2,34Z02EIMITG447KUSQXXNFQMHUZ0TK,M2Z40,M2Z40,34Z02EIMITG447KUSQXXNFQMHUZ0TK,34Z02EIMITG447KUSQXXNFQMHUZ0TK,276350,276350,,,,,,,,,,
,,,,6,8.873805,0,15,15,39,1,a small office with a desk and two circular pieces of art hanging on the wall,a small office with a desk and three circular pieces of art hanging on the wall,wolfe2,020_R_walldeco,4,33,A3VG22WR5I4UG2,2021-02-18_09h27.05.937,MetaAwareness,2020.1.2,Win32,60,37M4O367VKLW0ZIHQXXVUDWXC8C5MT,A3VG22WR5I4UG2,34Z02EIMITG447KUSQXXNFQMHUZ0TK,M2Z40,M2Z40,34Z02EIMITG447KUSQXXNFQMHUZ0TK,34Z02EIMITG447KUSQXXNFQMHUZ0TK,276350,276350,,,,,,,,,,
,,,,1,11.25147,0,16,16,222,1,wal l light has been installe on the top  of the picture,the wall light has been missing top of the picturenum,wolfe2,088_R_clock,2,33,A3VG22WR5I4UG2,2021-02-18_09h27.05.937,MetaAwareness,2020.1.2,Win32,60,37M4O367VKLW0ZIHQXXVUDWXC8C5MT,A3VG22WR5I4UG2,34Z02EIMITG447KUSQXXNFQMHUZ0TK,M2Z40,M2Z40,34Z02EIMITG447KUSQXXNFQMHUZ0TK,34Z02EIMITG447KUSQXXNFQMHUZ0TK,276350,276350,,,,,,,,,,
,,,,2,7.970015,0,17,17,9,1,"a bedroom with hardwood floors, matching wood furniture and a lamp on the night stand","a bedroom with hardwoo floors, matching wood furniture and a lamp on the night stand",wolfe2,006_L_vase,7,33,A3VG22WR5I4UG2,2021-02-18_09h27.05.937,MetaAwareness,2020.1.2,Win32,60,37M4O367VKLW0ZIHQXXVUDWXC8C5MT,A3VG22WR5I4UG2,34Z02EIMITG447KUSQXXNFQMHUZ0TK,M2Z40,M2Z40,34Z02EIMITG447KUSQXXNFQMHUZ0TK,34Z02EIMITG447KUSQXXNFQMHUZ0TK,276350,276350,,,,,,,,,,
,,,,2,6.710475,0,18,18,251,1,a bathroom with two towels displayed which also has a smaller mirror on the wall.,a bathroom with two towels displayed and no extra mirrors on the side wall.,wolfe2,100_R_mirror,5,33,A3VG22WR5I4UG2,2021-02-18_09h27.05.937,MetaAwareness,2020.1.2,Win32,60,37M4O367VKLW0ZIHQXXVUDWXC8C5MT,A3VG22WR5I4UG2,34Z02EIMITG447KUSQXXNFQMHUZ0TK,M2Z40,M2Z40,34Z02EIMITG447KUSQXXNFQMHUZ0TK,34Z02EIMITG447KUSQXXNFQMHUZ0TK,276350,276350,,,,,,,,,,
,,,,3,4.9264,0,19,19,255,1,a living room that has a plastic box sitting near a window.,a living room that does not have a plastic box on the floor by a window.,wolfe2,102_R_shoppingbag,4,33,A3VG22WR5I4UG2,2021-02-18_09h27.05.937,MetaAwareness,2020.1.2,Win32,60,37M4O367VKLW0ZIHQXXVUDWXC8C5MT,A3VG22WR5I4UG2,34Z02EIMITG447KUSQXXNFQMHUZ0TK,M2Z40,M2Z40,34Z02EIMITG447KUSQXXNFQMHUZ0TK,34Z02EIMITG447KUSQXXNFQMHUZ0TK,276350,276350,,,,,,,,,,
,,,,2,5.84564,0,20,20,296,1,there is a object behind a potted plant in this rustic room,there is just a wooden floor behind this potted plant in the rustic room,wolfe2,116_R_basket,4,33,A3VG22WR5I4UG2,2021-02-18_09h27.05.937,MetaAwareness,2020.1.2,Win32,60,37M4O367VKLW0ZIHQXXVUDWXC8C5MT,A3VG22WR5I4UG2,34Z02EIMITG447KUSQXXNFQMHUZ0TK,M2Z40,M2Z40,34Z02EIMITG447KUSQXXNFQMHUZ0TK,34Z02EIMITG447KUSQXXNFQMHUZ0TK,276350,276350,,,,,,,,,,
,,,,1,6.489275,0,21,21,75,1,push and puller not  in this,push and puller has available,wolfe2,034_R_handle,3,33,A3VG22WR5I4UG2,2021-02-18_09h27.05.937,MetaAwareness,2020.1.2,Win32,60,37M4O367VKLW0ZIHQXXVUDWXC8C5MT,A3VG22WR5I4UG2,34Z02EIMITG447KUSQXXNFQMHUZ0TK,M2Z40,M2Z40,34Z02EIMITG447KUSQXXNFQMHUZ0TK,34Z02EIMITG447KUSQXXNFQMHUZ0TK,276350,276350,,,,,,,,,,
,,,,3,5.06261,0,22,22,137,1,a childs room with a red shelf that has nothing on it,a childs room with a red shelf that has a white car on the shelf,wolfe2,059_L_car,3,33,A3VG22WR5I4UG2,2021-02-18_09h27.05.937,MetaAwareness,2020.1.2,Win32,60,37M4O367VKLW0ZIHQXXVUDWXC8C5MT,A3VG22WR5I4UG2,34Z02EIMITG447KUSQXXNFQMHUZ0TK,M2Z40,M2Z40,34Z02EIMITG447KUSQXXNFQMHUZ0TK,34Z02EIMITG447KUSQXXNFQMHUZ0TK,276350,276350,,,,,,,,,,
,,,,3,11.28032,0,23,23,230,1,a restroom with multiple sinks and mirrors surrounded by a red pinkish wallpaper with a clock at the upper left corner,a restroom with multiple sinks and mirrors surrounded by a red pinkish wallpaper,wolfe2,091_L_airfreshener,3,33,A3VG22WR5I4UG2,2021-02-18_09h27.05.937,MetaAwareness,2020.1.2,Win32,60,37M4O367VKLW0ZIHQXXVUDWXC8C5MT,A3VG22WR5I4UG2,34Z02EIMITG447KUSQXXNFQMHUZ0TK,M2Z40,M2Z40,34Z02EIMITG447KUSQXXNFQMHUZ0TK,34Z02EIMITG447KUSQXXNFQMHUZ0TK,276350,276350,,,,,,,,,,
,,,,3,6.4164,0,24,24,306,1,a sleek bedroom with a large window and a decorative item on the bedside table,a sleek bedroom with a large window and a bedside table,wolfe2,121_R_car,5,33,A3VG22WR5I4UG2,2021-02-18_09h27.05.937,MetaAwareness,2020.1.2,Win32,60,37M4O367VKLW0ZIHQXXVUDWXC8C5MT,A3VG22WR5I4UG2,34Z02EIMITG447KUSQXXNFQMHUZ0TK,M2Z40,M2Z40,34Z02EIMITG447KUSQXXNFQMHUZ0TK,34Z02EIMITG447KUSQXXNFQMHUZ0TK,276350,276350,,,,,,,,,,
,,,,3,4.570015,0,25,25,93,1,a kitchen with an empty blue bowl.,a kitchen with a bowl filled with food.,wolfe2,041_R_fruit,2,33,A3VG22WR5I4UG2,2021-02-18_09h27.05.937,MetaAwareness,2020.1.2,Win32,60,37M4O367VKLW0ZIHQXXVUDWXC8C5MT,A3VG22WR5I4UG2,34Z02EIMITG447KUSQXXNFQMHUZ0TK,M2Z40,M2Z40,34Z02EIMITG447KUSQXXNFQMHUZ0TK,34Z02EIMITG447KUSQXXNFQMHUZ0TK,276350,276350,,,,,,,,,,
,,,,3,4.47856,0,26,26,52,1,a bathroom with one shelf on the wall,a bathroom with two shelves on the wall,wolfe2,026_R_rack,3,33,A3VG22WR5I4UG2,2021-02-18_09h27.05.937,MetaAwareness,2020.1.2,Win32,60,37M4O367VKLW0ZIHQXXVUDWXC8C5MT,A3VG22WR5I4UG2,34Z02EIMITG447KUSQXXNFQMHUZ0TK,M2Z40,M2Z40,34Z02EIMITG447KUSQXXNFQMHUZ0TK,34Z02EIMITG447KUSQXXNFQMHUZ0TK,276350,276350,,,,,,,,,,
,,,,2,7.278225,0,27,27,6,1,a living room area with a painting and tv on a wall,a living room area with a painting and tv on one wall and a mirror art on the other wall,wolfe2,005_R_mirror,1,33,A3VG22WR5I4UG2,2021-02-18_09h27.05.937,MetaAwareness,2020.1.2,Win32,60,37M4O367VKLW0ZIHQXXVUDWXC8C5MT,A3VG22WR5I4UG2,34Z02EIMITG447KUSQXXNFQMHUZ0TK,M2Z40,M2Z40,34Z02EIMITG447KUSQXXNFQMHUZ0TK,34Z02EIMITG447KUSQXXNFQMHUZ0TK,276350,276350,,,,,,,,,,
,,,,2,6.399635,0,28,28,268,1,this is a gym shower or bathroo with a paper towel rack on the wall,this is a gym shower or bathroom without a paper towel rack on the wall,wolfe2,106_R_toweldispenser,6,33,A3VG22WR5I4UG2,2021-02-18_09h27.05.937,MetaAwareness,2020.1.2,Win32,60,37M4O367VKLW0ZIHQXXVUDWXC8C5MT,A3VG22WR5I4UG2,34Z02EIMITG447KUSQXXNFQMHUZ0TK,M2Z40,M2Z40,34Z02EIMITG447KUSQXXNFQMHUZ0TK,34Z02EIMITG447KUSQXXNFQMHUZ0TK,276350,276350,,,,,,,,,,
,,,,2,3.587595,0,29,29,290,1,an open lounge with a small tree near large windows,an open lounge with large windows,wolfe2,113_R_plant,4,33,A3VG22WR5I4UG2,2021-02-18_09h27.05.937,MetaAwareness,2020.1.2,Win32,60,37M4O367VKLW0ZIHQXXVUDWXC8C5MT,A3VG22WR5I4UG2,34Z02EIMITG447KUSQXXNFQMHUZ0TK,M2Z40,M2Z40,34Z02EIMITG447KUSQXXNFQMHUZ0TK,34Z02EIMITG447KUSQXXNFQMHUZ0TK,276350,276350,,,,,,,,,,
,,,,,,,,,,,,,,,,33,A3VG22WR5I4UG2,2021-02-18_09h27.05.937,MetaAwareness,2020.1.2,Win32,60,37M4O367VKLW0ZIHQXXVUDWXC8C5MT,A3VG22WR5I4UG2,34Z02EIMITG447KUSQXXNFQMHUZ0TK,M2Z40,M2Z40,34Z02EIMITG447KUSQXXNFQMHUZ0TK,34Z02EIMITG447KUSQXXNFQMHUZ0TK,276350,276350,6,6.321165,someone laying underneath a blue beach umbrella on a crowded beach,someone laying underneath a blue beach umbrella on a crowded beach,same,1,5.084755,members of a marching band crossing a track that all have feather plumes at the front of their hats,a cluttered and rustic looking cafe with 10 hanging lights,different
