consent_response.keys,consent_response.rt,key_resp_2.keys,key_resp_2.rt,user_resp.keys,user_resp.rt,trials.thisRepN,trials.thisTrialN,trials.thisN,trials.thisIndex,trials.ran,image_1_text,image_2_text,database,image,number,age,worker_ID,date,expName,psychopyVersion,OS,frameRate,hitId,workerId,assignmentId,a,tp_a,b,tp_b,c,tp_c,catch_same_resp.keys,catch_same_resp.rt,image_1_text_catch_same,image_2_text_catch_same,image_catch_same,catch_different_resp.keys,catch_different_resp.rt,image_1_text_catch_different,image_2_text_catch_different,image_catch_different
space,50.418,space,4.89,4,3.519,0,0,0,33,1,this seating area or living room is comfy looking with two nice leather sofas set a top a nice wooden floor.,"this living room has plenty of natural light that compliments the nice natural wood floors. the tv is quite small, and both the leather sofas appear to face it.",wolfe2,017_L_wood,4,33,A59E3FJSGRUKE,2021-02-18_11h14.43.770,MetaAwareness,2020.1.2,Win32,60,3ZCC2DXSD87UW4HFK2Q3Z5HXGNVYYT,A59E3FJSGRUKE,3TUI152ZZCQRJGDK7572WFY92GB1QH,Z1UT0,Z1UT0,3TUI152ZZCQRJGDK7572WFY92GB1QH,3TUI152ZZCQRJGDK7572WFY92GB1QH,276350,276350,,,,,,,,,,
,,,,5,1.265,0,1,1,273,1,a closet full of womens clothes with a dresser with a blue decoration on it,a closet full of womens clothes with a dresser with hairbrushes on it and no decor,wolfe2,108_L_boa,2,33,A59E3FJSGRUKE,2021-02-18_11h14.43.770,MetaAwareness,2020.1.2,Win32,60,3ZCC2DXSD87UW4HFK2Q3Z5HXGNVYYT,A59E3FJSGRUKE,3TUI152ZZCQRJGDK7572WFY92GB1QH,Z1UT0,Z1UT0,3TUI152ZZCQRJGDK7572WFY92GB1QH,3TUI152ZZCQRJGDK7572WFY92GB1QH,276350,276350,,,,,,,,,,
,,,,4,1.157,0,2,2,203,1,"colorful bedroom with bunkbed, table and a row of drawers on the wall with one missing",colorful bedroom with an open window and the matching drawer has a white pull fr it.,wolfe2,083_R_knob,4,33,A59E3FJSGRUKE,2021-02-18_11h14.43.770,MetaAwareness,2020.1.2,Win32,60,3ZCC2DXSD87UW4HFK2Q3Z5HXGNVYYT,A59E3FJSGRUKE,3TUI152ZZCQRJGDK7572WFY92GB1QH,Z1UT0,Z1UT0,3TUI152ZZCQRJGDK7572WFY92GB1QH,3TUI152ZZCQRJGDK7572WFY92GB1QH,276350,276350,,,,,,,,,,
,,,,3,1.271,0,3,3,148,1,dining room with 6 chairs,dining room with wine bottles on desk in the back,wolfe2,064_L_bottles,3,33,A59E3FJSGRUKE,2021-02-18_11h14.43.770,MetaAwareness,2020.1.2,Win32,60,3ZCC2DXSD87UW4HFK2Q3Z5HXGNVYYT,A59E3FJSGRUKE,3TUI152ZZCQRJGDK7572WFY92GB1QH,Z1UT0,Z1UT0,3TUI152ZZCQRJGDK7572WFY92GB1QH,3TUI152ZZCQRJGDK7572WFY92GB1QH,276350,276350,,,,,,,,,,
,,,,4,1.087,0,4,4,124,1,a stone floored bathroom with linen closet that has 1 large drawer on the bottom,a stone floored bathroom with linen closet that has 2 small drawers on the bottom,wolfe2,053_L_handle,2,33,A59E3FJSGRUKE,2021-02-18_11h14.43.770,MetaAwareness,2020.1.2,Win32,60,3ZCC2DXSD87UW4HFK2Q3Z5HXGNVYYT,A59E3FJSGRUKE,3TUI152ZZCQRJGDK7572WFY92GB1QH,Z1UT0,Z1UT0,3TUI152ZZCQRJGDK7572WFY92GB1QH,3TUI152ZZCQRJGDK7572WFY92GB1QH,276350,276350,,,,,,,,,,
,,,,5,0.995,0,5,5,35,1,a red chair placed on the corner with a plant next to it.,a red chair placed on the corner.,wolfe2,018_L_plant,6,33,A59E3FJSGRUKE,2021-02-18_11h14.43.770,MetaAwareness,2020.1.2,Win32,60,3ZCC2DXSD87UW4HFK2Q3Z5HXGNVYYT,A59E3FJSGRUKE,3TUI152ZZCQRJGDK7572WFY92GB1QH,Z1UT0,Z1UT0,3TUI152ZZCQRJGDK7572WFY92GB1QH,3TUI152ZZCQRJGDK7572WFY92GB1QH,276350,276350,,,,,,,,,,
,,,,4,0.979,0,6,6,280,1,a house witha few of the backyard with pool. small plant in the corner of the room,a house with a view of the backyard with a pool. no plant in the corner of the room,wolfe2,110_R_plant,5,33,A59E3FJSGRUKE,2021-02-18_11h14.43.770,MetaAwareness,2020.1.2,Win32,60,3ZCC2DXSD87UW4HFK2Q3Z5HXGNVYYT,A59E3FJSGRUKE,3TUI152ZZCQRJGDK7572WFY92GB1QH,Z1UT0,Z1UT0,3TUI152ZZCQRJGDK7572WFY92GB1QH,3TUI152ZZCQRJGDK7572WFY92GB1QH,276350,276350,,,,,,,,,,
,,,,3,1.019,0,7,7,112,1,a very elegant bedroom witha mirrored closet and nothing hanging near the closet doors.,a very elegant bedroom with a mirrored closet and a framed picture hanging to the left of the closet doors.,wolfe2,049_L_painting,2,33,A59E3FJSGRUKE,2021-02-18_11h14.43.770,MetaAwareness,2020.1.2,Win32,60,3ZCC2DXSD87UW4HFK2Q3Z5HXGNVYYT,A59E3FJSGRUKE,3TUI152ZZCQRJGDK7572WFY92GB1QH,Z1UT0,Z1UT0,3TUI152ZZCQRJGDK7572WFY92GB1QH,3TUI152ZZCQRJGDK7572WFY92GB1QH,276350,276350,,,,,,,,,,
,,,,5,36.889,0,8,8,194,1,there is a black cabinet in a sunny kitchen with white cabinets.,there is a cactus plant on the kitchen counter that is housed by white shelves.,wolfe2,080_R_plant,2,33,A59E3FJSGRUKE,2021-02-18_11h14.43.770,MetaAwareness,2020.1.2,Win32,60,3ZCC2DXSD87UW4HFK2Q3Z5HXGNVYYT,A59E3FJSGRUKE,3TUI152ZZCQRJGDK7572WFY92GB1QH,Z1UT0,Z1UT0,3TUI152ZZCQRJGDK7572WFY92GB1QH,3TUI152ZZCQRJGDK7572WFY92GB1QH,276350,276350,,,,,,,,,,
,,,,6,1.134,0,9,9,311,1,meeting room with window wall and white chairs and white vase on floor,"meeting room with window wall, white furtniture, and blue rug",wolfe2,124_L_vase,3,33,A59E3FJSGRUKE,2021-02-18_11h14.43.770,MetaAwareness,2020.1.2,Win32,60,3ZCC2DXSD87UW4HFK2Q3Z5HXGNVYYT,A59E3FJSGRUKE,3TUI152ZZCQRJGDK7572WFY92GB1QH,Z1UT0,Z1UT0,3TUI152ZZCQRJGDK7572WFY92GB1QH,3TUI152ZZCQRJGDK7572WFY92GB1QH,276350,276350,,,,,,,,,,
,,,,4,0.903,0,10,10,139,1,this brightly colored child's bedroom has a decorative car above the closet.num_enter,this brightly colored childs bedroom has many cars on the floor,wolfe2,059_R_car,3,33,A59E3FJSGRUKE,2021-02-18_11h14.43.770,MetaAwareness,2020.1.2,Win32,60,3ZCC2DXSD87UW4HFK2Q3Z5HXGNVYYT,A59E3FJSGRUKE,3TUI152ZZCQRJGDK7572WFY92GB1QH,Z1UT0,Z1UT0,3TUI152ZZCQRJGDK7572WFY92GB1QH,3TUI152ZZCQRJGDK7572WFY92GB1QH,276350,276350,,,,,,,,,,
,,,,5,0.272,0,11,11,60,1,a nice bathroom with two sinks and two red cups sitting on a shelf,a nice bathroom with two sinks and three red cups sitting on a shelf.,wolfe2,029_R_glass,1,33,A59E3FJSGRUKE,2021-02-18_11h14.43.770,MetaAwareness,2020.1.2,Win32,60,3ZCC2DXSD87UW4HFK2Q3Z5HXGNVYYT,A59E3FJSGRUKE,3TUI152ZZCQRJGDK7572WFY92GB1QH,Z1UT0,Z1UT0,3TUI152ZZCQRJGDK7572WFY92GB1QH,3TUI152ZZCQRJGDK7572WFY92GB1QH,276350,276350,,,,,,,,,,
,,,,5,1.076,0,12,12,56,1,a black bathroom countertop with a metal block sitting on top,a black bathroom countertop with two metal blocks sitting on top,wolfe2,028_L_vase,3,33,A59E3FJSGRUKE,2021-02-18_11h14.43.770,MetaAwareness,2020.1.2,Win32,60,3ZCC2DXSD87UW4HFK2Q3Z5HXGNVYYT,A59E3FJSGRUKE,3TUI152ZZCQRJGDK7572WFY92GB1QH,Z1UT0,Z1UT0,3TUI152ZZCQRJGDK7572WFY92GB1QH,3TUI152ZZCQRJGDK7572WFY92GB1QH,276350,276350,,,,,,,,,,
,,,,5,3.45,0,13,13,98,1,a very stylish and contemporary looking bathroom that has a lot of tan and brown coloring and two sinks and one faucet,a very stylish and contemporary looking bathroom that has a lot of tan and brown coloring and two sinks and two faucets,wolfe2,042_R_tap,5,33,A59E3FJSGRUKE,2021-02-18_11h14.43.770,MetaAwareness,2020.1.2,Win32,60,3ZCC2DXSD87UW4HFK2Q3Z5HXGNVYYT,A59E3FJSGRUKE,3TUI152ZZCQRJGDK7572WFY92GB1QH,Z1UT0,Z1UT0,3TUI152ZZCQRJGDK7572WFY92GB1QH,3TUI152ZZCQRJGDK7572WFY92GB1QH,276350,276350,,,,,,,,,,
,,,,6,0.265,0,14,14,301,1,a living room space with wall frame portrait,a living room space with no wall frame,wolfe2,119_R_painting,3,33,A59E3FJSGRUKE,2021-02-18_11h14.43.770,MetaAwareness,2020.1.2,Win32,60,3ZCC2DXSD87UW4HFK2Q3Z5HXGNVYYT,A59E3FJSGRUKE,3TUI152ZZCQRJGDK7572WFY92GB1QH,Z1UT0,Z1UT0,3TUI152ZZCQRJGDK7572WFY92GB1QH,3TUI152ZZCQRJGDK7572WFY92GB1QH,276350,276350,,,,,,,,,,
,,,,4,1.52,0,15,15,213,1,a stylish apartment with a table holding a book.,a stylish apartment with a table without a book.,wolfe2,086_L_book,4,33,A59E3FJSGRUKE,2021-02-18_11h14.43.770,MetaAwareness,2020.1.2,Win32,60,3ZCC2DXSD87UW4HFK2Q3Z5HXGNVYYT,A59E3FJSGRUKE,3TUI152ZZCQRJGDK7572WFY92GB1QH,Z1UT0,Z1UT0,3TUI152ZZCQRJGDK7572WFY92GB1QH,3TUI152ZZCQRJGDK7572WFY92GB1QH,276350,276350,,,,,,,,,,
,,,,5,4.481,0,16,16,182,1,there is no light on the ceiling,there is a light in the cielin,wolfe2,075_R_light,4,33,A59E3FJSGRUKE,2021-02-18_11h14.43.770,MetaAwareness,2020.1.2,Win32,60,3ZCC2DXSD87UW4HFK2Q3Z5HXGNVYYT,A59E3FJSGRUKE,3TUI152ZZCQRJGDK7572WFY92GB1QH,Z1UT0,Z1UT0,3TUI152ZZCQRJGDK7572WFY92GB1QH,3TUI152ZZCQRJGDK7572WFY92GB1QH,276350,276350,,,,,,,,,,
,,,,6,0.338,0,17,17,279,1,"a living room with a coffee table that has a plant on it, a second table with a lamp, a plant in the corner, and a view of a pool","a living room with a coffee table that has a plant on it, a second table with a lamp, no plant in the corner, and a view of a pool",wolfe2,110_R_plant,2,33,A59E3FJSGRUKE,2021-02-18_11h14.43.770,MetaAwareness,2020.1.2,Win32,60,3ZCC2DXSD87UW4HFK2Q3Z5HXGNVYYT,A59E3FJSGRUKE,3TUI152ZZCQRJGDK7572WFY92GB1QH,Z1UT0,Z1UT0,3TUI152ZZCQRJGDK7572WFY92GB1QH,3TUI152ZZCQRJGDK7572WFY92GB1QH,276350,276350,,,,,,,,,,
,,,,5,3.265,0,18,18,81,1,a bathroom area with two brown towels,a bathroom area with three brown towels,wolfe2,037_R_towel,2,33,A59E3FJSGRUKE,2021-02-18_11h14.43.770,MetaAwareness,2020.1.2,Win32,60,3ZCC2DXSD87UW4HFK2Q3Z5HXGNVYYT,A59E3FJSGRUKE,3TUI152ZZCQRJGDK7572WFY92GB1QH,Z1UT0,Z1UT0,3TUI152ZZCQRJGDK7572WFY92GB1QH,3TUI152ZZCQRJGDK7572WFY92GB1QH,276350,276350,,,,,,,,,,
,,,,5,3.164,0,19,19,92,1,it is an empty bowlthere,the bowl contains a fruit in it,wolfe2,041_L_fruit,3,33,A59E3FJSGRUKE,2021-02-18_11h14.43.770,MetaAwareness,2020.1.2,Win32,60,3ZCC2DXSD87UW4HFK2Q3Z5HXGNVYYT,A59E3FJSGRUKE,3TUI152ZZCQRJGDK7572WFY92GB1QH,Z1UT0,Z1UT0,3TUI152ZZCQRJGDK7572WFY92GB1QH,3TUI152ZZCQRJGDK7572WFY92GB1QH,276350,276350,,,,,,,,,,
,,,,3,0.711,0,20,20,179,1,a coffee table in middle of living room,a book is sitting on a table,wolfe2,074_R_book,7,33,A59E3FJSGRUKE,2021-02-18_11h14.43.770,MetaAwareness,2020.1.2,Win32,60,3ZCC2DXSD87UW4HFK2Q3Z5HXGNVYYT,A59E3FJSGRUKE,3TUI152ZZCQRJGDK7572WFY92GB1QH,Z1UT0,Z1UT0,3TUI152ZZCQRJGDK7572WFY92GB1QH,3TUI152ZZCQRJGDK7572WFY92GB1QH,276350,276350,,,,,,,,,,
,,,,5,6.056,0,21,21,234,1,a small hotel room with two wall outlets near the beds,a small hotel room with one wall outlet near the beds,wolfe2,093_L_switch,6,33,A59E3FJSGRUKE,2021-02-18_11h14.43.770,MetaAwareness,2020.1.2,Win32,60,3ZCC2DXSD87UW4HFK2Q3Z5HXGNVYYT,A59E3FJSGRUKE,3TUI152ZZCQRJGDK7572WFY92GB1QH,Z1UT0,Z1UT0,3TUI152ZZCQRJGDK7572WFY92GB1QH,3TUI152ZZCQRJGDK7572WFY92GB1QH,276350,276350,,,,,,,,,,
,,,,3,1.399,0,22,22,101,1,a modern looking bathroom with a large shower and a large tub with a light on the left front side of the tub,a modern looking bathroom with a large shower and a large tub with two lights on the front of the tub,wolfe2,044_L_light,5,33,A59E3FJSGRUKE,2021-02-18_11h14.43.770,MetaAwareness,2020.1.2,Win32,60,3ZCC2DXSD87UW4HFK2Q3Z5HXGNVYYT,A59E3FJSGRUKE,3TUI152ZZCQRJGDK7572WFY92GB1QH,Z1UT0,Z1UT0,3TUI152ZZCQRJGDK7572WFY92GB1QH,3TUI152ZZCQRJGDK7572WFY92GB1QH,276350,276350,,,,,,,,,,
,,,,3,4.886,0,23,23,296,1,there is a object behind a potted plant in this rustic room,there is just a wooden floor behind this potted plant in the rustic room,wolfe2,116_R_basket,4,33,A59E3FJSGRUKE,2021-02-18_11h14.43.770,MetaAwareness,2020.1.2,Win32,60,3ZCC2DXSD87UW4HFK2Q3Z5HXGNVYYT,A59E3FJSGRUKE,3TUI152ZZCQRJGDK7572WFY92GB1QH,Z1UT0,Z1UT0,3TUI152ZZCQRJGDK7572WFY92GB1QH,3TUI152ZZCQRJGDK7572WFY92GB1QH,276350,276350,,,,,,,,,,
,,,,5,1.048,0,24,24,205,1,nothing is on the wall,a light is on the wall,wolfe2,084_R_light,4,33,A59E3FJSGRUKE,2021-02-18_11h14.43.770,MetaAwareness,2020.1.2,Win32,60,3ZCC2DXSD87UW4HFK2Q3Z5HXGNVYYT,A59E3FJSGRUKE,3TUI152ZZCQRJGDK7572WFY92GB1QH,Z1UT0,Z1UT0,3TUI152ZZCQRJGDK7572WFY92GB1QH,3TUI152ZZCQRJGDK7572WFY92GB1QH,276350,276350,,,,,,,,,,
,,,,4,0.855,0,25,25,306,1,a sleek bedroom with a large window and a decorative item on the bedside table,a sleek bedroom with a large window and a bedside table,wolfe2,121_R_car,5,33,A59E3FJSGRUKE,2021-02-18_11h14.43.770,MetaAwareness,2020.1.2,Win32,60,3ZCC2DXSD87UW4HFK2Q3Z5HXGNVYYT,A59E3FJSGRUKE,3TUI152ZZCQRJGDK7572WFY92GB1QH,Z1UT0,Z1UT0,3TUI152ZZCQRJGDK7572WFY92GB1QH,3TUI152ZZCQRJGDK7572WFY92GB1QH,276350,276350,,,,,,,,,,
,,,,1,1.319,0,26,26,99,1,"a fancy living room with a television, and storage shelf.","a fancy living room with a televsion, and a storage shelf that has a clock.",wolfe2,043_L_clock,5,33,A59E3FJSGRUKE,2021-02-18_11h14.43.770,MetaAwareness,2020.1.2,Win32,60,3ZCC2DXSD87UW4HFK2Q3Z5HXGNVYYT,A59E3FJSGRUKE,3TUI152ZZCQRJGDK7572WFY92GB1QH,Z1UT0,Z1UT0,3TUI152ZZCQRJGDK7572WFY92GB1QH,3TUI152ZZCQRJGDK7572WFY92GB1QH,276350,276350,,,,,,,,,,
,,,,4,1.052,0,27,27,144,1,a dining room with wooden furniture and three wine glasses,a dining room with wooden furniture and three wine glasses,wolfe2,061_L_glass,7,33,A59E3FJSGRUKE,2021-02-18_11h14.43.770,MetaAwareness,2020.1.2,Win32,60,3ZCC2DXSD87UW4HFK2Q3Z5HXGNVYYT,A59E3FJSGRUKE,3TUI152ZZCQRJGDK7572WFY92GB1QH,Z1UT0,Z1UT0,3TUI152ZZCQRJGDK7572WFY92GB1QH,3TUI152ZZCQRJGDK7572WFY92GB1QH,276350,276350,,,,,,,,,,
,,,,5,0.861,0,28,28,298,1,a room with double glass doors and windows down one side with a house plant sitting on a small table just inside the door.,a room with double glass doors and windows down one side with a small table just inside the door,wolfe2,117_L_plant_sized,4,33,A59E3FJSGRUKE,2021-02-18_11h14.43.770,MetaAwareness,2020.1.2,Win32,60,3ZCC2DXSD87UW4HFK2Q3Z5HXGNVYYT,A59E3FJSGRUKE,3TUI152ZZCQRJGDK7572WFY92GB1QH,Z1UT0,Z1UT0,3TUI152ZZCQRJGDK7572WFY92GB1QH,3TUI152ZZCQRJGDK7572WFY92GB1QH,276350,276350,,,,,,,,,,
,,,,4,1.196,0,29,29,120,1,an empty wall,a speaker mounted on the wall undr a television set,wolfe2,052_L_speaker,2,33,A59E3FJSGRUKE,2021-02-18_11h14.43.770,MetaAwareness,2020.1.2,Win32,60,3ZCC2DXSD87UW4HFK2Q3Z5HXGNVYYT,A59E3FJSGRUKE,3TUI152ZZCQRJGDK7572WFY92GB1QH,Z1UT0,Z1UT0,3TUI152ZZCQRJGDK7572WFY92GB1QH,3TUI152ZZCQRJGDK7572WFY92GB1QH,276350,276350,,,,,,,,,,
,,,,,,,,,,,,,,,,33,A59E3FJSGRUKE,2021-02-18_11h14.43.770,MetaAwareness,2020.1.2,Win32,60,3ZCC2DXSD87UW4HFK2Q3Z5HXGNVYYT,A59E3FJSGRUKE,3TUI152ZZCQRJGDK7572WFY92GB1QH,Z1UT0,Z1UT0,3TUI152ZZCQRJGDK7572WFY92GB1QH,3TUI152ZZCQRJGDK7572WFY92GB1QH,276350,276350,5,0.885,someone laying underneath a blue beach umbrella on a crowded beach,someone laying underneath a blue beach umbrella on a crowded beach,same,5,1.215,members of a marching band crossing a track that all have feather plumes at the front of their hats,a cluttered and rustic looking cafe with 10 hanging lights,different
