consent_response.keys,consent_response.rt,key_resp_2.keys,key_resp_2.rt,user_resp.keys,user_resp.rt,trials.thisRepN,trials.thisTrialN,trials.thisN,trials.thisIndex,trials.ran,image_1_text,image_2_text,database,image,number,age,worker_ID,date,expName,psychopyVersion,OS,frameRate,hitId,workerId,assignmentId,a,tp_a,b,tp_b,c,tp_c,catch_same_resp.keys,catch_same_resp.rt,image_1_text_catch_same,image_2_text_catch_same,image_catch_same,catch_different_resp.keys,catch_different_resp.rt,image_1_text_catch_different,image_2_text_catch_different,image_catch_different
space,8.305695,space,24.626535,4,18.98652,0,0,0,16,1,"three men on a golf course watching a forth man putting, there is a small flag on the ground behind the forth man",three men on a golf course watching a fourth man putting,wolfe1,image-017,6,38,A2CWA5VQZ6IWMQ,2021-01-09_15h35.56.196,MetaAwareness,2020.1.2,Win32,60,3OWZNK3RYMSNEA43HGMJNGAF30OU23,A2CWA5VQZ6IWMQ,3X73LLYYQ2HHKUL6T2I6K8JBA3QNHZ,YL7X9,YL7X9,3X73LLYYQ2HHKUL6T2I6K8JBA3QNHZ,3X73LLYYQ2HHKUL6T2I6K8JBA3QNHZ,268159,268159,,,,,,,,,,
,,,,2,10.452525,0,1,1,43,1,a white rock floating in a blue lake,some blue water floating in a lake,wolfe1,image-041,8,38,A2CWA5VQZ6IWMQ,2021-01-09_15h35.56.196,MetaAwareness,2020.1.2,Win32,60,3OWZNK3RYMSNEA43HGMJNGAF30OU23,A2CWA5VQZ6IWMQ,3X73LLYYQ2HHKUL6T2I6K8JBA3QNHZ,YL7X9,YL7X9,3X73LLYYQ2HHKUL6T2I6K8JBA3QNHZ,3X73LLYYQ2HHKUL6T2I6K8JBA3QNHZ,268159,268159,,,,,,,,,,
,,,,4,7.59487,0,2,2,51,1,people shoveling gravel outside of a home with a toy in the gravel,people shoveling gravel outside of a home,wolfe1,image-047,1,38,A2CWA5VQZ6IWMQ,2021-01-09_15h35.56.196,MetaAwareness,2020.1.2,Win32,60,3OWZNK3RYMSNEA43HGMJNGAF30OU23,A2CWA5VQZ6IWMQ,3X73LLYYQ2HHKUL6T2I6K8JBA3QNHZ,YL7X9,YL7X9,3X73LLYYQ2HHKUL6T2I6K8JBA3QNHZ,3X73LLYYQ2HHKUL6T2I6K8JBA3QNHZ,268159,268159,,,,,,,,,,
,,,,3,17.05059,0,3,3,23,1,a large building with many windows with people sittin infront of it and there is an object behind them in the grass,a large building ith many widowd with people sitting in the grass with no object behind them,wolfe1,image-028,1,38,A2CWA5VQZ6IWMQ,2021-01-09_15h35.56.196,MetaAwareness,2020.1.2,Win32,60,3OWZNK3RYMSNEA43HGMJNGAF30OU23,A2CWA5VQZ6IWMQ,3X73LLYYQ2HHKUL6T2I6K8JBA3QNHZ,YL7X9,YL7X9,3X73LLYYQ2HHKUL6T2I6K8JBA3QNHZ,3X73LLYYQ2HHKUL6T2I6K8JBA3QNHZ,268159,268159,,,,,,,,,,
,,,,3,10.19654,0,4,4,75,1,a man is leading a music class with a blue cooler bag underneath the table behind him,a man is leading a music class with a green cooler bag underneath the table behind him,wolfe1,image-096,5,38,A2CWA5VQZ6IWMQ,2021-01-09_15h35.56.196,MetaAwareness,2020.1.2,Win32,60,3OWZNK3RYMSNEA43HGMJNGAF30OU23,A2CWA5VQZ6IWMQ,3X73LLYYQ2HHKUL6T2I6K8JBA3QNHZ,YL7X9,YL7X9,3X73LLYYQ2HHKUL6T2I6K8JBA3QNHZ,3X73LLYYQ2HHKUL6T2I6K8JBA3QNHZ,268159,268159,,,,,,,,,,
,,,,3,5.91874,0,5,5,37,1,a table with 6 food containers on it.,a table with 5 food containers on it.,wolfe1,image-037,4,38,A2CWA5VQZ6IWMQ,2021-01-09_15h35.56.196,MetaAwareness,2020.1.2,Win32,60,3OWZNK3RYMSNEA43HGMJNGAF30OU23,A2CWA5VQZ6IWMQ,3X73LLYYQ2HHKUL6T2I6K8JBA3QNHZ,YL7X9,YL7X9,3X73LLYYQ2HHKUL6T2I6K8JBA3QNHZ,3X73LLYYQ2HHKUL6T2I6K8JBA3QNHZ,268159,268159,,,,,,,,,,
,,,,3,5.785455,0,6,6,121,1,a rooftop lounge area with a blue house below,a rooftop lounge area with a pink house below,wolfe1,image-136,6,38,A2CWA5VQZ6IWMQ,2021-01-09_15h35.56.196,MetaAwareness,2020.1.2,Win32,60,3OWZNK3RYMSNEA43HGMJNGAF30OU23,A2CWA5VQZ6IWMQ,3X73LLYYQ2HHKUL6T2I6K8JBA3QNHZ,YL7X9,YL7X9,3X73LLYYQ2HHKUL6T2I6K8JBA3QNHZ,3X73LLYYQ2HHKUL6T2I6K8JBA3QNHZ,268159,268159,,,,,,,,,,
,,,,2,9.29435,0,7,7,122,1,picnic tables are set up on the beach with three blue and three yellow beach umbrellas,picnic tables are set up on the beach with two blue and four yellow beach umbrellas,wolfe1,image-137,5,38,A2CWA5VQZ6IWMQ,2021-01-09_15h35.56.196,MetaAwareness,2020.1.2,Win32,60,3OWZNK3RYMSNEA43HGMJNGAF30OU23,A2CWA5VQZ6IWMQ,3X73LLYYQ2HHKUL6T2I6K8JBA3QNHZ,YL7X9,YL7X9,3X73LLYYQ2HHKUL6T2I6K8JBA3QNHZ,3X73LLYYQ2HHKUL6T2I6K8JBA3QNHZ,268159,268159,,,,,,,,,,
,,,,2,11.084905,0,8,8,25,1,a sidewalk with a bus stop and an advertisement displayed in front of a jewelry store.,a sidewalk with a bus stop and a jewelry store.,wolfe1,image-030,1,38,A2CWA5VQZ6IWMQ,2021-01-09_15h35.56.196,MetaAwareness,2020.1.2,Win32,60,3OWZNK3RYMSNEA43HGMJNGAF30OU23,A2CWA5VQZ6IWMQ,3X73LLYYQ2HHKUL6T2I6K8JBA3QNHZ,YL7X9,YL7X9,3X73LLYYQ2HHKUL6T2I6K8JBA3QNHZ,3X73LLYYQ2HHKUL6T2I6K8JBA3QNHZ,268159,268159,,,,,,,,,,
,,,,3,8.01746,0,9,9,32,1,house with tile walkway in back yard,house with tile walkway missing one tile,wolfe1,image-034,2,38,A2CWA5VQZ6IWMQ,2021-01-09_15h35.56.196,MetaAwareness,2020.1.2,Win32,60,3OWZNK3RYMSNEA43HGMJNGAF30OU23,A2CWA5VQZ6IWMQ,3X73LLYYQ2HHKUL6T2I6K8JBA3QNHZ,YL7X9,YL7X9,3X73LLYYQ2HHKUL6T2I6K8JBA3QNHZ,3X73LLYYQ2HHKUL6T2I6K8JBA3QNHZ,268159,268159,,,,,,,,,,
,,,,3,7.718945,0,10,10,63,1,people playing soccer with one wearing blue shoe.,people playing soccer with one person wearing one green shoe.,wolfe1,image-082,1,38,A2CWA5VQZ6IWMQ,2021-01-09_15h35.56.196,MetaAwareness,2020.1.2,Win32,60,3OWZNK3RYMSNEA43HGMJNGAF30OU23,A2CWA5VQZ6IWMQ,3X73LLYYQ2HHKUL6T2I6K8JBA3QNHZ,YL7X9,YL7X9,3X73LLYYQ2HHKUL6T2I6K8JBA3QNHZ,3X73LLYYQ2HHKUL6T2I6K8JBA3QNHZ,268159,268159,,,,,,,,,,
,,,,3,10.641735,0,11,11,102,1,person taking landscape photo with another person holding a blue backpack,person taking landscape phone and another person holding a yellow backpack,wolfe1,image-125,3,38,A2CWA5VQZ6IWMQ,2021-01-09_15h35.56.196,MetaAwareness,2020.1.2,Win32,60,3OWZNK3RYMSNEA43HGMJNGAF30OU23,A2CWA5VQZ6IWMQ,3X73LLYYQ2HHKUL6T2I6K8JBA3QNHZ,YL7X9,YL7X9,3X73LLYYQ2HHKUL6T2I6K8JBA3QNHZ,3X73LLYYQ2HHKUL6T2I6K8JBA3QNHZ,268159,268159,,,,,,,,,,
,,,,3,15.98676,0,12,12,0,1,a man fishing on a wooden bench with a huge metal chain on it,a man fishing on a bench made of two wooden planks,wolfe1,image-004,4,38,A2CWA5VQZ6IWMQ,2021-01-09_15h35.56.196,MetaAwareness,2020.1.2,Win32,60,3OWZNK3RYMSNEA43HGMJNGAF30OU23,A2CWA5VQZ6IWMQ,3X73LLYYQ2HHKUL6T2I6K8JBA3QNHZ,YL7X9,YL7X9,3X73LLYYQ2HHKUL6T2I6K8JBA3QNHZ,3X73LLYYQ2HHKUL6T2I6K8JBA3QNHZ,268159,268159,,,,,,,,,,
,,,,5,12.30171,0,13,13,82,1,a man in blue sits opposite a man in turquoise as they attentively listen to a group meeting,a man in green sits opposite a man in turquoise as they attentively listen to a group meeting,wolfe1,image-104,8,38,A2CWA5VQZ6IWMQ,2021-01-09_15h35.56.196,MetaAwareness,2020.1.2,Win32,60,3OWZNK3RYMSNEA43HGMJNGAF30OU23,A2CWA5VQZ6IWMQ,3X73LLYYQ2HHKUL6T2I6K8JBA3QNHZ,YL7X9,YL7X9,3X73LLYYQ2HHKUL6T2I6K8JBA3QNHZ,3X73LLYYQ2HHKUL6T2I6K8JBA3QNHZ,268159,268159,,,,,,,,,,
,,,,3,8.452505,0,14,14,35,1,a collection of boats and ten people on jet skis in an open body of water,a collection of boats and nine people on jet skis in an open body of water,wolfe1,image-035,4,38,A2CWA5VQZ6IWMQ,2021-01-09_15h35.56.196,MetaAwareness,2020.1.2,Win32,60,3OWZNK3RYMSNEA43HGMJNGAF30OU23,A2CWA5VQZ6IWMQ,3X73LLYYQ2HHKUL6T2I6K8JBA3QNHZ,YL7X9,YL7X9,3X73LLYYQ2HHKUL6T2I6K8JBA3QNHZ,3X73LLYYQ2HHKUL6T2I6K8JBA3QNHZ,268159,268159,,,,,,,,,,
,,,,4,10.38883,0,15,15,101,1,two people walking a dog towards a pier with three green poles in the water,two people walking a dog towards a pier with two green poles and one brown pole in the water,wolfe1,image-124,5,38,A2CWA5VQZ6IWMQ,2021-01-09_15h35.56.196,MetaAwareness,2020.1.2,Win32,60,3OWZNK3RYMSNEA43HGMJNGAF30OU23,A2CWA5VQZ6IWMQ,3X73LLYYQ2HHKUL6T2I6K8JBA3QNHZ,YL7X9,YL7X9,3X73LLYYQ2HHKUL6T2I6K8JBA3QNHZ,3X73LLYYQ2HHKUL6T2I6K8JBA3QNHZ,268159,268159,,,,,,,,,,
,,,,4,11.83337,0,16,16,104,1,"a group of people attempt to remove snow from a car, one of whom is holding a blue shovel","a group of people attempt to remove snow from a car, one of whom is holding a green shovel",wolfe1,image-127,4,38,A2CWA5VQZ6IWMQ,2021-01-09_15h35.56.196,MetaAwareness,2020.1.2,Win32,60,3OWZNK3RYMSNEA43HGMJNGAF30OU23,A2CWA5VQZ6IWMQ,3X73LLYYQ2HHKUL6T2I6K8JBA3QNHZ,YL7X9,YL7X9,3X73LLYYQ2HHKUL6T2I6K8JBA3QNHZ,3X73LLYYQ2HHKUL6T2I6K8JBA3QNHZ,268159,268159,,,,,,,,,,
,,,,3,9.821295,0,17,17,61,1,2 women talking with papers with red margins on table,2 women with papers with blue margins on table,wolfe1,image-081,2,38,A2CWA5VQZ6IWMQ,2021-01-09_15h35.56.196,MetaAwareness,2020.1.2,Win32,60,3OWZNK3RYMSNEA43HGMJNGAF30OU23,A2CWA5VQZ6IWMQ,3X73LLYYQ2HHKUL6T2I6K8JBA3QNHZ,YL7X9,YL7X9,3X73LLYYQ2HHKUL6T2I6K8JBA3QNHZ,3X73LLYYQ2HHKUL6T2I6K8JBA3QNHZ,268159,268159,,,,,,,,,,
,,,,4,9.789545,0,18,18,5,1,recent graduates celebrating in front of a park bench.,recent graduates celebrating in front of a park.,wolfe1,image-005,9,38,A2CWA5VQZ6IWMQ,2021-01-09_15h35.56.196,MetaAwareness,2020.1.2,Win32,60,3OWZNK3RYMSNEA43HGMJNGAF30OU23,A2CWA5VQZ6IWMQ,3X73LLYYQ2HHKUL6T2I6K8JBA3QNHZ,YL7X9,YL7X9,3X73LLYYQ2HHKUL6T2I6K8JBA3QNHZ,3X73LLYYQ2HHKUL6T2I6K8JBA3QNHZ,268159,268159,,,,,,,,,,
,,,,3,6.936325,0,19,19,115,1,a comfortable outdoor lounge area with a red surfboard laying against a wall,a comfortable outdoor lounge area with a green surfboard laying against a wal,wolfe1,image-133,5,38,A2CWA5VQZ6IWMQ,2021-01-09_15h35.56.196,MetaAwareness,2020.1.2,Win32,60,3OWZNK3RYMSNEA43HGMJNGAF30OU23,A2CWA5VQZ6IWMQ,3X73LLYYQ2HHKUL6T2I6K8JBA3QNHZ,YL7X9,YL7X9,3X73LLYYQ2HHKUL6T2I6K8JBA3QNHZ,3X73LLYYQ2HHKUL6T2I6K8JBA3QNHZ,268159,268159,,,,,,,,,,
,,,,3,11.23845,0,20,20,36,1,"a picnic table is inside an enclosure, there is a white food carton sitting in the middle of the table.","a picnic table is inside an enclosure, there is no white food carton sitting in the middle.",wolfe1,image-037,1,38,A2CWA5VQZ6IWMQ,2021-01-09_15h35.56.196,MetaAwareness,2020.1.2,Win32,60,3OWZNK3RYMSNEA43HGMJNGAF30OU23,A2CWA5VQZ6IWMQ,3X73LLYYQ2HHKUL6T2I6K8JBA3QNHZ,YL7X9,YL7X9,3X73LLYYQ2HHKUL6T2I6K8JBA3QNHZ,3X73LLYYQ2HHKUL6T2I6K8JBA3QNHZ,268159,268159,,,,,,,,,,
,,,,4,10.684605,0,21,21,41,1,kids playing basketball in front of a house with a lamp hanging on the wall,kids playing basketball in their front yard,wolfe1,image-040,7,38,A2CWA5VQZ6IWMQ,2021-01-09_15h35.56.196,MetaAwareness,2020.1.2,Win32,60,3OWZNK3RYMSNEA43HGMJNGAF30OU23,A2CWA5VQZ6IWMQ,3X73LLYYQ2HHKUL6T2I6K8JBA3QNHZ,YL7X9,YL7X9,3X73LLYYQ2HHKUL6T2I6K8JBA3QNHZ,3X73LLYYQ2HHKUL6T2I6K8JBA3QNHZ,268159,268159,,,,,,,,,,
,,,,3,5.940575,0,22,22,90,1,a plane at the airport with a yellow jet truck parked next to it,a plane at the airport with a red jet truck parked next to it,wolfe1,image-111,1,38,A2CWA5VQZ6IWMQ,2021-01-09_15h35.56.196,MetaAwareness,2020.1.2,Win32,60,3OWZNK3RYMSNEA43HGMJNGAF30OU23,A2CWA5VQZ6IWMQ,3X73LLYYQ2HHKUL6T2I6K8JBA3QNHZ,YL7X9,YL7X9,3X73LLYYQ2HHKUL6T2I6K8JBA3QNHZ,3X73LLYYQ2HHKUL6T2I6K8JBA3QNHZ,268159,268159,,,,,,,,,,
,,,,4,12.176555,0,23,23,56,1,people racing dirt bikes on a dirt track with people standing behind a fence watching one man is in a yellow shirt,people racing dirt bikes on a dirt track with people standing behind a fence watching one man is wearing a blue shirt,wolfe1,image-076,1,38,A2CWA5VQZ6IWMQ,2021-01-09_15h35.56.196,MetaAwareness,2020.1.2,Win32,60,3OWZNK3RYMSNEA43HGMJNGAF30OU23,A2CWA5VQZ6IWMQ,3X73LLYYQ2HHKUL6T2I6K8JBA3QNHZ,YL7X9,YL7X9,3X73LLYYQ2HHKUL6T2I6K8JBA3QNHZ,3X73LLYYQ2HHKUL6T2I6K8JBA3QNHZ,268159,268159,,,,,,,,,,
,,,,4,7.602245,0,24,24,118,1,"a group of five people walking together, one of the people in front have a red shirt on","a group of five people walking together, one of the people in front have a blue shirt on",wolfe1,image-134,4,38,A2CWA5VQZ6IWMQ,2021-01-09_15h35.56.196,MetaAwareness,2020.1.2,Win32,60,3OWZNK3RYMSNEA43HGMJNGAF30OU23,A2CWA5VQZ6IWMQ,3X73LLYYQ2HHKUL6T2I6K8JBA3QNHZ,YL7X9,YL7X9,3X73LLYYQ2HHKUL6T2I6K8JBA3QNHZ,3X73LLYYQ2HHKUL6T2I6K8JBA3QNHZ,268159,268159,,,,,,,,,,
,,,,3,12.122095,0,25,25,103,1,there is a car that is under a large amount of snow. a person is using a blue snowshovel to dig the car out.,there is a car that is under a large amount of snow. a person is using a green snowshovel to dig the car out.,wolfe1,image-127,1,38,A2CWA5VQZ6IWMQ,2021-01-09_15h35.56.196,MetaAwareness,2020.1.2,Win32,60,3OWZNK3RYMSNEA43HGMJNGAF30OU23,A2CWA5VQZ6IWMQ,3X73LLYYQ2HHKUL6T2I6K8JBA3QNHZ,YL7X9,YL7X9,3X73LLYYQ2HHKUL6T2I6K8JBA3QNHZ,3X73LLYYQ2HHKUL6T2I6K8JBA3QNHZ,268159,268159,,,,,,,,,,
,,,,5,8.333815,0,26,26,14,1,"many people are enjoying an outdoor concert in the grass, there is a blanket with no one on it",many people are enjoying an outdoor concert in the grass,wolfe1,image-014,1,38,A2CWA5VQZ6IWMQ,2021-01-09_15h35.56.196,MetaAwareness,2020.1.2,Win32,60,3OWZNK3RYMSNEA43HGMJNGAF30OU23,A2CWA5VQZ6IWMQ,3X73LLYYQ2HHKUL6T2I6K8JBA3QNHZ,YL7X9,YL7X9,3X73LLYYQ2HHKUL6T2I6K8JBA3QNHZ,3X73LLYYQ2HHKUL6T2I6K8JBA3QNHZ,268159,268159,,,,,,,,,,
,,,,4,8.97771,0,27,27,33,1,"a calm and peaceful looking backyard garden, with stepping stones over to a seating area.","a calm and peaceful looking backyard garden, with a missing stepping stone over to a seating area.",wolfe1,image-034,4,38,A2CWA5VQZ6IWMQ,2021-01-09_15h35.56.196,MetaAwareness,2020.1.2,Win32,60,3OWZNK3RYMSNEA43HGMJNGAF30OU23,A2CWA5VQZ6IWMQ,3X73LLYYQ2HHKUL6T2I6K8JBA3QNHZ,YL7X9,YL7X9,3X73LLYYQ2HHKUL6T2I6K8JBA3QNHZ,3X73LLYYQ2HHKUL6T2I6K8JBA3QNHZ,268159,268159,,,,,,,,,,
,,,,4,13.043015,0,28,28,20,1,"an outdoor festival with various tents, two trees can be seen in the background","an outdoor festival with various tents, a tree can be seen in  the background",wolfe1,image-025,1,38,A2CWA5VQZ6IWMQ,2021-01-09_15h35.56.196,MetaAwareness,2020.1.2,Win32,60,3OWZNK3RYMSNEA43HGMJNGAF30OU23,A2CWA5VQZ6IWMQ,3X73LLYYQ2HHKUL6T2I6K8JBA3QNHZ,YL7X9,YL7X9,3X73LLYYQ2HHKUL6T2I6K8JBA3QNHZ,3X73LLYYQ2HHKUL6T2I6K8JBA3QNHZ,268159,268159,,,,,,,,,,
,,,,3,9.170545,0,29,29,40,1,boys playing basketball outside a garage with two wall lights visible on the building.,boys playing basketball outside a garage with one wall light visible on the building.,wolfe1,image-040,3,38,A2CWA5VQZ6IWMQ,2021-01-09_15h35.56.196,MetaAwareness,2020.1.2,Win32,60,3OWZNK3RYMSNEA43HGMJNGAF30OU23,A2CWA5VQZ6IWMQ,3X73LLYYQ2HHKUL6T2I6K8JBA3QNHZ,YL7X9,YL7X9,3X73LLYYQ2HHKUL6T2I6K8JBA3QNHZ,3X73LLYYQ2HHKUL6T2I6K8JBA3QNHZ,268159,268159,,,,,,,,,,
,,,,,,,,,,,,,,,,38,A2CWA5VQZ6IWMQ,2021-01-09_15h35.56.196,MetaAwareness,2020.1.2,Win32,60,3OWZNK3RYMSNEA43HGMJNGAF30OU23,A2CWA5VQZ6IWMQ,3X73LLYYQ2HHKUL6T2I6K8JBA3QNHZ,YL7X9,YL7X9,3X73LLYYQ2HHKUL6T2I6K8JBA3QNHZ,3X73LLYYQ2HHKUL6T2I6K8JBA3QNHZ,268159,268159,5,8.56775,someone laying underneath a blue beach umbrella on a crowded beach,someone laying underneath a blue beach umbrella on a crowded beach,same,1,11.09488,members of a marching band crossing a track that all have feather plumes at the front of their hats,a cluttered and rustic looking cafe with 10 hanging lights,different
