consent_response.keys,consent_response.rt,key_resp_2.keys,key_resp_2.rt,user_resp.keys,user_resp.rt,trials.thisRepN,trials.thisTrialN,trials.thisN,trials.thisIndex,trials.ran,image_1_text,image_2_text,database,image,number,age,worker_ID,date,expName,psychopyVersion,OS,frameRate,hitId,workerId,assignmentId,a,tp_a,b,tp_b,c,tp_c,catch_same_resp.keys,catch_same_resp.rt,image_1_text_catch_same,image_2_text_catch_same,image_catch_same,catch_different_resp.keys,catch_different_resp.rt,image_1_text_catch_different,image_2_text_catch_different,image_catch_different
space,9.463,space,30.825,1,39.503,0,0,0,112,1,two white couches sit in front of a fireplace in a nice living room. the closest couch has a red throw pillow at the end next to the fireplace,two white couches sit in front of fireplace in a nice living room. the closest couch has a green throw pillow at the end next to the fireplace,wolfe1,image-132,2,31,A3TL6CY2J4Q35Q,2021-01-09_23h59.26.223,MetaAwareness,2020.1.2,Win32,60,3OWZNK3RYMSNEA43HGMJNGAF30OU23,A3TL6CY2J4Q35Q,3IKZ72A5B5JX6YU0YCU6HN7YUODFNT,57KI9,57KI9,3IKZ72A5B5JX6YU0YCU6HN7YUODFNT,3IKZ72A5B5JX6YU0YCU6HN7YUODFNT,268159,268159,,,,,,,,,,
,,,,1,18.379,0,1,1,3,1,five female college graduates wearing their red graduation uniforms jump for joy in a courtyard near one of their college buildings with a bench behind them,five femail college graduates wearing their red graduation uniforms jump for joy in a courtyard near one of their college buildings with no bench behind them,wolfe1,image-005,5,31,A3TL6CY2J4Q35Q,2021-01-09_23h59.26.223,MetaAwareness,2020.1.2,Win32,60,3OWZNK3RYMSNEA43HGMJNGAF30OU23,A3TL6CY2J4Q35Q,3IKZ72A5B5JX6YU0YCU6HN7YUODFNT,57KI9,57KI9,3IKZ72A5B5JX6YU0YCU6HN7YUODFNT,3IKZ72A5B5JX6YU0YCU6HN7YUODFNT,268159,268159,,,,,,,,,,
,,,,3,10.333,0,2,2,59,1,"a mall interior, with people standing around, and a red dress visible in a storefront window on the upper floor","a mall interior, with people standing around, and a purple dress visible in a storefront window on the upper floor",wolfe1,image-079,4,31,A3TL6CY2J4Q35Q,2021-01-09_23h59.26.223,MetaAwareness,2020.1.2,Win32,60,3OWZNK3RYMSNEA43HGMJNGAF30OU23,A3TL6CY2J4Q35Q,3IKZ72A5B5JX6YU0YCU6HN7YUODFNT,57KI9,57KI9,3IKZ72A5B5JX6YU0YCU6HN7YUODFNT,3IKZ72A5B5JX6YU0YCU6HN7YUODFNT,268159,268159,,,,,,,,,,
,,,,2,8.276,0,3,3,111,1,a girl dancing in a room wearing some orange shorts,a girl dancing in a room wearing some purple shorts,wolfe1,image-131,6,31,A3TL6CY2J4Q35Q,2021-01-09_23h59.26.223,MetaAwareness,2020.1.2,Win32,60,3OWZNK3RYMSNEA43HGMJNGAF30OU23,A3TL6CY2J4Q35Q,3IKZ72A5B5JX6YU0YCU6HN7YUODFNT,57KI9,57KI9,3IKZ72A5B5JX6YU0YCU6HN7YUODFNT,3IKZ72A5B5JX6YU0YCU6HN7YUODFNT,268159,268159,,,,,,,,,,
,,,,3,12.1,0,4,4,92,1,people walking infront of a store with pink decorations hanging off its roof.,people walking infront of a store with yellow decorations hanging off its roof.,wolfe1,image-113,7,31,A3TL6CY2J4Q35Q,2021-01-09_23h59.26.223,MetaAwareness,2020.1.2,Win32,60,3OWZNK3RYMSNEA43HGMJNGAF30OU23,A3TL6CY2J4Q35Q,3IKZ72A5B5JX6YU0YCU6HN7YUODFNT,57KI9,57KI9,3IKZ72A5B5JX6YU0YCU6HN7YUODFNT,3IKZ72A5B5JX6YU0YCU6HN7YUODFNT,268159,268159,,,,,,,,,,
,,,,1,9.346,0,5,5,47,1,9 small barns are outside beneath a vibrant pink sky against a mountain backdrop.,8 small barns are outside beneath a vibrant pink sky against a mountain backdrop.,wolfe1,image-044,1,31,A3TL6CY2J4Q35Q,2021-01-09_23h59.26.223,MetaAwareness,2020.1.2,Win32,60,3OWZNK3RYMSNEA43HGMJNGAF30OU23,A3TL6CY2J4Q35Q,3IKZ72A5B5JX6YU0YCU6HN7YUODFNT,57KI9,57KI9,3IKZ72A5B5JX6YU0YCU6HN7YUODFNT,3IKZ72A5B5JX6YU0YCU6HN7YUODFNT,268159,268159,,,,,,,,,,
,,,,2,9.074,0,6,6,64,1,"two athletes playing soccer, one of them wearing a pink shoe and a blue one","two athletes playing soccer, one of them wearing a pink shoe and a green one",wolfe1,image-082,4,31,A3TL6CY2J4Q35Q,2021-01-09_23h59.26.223,MetaAwareness,2020.1.2,Win32,60,3OWZNK3RYMSNEA43HGMJNGAF30OU23,A3TL6CY2J4Q35Q,3IKZ72A5B5JX6YU0YCU6HN7YUODFNT,57KI9,57KI9,3IKZ72A5B5JX6YU0YCU6HN7YUODFNT,3IKZ72A5B5JX6YU0YCU6HN7YUODFNT,268159,268159,,,,,,,,,,
,,,,1,7.314,0,7,7,117,1,people walking on a boardwalk with a woman wearing a red shirt,people walking on a boardwalk with a woman wearing a blue shirt,wolfe1,image-134,3,31,A3TL6CY2J4Q35Q,2021-01-09_23h59.26.223,MetaAwareness,2020.1.2,Win32,60,3OWZNK3RYMSNEA43HGMJNGAF30OU23,A3TL6CY2J4Q35Q,3IKZ72A5B5JX6YU0YCU6HN7YUODFNT,57KI9,57KI9,3IKZ72A5B5JX6YU0YCU6HN7YUODFNT,3IKZ72A5B5JX6YU0YCU6HN7YUODFNT,268159,268159,,,,,,,,,,
,,,,2,15.484,0,8,8,71,1,a girl walks with her friend and her black and blue backpack,a girl walks with her friend and her black and green backpack,wolfe1,image-094,2,31,A3TL6CY2J4Q35Q,2021-01-09_23h59.26.223,MetaAwareness,2020.1.2,Win32,60,3OWZNK3RYMSNEA43HGMJNGAF30OU23,A3TL6CY2J4Q35Q,3IKZ72A5B5JX6YU0YCU6HN7YUODFNT,57KI9,57KI9,3IKZ72A5B5JX6YU0YCU6HN7YUODFNT,3IKZ72A5B5JX6YU0YCU6HN7YUODFNT,268159,268159,,,,,,,,,,
,,,,1,8.835,0,9,9,63,1,people playing soccer with one wearing blue shoe.,people playing soccer with one person wearing one green shoe.,wolfe1,image-082,1,31,A3TL6CY2J4Q35Q,2021-01-09_23h59.26.223,MetaAwareness,2020.1.2,Win32,60,3OWZNK3RYMSNEA43HGMJNGAF30OU23,A3TL6CY2J4Q35Q,3IKZ72A5B5JX6YU0YCU6HN7YUODFNT,57KI9,57KI9,3IKZ72A5B5JX6YU0YCU6HN7YUODFNT,3IKZ72A5B5JX6YU0YCU6HN7YUODFNT,268159,268159,,,,,,,,,,
,,,,1,5.707,0,10,10,109,1,an old woman wearing blue jeans is standing in a crowd of people on a road,an elderly woman wearing grey pants is standing in a crowd of people on the roadside,wolfe1,image-129,6,31,A3TL6CY2J4Q35Q,2021-01-09_23h59.26.223,MetaAwareness,2020.1.2,Win32,60,3OWZNK3RYMSNEA43HGMJNGAF30OU23,A3TL6CY2J4Q35Q,3IKZ72A5B5JX6YU0YCU6HN7YUODFNT,57KI9,57KI9,3IKZ72A5B5JX6YU0YCU6HN7YUODFNT,3IKZ72A5B5JX6YU0YCU6HN7YUODFNT,268159,268159,,,,,,,,,,
,,,,2,7.957,0,11,11,89,1,a group of stores connected together the one on the end has a red sign at the top of it.,a group of stores connected together the one on the end has a blue sign at the top of it.,wolfe1,image-110,5,31,A3TL6CY2J4Q35Q,2021-01-09_23h59.26.223,MetaAwareness,2020.1.2,Win32,60,3OWZNK3RYMSNEA43HGMJNGAF30OU23,A3TL6CY2J4Q35Q,3IKZ72A5B5JX6YU0YCU6HN7YUODFNT,57KI9,57KI9,3IKZ72A5B5JX6YU0YCU6HN7YUODFNT,3IKZ72A5B5JX6YU0YCU6HN7YUODFNT,268159,268159,,,,,,,,,,
,,,,2,6.516,0,12,12,110,1,a man carrying supplies which include an orange package.,a man carrying supplies which include a blue package.,wolfe1,image-130,6,31,A3TL6CY2J4Q35Q,2021-01-09_23h59.26.223,MetaAwareness,2020.1.2,Win32,60,3OWZNK3RYMSNEA43HGMJNGAF30OU23,A3TL6CY2J4Q35Q,3IKZ72A5B5JX6YU0YCU6HN7YUODFNT,57KI9,57KI9,3IKZ72A5B5JX6YU0YCU6HN7YUODFNT,3IKZ72A5B5JX6YU0YCU6HN7YUODFNT,268159,268159,,,,,,,,,,
,,,,3,10.074,0,13,13,45,1,many people crowd a street in front of a huge catherdral with 5 front points on the top.,many people crowd a street in front of a huge catherdral with 4 front points on the top.,wolfe1,image-042,2,31,A3TL6CY2J4Q35Q,2021-01-09_23h59.26.223,MetaAwareness,2020.1.2,Win32,60,3OWZNK3RYMSNEA43HGMJNGAF30OU23,A3TL6CY2J4Q35Q,3IKZ72A5B5JX6YU0YCU6HN7YUODFNT,57KI9,57KI9,3IKZ72A5B5JX6YU0YCU6HN7YUODFNT,3IKZ72A5B5JX6YU0YCU6HN7YUODFNT,268159,268159,,,,,,,,,,
,,,,2,6.326,0,14,14,42,1,"a red brick factory is next to a small pond and wild area, with a rock sticking out of the pond.","a red brick factory is next to a small pond and wild area, with the pond being clear of rocks.",wolfe1,image-041,4,31,A3TL6CY2J4Q35Q,2021-01-09_23h59.26.223,MetaAwareness,2020.1.2,Win32,60,3OWZNK3RYMSNEA43HGMJNGAF30OU23,A3TL6CY2J4Q35Q,3IKZ72A5B5JX6YU0YCU6HN7YUODFNT,57KI9,57KI9,3IKZ72A5B5JX6YU0YCU6HN7YUODFNT,3IKZ72A5B5JX6YU0YCU6HN7YUODFNT,268159,268159,,,,,,,,,,
,,,,1,4.719,0,15,15,32,1,house with tile walkway in back yard,house with tile walkway missing one tile,wolfe1,image-034,2,31,A3TL6CY2J4Q35Q,2021-01-09_23h59.26.223,MetaAwareness,2020.1.2,Win32,60,3OWZNK3RYMSNEA43HGMJNGAF30OU23,A3TL6CY2J4Q35Q,3IKZ72A5B5JX6YU0YCU6HN7YUODFNT,57KI9,57KI9,3IKZ72A5B5JX6YU0YCU6HN7YUODFNT,3IKZ72A5B5JX6YU0YCU6HN7YUODFNT,268159,268159,,,,,,,,,,
,,,,2,7.346,0,16,16,68,1,a woman in pink is walking down a busy commercial street in front of a large crowd,a woman in green is walking down a busy commercial street in front of  large crowd,wolfe1,image-090,2,31,A3TL6CY2J4Q35Q,2021-01-09_23h59.26.223,MetaAwareness,2020.1.2,Win32,60,3OWZNK3RYMSNEA43HGMJNGAF30OU23,A3TL6CY2J4Q35Q,3IKZ72A5B5JX6YU0YCU6HN7YUODFNT,57KI9,57KI9,3IKZ72A5B5JX6YU0YCU6HN7YUODFNT,3IKZ72A5B5JX6YU0YCU6HN7YUODFNT,268159,268159,,,,,,,,,,
,,,,3,7.881,0,17,17,87,1,"a group of hikers, with one man wearing a red backpack.",a group of hikers with one man wearing a blue backpack.,wolfe1,image-109,1,31,A3TL6CY2J4Q35Q,2021-01-09_23h59.26.223,MetaAwareness,2020.1.2,Win32,60,3OWZNK3RYMSNEA43HGMJNGAF30OU23,A3TL6CY2J4Q35Q,3IKZ72A5B5JX6YU0YCU6HN7YUODFNT,57KI9,57KI9,3IKZ72A5B5JX6YU0YCU6HN7YUODFNT,3IKZ72A5B5JX6YU0YCU6HN7YUODFNT,268159,268159,,,,,,,,,,
,,,,2,8.314,0,18,18,98,1,a patio with greenery and a large statue of a head next to a green vase.,a patio with greenery and a large statue of a head next to a purple vase.,wolfe1,image-120,3,31,A3TL6CY2J4Q35Q,2021-01-09_23h59.26.223,MetaAwareness,2020.1.2,Win32,60,3OWZNK3RYMSNEA43HGMJNGAF30OU23,A3TL6CY2J4Q35Q,3IKZ72A5B5JX6YU0YCU6HN7YUODFNT,57KI9,57KI9,3IKZ72A5B5JX6YU0YCU6HN7YUODFNT,3IKZ72A5B5JX6YU0YCU6HN7YUODFNT,268159,268159,,,,,,,,,,
,,,,3,5.113,0,19,19,86,1,three golfers contemplate a ball in front of a green roofed house,three golfers contemplate a ball in front of a gray roofed house,wolfe1,image-108,4,31,A3TL6CY2J4Q35Q,2021-01-09_23h59.26.223,MetaAwareness,2020.1.2,Win32,60,3OWZNK3RYMSNEA43HGMJNGAF30OU23,A3TL6CY2J4Q35Q,3IKZ72A5B5JX6YU0YCU6HN7YUODFNT,57KI9,57KI9,3IKZ72A5B5JX6YU0YCU6HN7YUODFNT,3IKZ72A5B5JX6YU0YCU6HN7YUODFNT,268159,268159,,,,,,,,,,
,,,,1,4.577,0,20,20,43,1,a white rock floating in a blue lake,some blue water floating in a lake,wolfe1,image-041,8,31,A3TL6CY2J4Q35Q,2021-01-09_23h59.26.223,MetaAwareness,2020.1.2,Win32,60,3OWZNK3RYMSNEA43HGMJNGAF30OU23,A3TL6CY2J4Q35Q,3IKZ72A5B5JX6YU0YCU6HN7YUODFNT,57KI9,57KI9,3IKZ72A5B5JX6YU0YCU6HN7YUODFNT,3IKZ72A5B5JX6YU0YCU6HN7YUODFNT,268159,268159,,,,,,,,,,
,,,,2,10.003,0,21,21,106,1,a person with a blue shirt begins climbing up a pocked rockside to a cliff from the waters below,a person with a green shirt begins climbing up a pocked rockside to a cliff from the waters below,wolfe1,image-128,4,31,A3TL6CY2J4Q35Q,2021-01-09_23h59.26.223,MetaAwareness,2020.1.2,Win32,60,3OWZNK3RYMSNEA43HGMJNGAF30OU23,A3TL6CY2J4Q35Q,3IKZ72A5B5JX6YU0YCU6HN7YUODFNT,57KI9,57KI9,3IKZ72A5B5JX6YU0YCU6HN7YUODFNT,3IKZ72A5B5JX6YU0YCU6HN7YUODFNT,268159,268159,,,,,,,,,,
,,,,2,6.918,0,22,22,72,1,black backpack with blue tape,black backpack with green tape,wolfe1,image-094,3,31,A3TL6CY2J4Q35Q,2021-01-09_23h59.26.223,MetaAwareness,2020.1.2,Win32,60,3OWZNK3RYMSNEA43HGMJNGAF30OU23,A3TL6CY2J4Q35Q,3IKZ72A5B5JX6YU0YCU6HN7YUODFNT,57KI9,57KI9,3IKZ72A5B5JX6YU0YCU6HN7YUODFNT,3IKZ72A5B5JX6YU0YCU6HN7YUODFNT,268159,268159,,,,,,,,,,
,,,,1,10.067,0,23,23,12,1,six men playing instruments outside of a store that has a sign on the building next to them,six men playing instruments outside of a store that has a plain building next to it,wolfe1,image-013,1,31,A3TL6CY2J4Q35Q,2021-01-09_23h59.26.223,MetaAwareness,2020.1.2,Win32,60,3OWZNK3RYMSNEA43HGMJNGAF30OU23,A3TL6CY2J4Q35Q,3IKZ72A5B5JX6YU0YCU6HN7YUODFNT,57KI9,57KI9,3IKZ72A5B5JX6YU0YCU6HN7YUODFNT,3IKZ72A5B5JX6YU0YCU6HN7YUODFNT,268159,268159,,,,,,,,,,
,,,,1,9.821,0,24,24,36,1,"a picnic table is inside an enclosure, there is a white food carton sitting in the middle of the table.","a picnic table is inside an enclosure, there is no white food carton sitting in the middle.",wolfe1,image-037,1,31,A3TL6CY2J4Q35Q,2021-01-09_23h59.26.223,MetaAwareness,2020.1.2,Win32,60,3OWZNK3RYMSNEA43HGMJNGAF30OU23,A3TL6CY2J4Q35Q,3IKZ72A5B5JX6YU0YCU6HN7YUODFNT,57KI9,57KI9,3IKZ72A5B5JX6YU0YCU6HN7YUODFNT,3IKZ72A5B5JX6YU0YCU6HN7YUODFNT,268159,268159,,,,,,,,,,
,,,,2,7.328,0,25,25,53,1,kids on the side of the house after playing in the standing water,kinds on the side of the house after playing in the grass,wolfe1,image-048,2,31,A3TL6CY2J4Q35Q,2021-01-09_23h59.26.223,MetaAwareness,2020.1.2,Win32,60,3OWZNK3RYMSNEA43HGMJNGAF30OU23,A3TL6CY2J4Q35Q,3IKZ72A5B5JX6YU0YCU6HN7YUODFNT,57KI9,57KI9,3IKZ72A5B5JX6YU0YCU6HN7YUODFNT,3IKZ72A5B5JX6YU0YCU6HN7YUODFNT,268159,268159,,,,,,,,,,
,,,,3,6.271,0,26,26,119,1,"tourists riding camels, one wearing a green hat","tourists riding camels, one wearing a purple hat",wolfe1,image-135,3,31,A3TL6CY2J4Q35Q,2021-01-09_23h59.26.223,MetaAwareness,2020.1.2,Win32,60,3OWZNK3RYMSNEA43HGMJNGAF30OU23,A3TL6CY2J4Q35Q,3IKZ72A5B5JX6YU0YCU6HN7YUODFNT,57KI9,57KI9,3IKZ72A5B5JX6YU0YCU6HN7YUODFNT,3IKZ72A5B5JX6YU0YCU6HN7YUODFNT,268159,268159,,,,,,,,,,
,,,,3,7.621,0,27,27,96,1,people are gathered at an outdoor market filled with various fruits and vegetables. one of the awnings covering the stalls is blue,people are gathered at an outdoor market filled with various fruits and vegetables. one of the awnings covering the stalls is red.,wolfe1,image-117,7,31,A3TL6CY2J4Q35Q,2021-01-09_23h59.26.223,MetaAwareness,2020.1.2,Win32,60,3OWZNK3RYMSNEA43HGMJNGAF30OU23,A3TL6CY2J4Q35Q,3IKZ72A5B5JX6YU0YCU6HN7YUODFNT,57KI9,57KI9,3IKZ72A5B5JX6YU0YCU6HN7YUODFNT,3IKZ72A5B5JX6YU0YCU6HN7YUODFNT,268159,268159,,,,,,,,,,
,,,,2,4.851,0,28,28,9,1,a room setting with objects on a low table. there is a small cactus next to a tall cactus.,a room setting with objects on the table. there is only one cactus present.,wolfe1,image-011,3,31,A3TL6CY2J4Q35Q,2021-01-09_23h59.26.223,MetaAwareness,2020.1.2,Win32,60,3OWZNK3RYMSNEA43HGMJNGAF30OU23,A3TL6CY2J4Q35Q,3IKZ72A5B5JX6YU0YCU6HN7YUODFNT,57KI9,57KI9,3IKZ72A5B5JX6YU0YCU6HN7YUODFNT,3IKZ72A5B5JX6YU0YCU6HN7YUODFNT,268159,268159,,,,,,,,,,
,,,,3,4.545,0,29,29,19,1,three women are firing arrows from four firing positions,three women are firing arrows from three firing positions,wolfe1,image-021,5,31,A3TL6CY2J4Q35Q,2021-01-09_23h59.26.223,MetaAwareness,2020.1.2,Win32,60,3OWZNK3RYMSNEA43HGMJNGAF30OU23,A3TL6CY2J4Q35Q,3IKZ72A5B5JX6YU0YCU6HN7YUODFNT,57KI9,57KI9,3IKZ72A5B5JX6YU0YCU6HN7YUODFNT,3IKZ72A5B5JX6YU0YCU6HN7YUODFNT,268159,268159,,,,,,,,,,
,,,,,,,,,,,,,,,,31,A3TL6CY2J4Q35Q,2021-01-09_23h59.26.223,MetaAwareness,2020.1.2,Win32,60,3OWZNK3RYMSNEA43HGMJNGAF30OU23,A3TL6CY2J4Q35Q,3IKZ72A5B5JX6YU0YCU6HN7YUODFNT,57KI9,57KI9,3IKZ72A5B5JX6YU0YCU6HN7YUODFNT,3IKZ72A5B5JX6YU0YCU6HN7YUODFNT,268159,268159,6,16.727,someone laying underneath a blue beach umbrella on a crowded beach,someone laying underneath a blue beach umbrella on a crowded beach,same,1,4.255,members of a marching band crossing a track that all have feather plumes at the front of their hats,a cluttered and rustic looking cafe with 10 hanging lights,different
