consent_response.keys,consent_response.rt,key_resp_2.keys,key_resp_2.rt,user_resp.keys,user_resp.rt,trials.thisRepN,trials.thisTrialN,trials.thisN,trials.thisIndex,trials.ran,image_1_text,image_2_text,database,image,number,age,worker_ID,date,expName,psychopyVersion,OS,frameRate,hitId,workerId,assignmentId,a,tp_a,b,tp_b,c,tp_c,catch_same_resp.keys,catch_same_resp.rt,image_1_text_catch_same,image_2_text_catch_same,image_catch_same,catch_different_resp.keys,catch_different_resp.rt,image_1_text_catch_different,image_2_text_catch_different,image_catch_different
space,17.80982,space,6.44105,3,39.003905,0,0,0,478,1,a series of buildings. one has a red roof,a series of buildings. one has a dark blue roof,wolfe1,image-110,6,32,A18NYAK5GTG15H,2021-01-07_10h09.28.900,MetaAwareness,2020.1.2,Win32,60,336OE47KI3N935RA0QLV79SNLCSWV8,A18NYAK5GTG15H,3KOPY89HM9567WNMZJ1CN71KH58J36,HYOK5,HYOK5,3KOPY89HM9567WNMZJ1CN71KH58J36,3KOPY89HM9567WNMZJ1CN71KH58J36,267715,267715,,,,,,,,,,
,,,,1,13.451925,0,1,1,253,1,a bale of hay is rolled up next to several other bales of hay in a field,a field has several bales of hay rolled up and waiting to be used,wolfe1,image-045,5,32,A18NYAK5GTG15H,2021-01-07_10h09.28.900,MetaAwareness,2020.1.2,Win32,60,336OE47KI3N935RA0QLV79SNLCSWV8,A18NYAK5GTG15H,3KOPY89HM9567WNMZJ1CN71KH58J36,HYOK5,HYOK5,3KOPY89HM9567WNMZJ1CN71KH58J36,3KOPY89HM9567WNMZJ1CN71KH58J36,267715,267715,,,,,,,,,,
,,,,5,15.66475,0,2,2,61,1,a minimalist looking room with a mirror and chair next to a low table with three plants,a minimalist looking room with a mirror and a chair next to a low table with two plants,wolfe1,image-011,4,32,A18NYAK5GTG15H,2021-01-07_10h09.28.900,MetaAwareness,2020.1.2,Win32,60,336OE47KI3N935RA0QLV79SNLCSWV8,A18NYAK5GTG15H,3KOPY89HM9567WNMZJ1CN71KH58J36,HYOK5,HYOK5,3KOPY89HM9567WNMZJ1CN71KH58J36,3KOPY89HM9567WNMZJ1CN71KH58J36,267715,267715,,,,,,,,,,
,,,,5,10.45855,0,3,3,20,1,"a person is sitting on a dock, next to a chain, fishing.",a person is sitting on a dock fishing,wolfe1,image-004,3,32,A18NYAK5GTG15H,2021-01-07_10h09.28.900,MetaAwareness,2020.1.2,Win32,60,336OE47KI3N935RA0QLV79SNLCSWV8,A18NYAK5GTG15H,3KOPY89HM9567WNMZJ1CN71KH58J36,HYOK5,HYOK5,3KOPY89HM9567WNMZJ1CN71KH58J36,3KOPY89HM9567WNMZJ1CN71KH58J36,267715,267715,,,,,,,,,,
,,,,3,6.48005,0,4,4,378,1,a girl in white shorts is next to a girl with bare legs doing exercises in a gymnasium,a girl wearing white shorts stands to a girl wearing a green sock in a gym where they are all exercising,wolfe1,image-093,5,32,A18NYAK5GTG15H,2021-01-07_10h09.28.900,MetaAwareness,2020.1.2,Win32,60,336OE47KI3N935RA0QLV79SNLCSWV8,A18NYAK5GTG15H,3KOPY89HM9567WNMZJ1CN71KH58J36,HYOK5,HYOK5,3KOPY89HM9567WNMZJ1CN71KH58J36,3KOPY89HM9567WNMZJ1CN71KH58J36,267715,267715,,,,,,,,,,
,,,,1,4.12311,0,5,5,386,1,students walking with backpacks,students walking with backpacks and a blue decoration on the backpack,wolfe1,image-094,7,32,A18NYAK5GTG15H,2021-01-07_10h09.28.900,MetaAwareness,2020.1.2,Win32,60,336OE47KI3N935RA0QLV79SNLCSWV8,A18NYAK5GTG15H,3KOPY89HM9567WNMZJ1CN71KH58J36,HYOK5,HYOK5,3KOPY89HM9567WNMZJ1CN71KH58J36,3KOPY89HM9567WNMZJ1CN71KH58J36,267715,267715,,,,,,,,,,
,,,,1,9.849785,0,6,6,244,1,there is a very modern looking room with minimalist furniture and sleek painting on the wall. there is a small white vase in the right cornern,there is a very modern looking room with minimalist furniture and sleek paintings on the wall. there is not small white vase in the right corner.,wolfe1,image-043,5,32,A18NYAK5GTG15H,2021-01-07_10h09.28.900,MetaAwareness,2020.1.2,Win32,60,336OE47KI3N935RA0QLV79SNLCSWV8,A18NYAK5GTG15H,3KOPY89HM9567WNMZJ1CN71KH58J36,HYOK5,HYOK5,3KOPY89HM9567WNMZJ1CN71KH58J36,3KOPY89HM9567WNMZJ1CN71KH58J36,267715,267715,,,,,,,,,,
,,,,4,9.24149,0,7,7,161,1,a small window panel on the roof af an old building,the roof of a historic old building,wolfe1,image-029,1,32,A18NYAK5GTG15H,2021-01-07_10h09.28.900,MetaAwareness,2020.1.2,Win32,60,336OE47KI3N935RA0QLV79SNLCSWV8,A18NYAK5GTG15H,3KOPY89HM9567WNMZJ1CN71KH58J36,HYOK5,HYOK5,3KOPY89HM9567WNMZJ1CN71KH58J36,3KOPY89HM9567WNMZJ1CN71KH58J36,267715,267715,,,,,,,,,,
,,,,3,8.66216,0,8,8,300,1,group of people and man in blue shirt,group of people and man in green shirt,wolfe1,image-078,4,32,A18NYAK5GTG15H,2021-01-07_10h09.28.900,MetaAwareness,2020.1.2,Win32,60,336OE47KI3N935RA0QLV79SNLCSWV8,A18NYAK5GTG15H,3KOPY89HM9567WNMZJ1CN71KH58J36,HYOK5,HYOK5,3KOPY89HM9567WNMZJ1CN71KH58J36,3KOPY89HM9567WNMZJ1CN71KH58J36,267715,267715,,,,,,,,,,
,,,,3,14.03957,0,9,9,389,1,a person hiking a trail passing a flower with red petals,a person hiking a trail passing a flower with yellow petals,wolfe1,image-095,1,32,A18NYAK5GTG15H,2021-01-07_10h09.28.900,MetaAwareness,2020.1.2,Win32,60,336OE47KI3N935RA0QLV79SNLCSWV8,A18NYAK5GTG15H,3KOPY89HM9567WNMZJ1CN71KH58J36,HYOK5,HYOK5,3KOPY89HM9567WNMZJ1CN71KH58J36,3KOPY89HM9567WNMZJ1CN71KH58J36,267715,267715,,,,,,,,,,
,,,,2,6.19174,0,10,10,604,1,"ther is a living room with a fireplace. there are white colored sofa around the fireplace. the sofa to the right has red, black, and dark red pillows on it.","there is a living room with a fireplace. there are white colored sofas around the fireplace. the sofa to teh right has red, black, and green pillows on it.",wolfe1,image-132,6,32,A18NYAK5GTG15H,2021-01-07_10h09.28.900,MetaAwareness,2020.1.2,Win32,60,336OE47KI3N935RA0QLV79SNLCSWV8,A18NYAK5GTG15H,3KOPY89HM9567WNMZJ1CN71KH58J36,HYOK5,HYOK5,3KOPY89HM9567WNMZJ1CN71KH58J36,3KOPY89HM9567WNMZJ1CN71KH58J36,267715,267715,,,,,,,,,,
,,,,5,4.587045,0,11,11,260,1,a white object sticks out of the ground as locals are gathered to aid in digging a hole in the ground,locals gather to aid in digging a hole in the ground,wolfe1,image-046,6,32,A18NYAK5GTG15H,2021-01-07_10h09.28.900,MetaAwareness,2020.1.2,Win32,60,336OE47KI3N935RA0QLV79SNLCSWV8,A18NYAK5GTG15H,3KOPY89HM9567WNMZJ1CN71KH58J36,HYOK5,HYOK5,3KOPY89HM9567WNMZJ1CN71KH58J36,3KOPY89HM9567WNMZJ1CN71KH58J36,267715,267715,,,,,,,,,,
,,,,3,7.951135,0,12,12,294,1,"there are a group of people, including police officers, standing in front of a large brick mansion. a woman is holding a blue child's jacket.",there is a group of people standing in front of a large brick mansion. some  of the people are police officers. there is a woman holding a child' yellow jacket.,wolfe1,image-077,2,32,A18NYAK5GTG15H,2021-01-07_10h09.28.900,MetaAwareness,2020.1.2,Win32,60,336OE47KI3N935RA0QLV79SNLCSWV8,A18NYAK5GTG15H,3KOPY89HM9567WNMZJ1CN71KH58J36,HYOK5,HYOK5,3KOPY89HM9567WNMZJ1CN71KH58J36,3KOPY89HM9567WNMZJ1CN71KH58J36,267715,267715,,,,,,,,,,
,,,,2,2.179805,0,13,13,290,1,two men one in yellow shirt watch motorcross biking,two men one in a green shirt watch motorcross biking,wolfe1,image-076,7,32,A18NYAK5GTG15H,2021-01-07_10h09.28.900,MetaAwareness,2020.1.2,Win32,60,336OE47KI3N935RA0QLV79SNLCSWV8,A18NYAK5GTG15H,3KOPY89HM9567WNMZJ1CN71KH58J36,HYOK5,HYOK5,3KOPY89HM9567WNMZJ1CN71KH58J36,3KOPY89HM9567WNMZJ1CN71KH58J36,267715,267715,,,,,,,,,,
,,,,3,6.98412,0,14,14,302,1,people walking in mall with a red store sign upstairs,people walking in mall with a pink store sign upstairs,wolfe1,image-079,1,32,A18NYAK5GTG15H,2021-01-07_10h09.28.900,MetaAwareness,2020.1.2,Win32,60,336OE47KI3N935RA0QLV79SNLCSWV8,A18NYAK5GTG15H,3KOPY89HM9567WNMZJ1CN71KH58J36,HYOK5,HYOK5,3KOPY89HM9567WNMZJ1CN71KH58J36,3KOPY89HM9567WNMZJ1CN71KH58J36,267715,267715,,,,,,,,,,
,,,,1,6.018805,0,15,15,583,1,a jeans-wearing photographer looks at her photos as she stands outside an interestingly designed building,a gray pants-wearing photographer looks at her photos as she stands outside an interestingly designed building,wolfe1,image-129,7,32,A18NYAK5GTG15H,2021-01-07_10h09.28.900,MetaAwareness,2020.1.2,Win32,60,336OE47KI3N935RA0QLV79SNLCSWV8,A18NYAK5GTG15H,3KOPY89HM9567WNMZJ1CN71KH58J36,HYOK5,HYOK5,3KOPY89HM9567WNMZJ1CN71KH58J36,3KOPY89HM9567WNMZJ1CN71KH58J36,267715,267715,,,,,,,,,,
,,,,3,1.24803,0,16,16,366,1,people sitting at table in front of an office building outside and a woman with long curly hair and a red dress,people sitting at tables in front of an office building outside and a woman with long curly hair and a purple dress,wolfe1,image-091,3,32,A18NYAK5GTG15H,2021-01-07_10h09.28.900,MetaAwareness,2020.1.2,Win32,60,336OE47KI3N935RA0QLV79SNLCSWV8,A18NYAK5GTG15H,3KOPY89HM9567WNMZJ1CN71KH58J36,HYOK5,HYOK5,3KOPY89HM9567WNMZJ1CN71KH58J36,3KOPY89HM9567WNMZJ1CN71KH58J36,267715,267715,,,,,,,,,,
,,,,2,1.85819,0,17,17,596,1,dance instructor teaches a group of young children how to dance. one child wearing a red plaid skirt seems to have mastered the form better than the rest of her class,dance instructor teaches a group of young children how to dance. one child wearing a purple plaid skirt seems to have mastered the form better than the rest of her class,wolfe1,image-131,4,32,A18NYAK5GTG15H,2021-01-07_10h09.28.900,MetaAwareness,2020.1.2,Win32,60,336OE47KI3N935RA0QLV79SNLCSWV8,A18NYAK5GTG15H,3KOPY89HM9567WNMZJ1CN71KH58J36,HYOK5,HYOK5,3KOPY89HM9567WNMZJ1CN71KH58J36,3KOPY89HM9567WNMZJ1CN71KH58J36,267715,267715,,,,,,,,,,
,,,,4,1.40964,0,18,18,400,1,a group of practicing singers practicing with a blue bin next to the pianist.,a group of singers practicing with a green bin next to the pianist. ,wolfe1,image-096,4,32,A18NYAK5GTG15H,2021-01-07_10h09.28.900,MetaAwareness,2020.1.2,Win32,60,336OE47KI3N935RA0QLV79SNLCSWV8,A18NYAK5GTG15H,3KOPY89HM9567WNMZJ1CN71KH58J36,HYOK5,HYOK5,3KOPY89HM9567WNMZJ1CN71KH58J36,3KOPY89HM9567WNMZJ1CN71KH58J36,267715,267715,,,,,,,,,,
,,,,1,6.75798,0,19,19,83,1,a large concert in an outdoor tent with a lot of people sitting on the ground and a baby in the grass alone,a large concert in an outdoor tent with a lot people sitting on the ground. there is no baby in the grass in this image,wolfe1,image-014,7,32,A18NYAK5GTG15H,2021-01-07_10h09.28.900,MetaAwareness,2020.1.2,Win32,60,336OE47KI3N935RA0QLV79SNLCSWV8,A18NYAK5GTG15H,3KOPY89HM9567WNMZJ1CN71KH58J36,HYOK5,HYOK5,3KOPY89HM9567WNMZJ1CN71KH58J36,3KOPY89HM9567WNMZJ1CN71KH58J36,267715,267715,,,,,,,,,,
,,,,5,7.265935,0,20,20,136,1,an adult and a child are walking into a clinic that has shrubs on both sides of the entrance,an adult and child are walking into a clinic that has a shrub on one side of the entrance,wolfe1,image-023,3,32,A18NYAK5GTG15H,2021-01-07_10h09.28.900,MetaAwareness,2020.1.2,Win32,60,336OE47KI3N935RA0QLV79SNLCSWV8,A18NYAK5GTG15H,3KOPY89HM9567WNMZJ1CN71KH58J36,HYOK5,HYOK5,3KOPY89HM9567WNMZJ1CN71KH58J36,3KOPY89HM9567WNMZJ1CN71KH58J36,267715,267715,,,,,,,,,,
,,,,4,7.285835,0,21,21,46,1,"a woman pettin a deer at what appears to be a petting zoo, there is a person in all black behind her to the right.","a woman petting a deer at a zoo, there is no person dressed in all black behind her",wolfe1,image-008,5,32,A18NYAK5GTG15H,2021-01-07_10h09.28.900,MetaAwareness,2020.1.2,Win32,60,336OE47KI3N935RA0QLV79SNLCSWV8,A18NYAK5GTG15H,3KOPY89HM9567WNMZJ1CN71KH58J36,HYOK5,HYOK5,3KOPY89HM9567WNMZJ1CN71KH58J36,3KOPY89HM9567WNMZJ1CN71KH58J36,267715,267715,,,,,,,,,,
,,,,4,2.79691,0,22,22,172,1,a parade of people are on the stree and the girl has a badge on her right chest,a parade of people are on the street and the girl has no badge on her right chest,wolfe1,image-031,4,32,A18NYAK5GTG15H,2021-01-07_10h09.28.900,MetaAwareness,2020.1.2,Win32,60,336OE47KI3N935RA0QLV79SNLCSWV8,A18NYAK5GTG15H,3KOPY89HM9567WNMZJ1CN71KH58J36,HYOK5,HYOK5,3KOPY89HM9567WNMZJ1CN71KH58J36,3KOPY89HM9567WNMZJ1CN71KH58J36,267715,267715,,,,,,,,,,
,,,,4,2.82068,0,23,23,254,1,an empty field with 7 bails of hay scatterered around.,an empty field with 6 bails of hay scattered around.,wolfe1,image-045,6,32,A18NYAK5GTG15H,2021-01-07_10h09.28.900,MetaAwareness,2020.1.2,Win32,60,336OE47KI3N935RA0QLV79SNLCSWV8,A18NYAK5GTG15H,3KOPY89HM9567WNMZJ1CN71KH58J36,HYOK5,HYOK5,3KOPY89HM9567WNMZJ1CN71KH58J36,3KOPY89HM9567WNMZJ1CN71KH58J36,267715,267715,,,,,,,,,,
,,,,5,0.70341,0,24,24,34,1,a microwave sits on the counter in a white kitchen beside a black refrigerator,a white cabinet is next to a black refrigerator in a modern white kitchen,wolfe1,image-006,4,32,A18NYAK5GTG15H,2021-01-07_10h09.28.900,MetaAwareness,2020.1.2,Win32,60,336OE47KI3N935RA0QLV79SNLCSWV8,A18NYAK5GTG15H,3KOPY89HM9567WNMZJ1CN71KH58J36,HYOK5,HYOK5,3KOPY89HM9567WNMZJ1CN71KH58J36,3KOPY89HM9567WNMZJ1CN71KH58J36,267715,267715,,,,,,,,,,
,,,,2,1.26065,0,25,25,593,1,the instructor shows the children dance moves. one of the children wears a pink skirt.,the instructor shows the children dance moves. one of the children wears a purple skirt.,wolfe1,image-131,1,32,A18NYAK5GTG15H,2021-01-07_10h09.28.900,MetaAwareness,2020.1.2,Win32,60,336OE47KI3N935RA0QLV79SNLCSWV8,A18NYAK5GTG15H,3KOPY89HM9567WNMZJ1CN71KH58J36,HYOK5,HYOK5,3KOPY89HM9567WNMZJ1CN71KH58J36,3KOPY89HM9567WNMZJ1CN71KH58J36,267715,267715,,,,,,,,,,
,,,,4,1.24812,0,26,26,498,1,there is a blue fence in the background,there is a yellow fence in the background,wolfe1,image-114,2,32,A18NYAK5GTG15H,2021-01-07_10h09.28.900,MetaAwareness,2020.1.2,Win32,60,336OE47KI3N935RA0QLV79SNLCSWV8,A18NYAK5GTG15H,3KOPY89HM9567WNMZJ1CN71KH58J36,HYOK5,HYOK5,3KOPY89HM9567WNMZJ1CN71KH58J36,3KOPY89HM9567WNMZJ1CN71KH58J36,267715,267715,,,,,,,,,,
,,,,5,1.3742,0,27,27,423,1,children playing on a playground with the young girl on the far right wearing a pinkl shirt.,children playing on a playground with the young girl on the far right wearing a orange shirt.,wolfe1,image-101,4,32,A18NYAK5GTG15H,2021-01-07_10h09.28.900,MetaAwareness,2020.1.2,Win32,60,336OE47KI3N935RA0QLV79SNLCSWV8,A18NYAK5GTG15H,3KOPY89HM9567WNMZJ1CN71KH58J36,HYOK5,HYOK5,3KOPY89HM9567WNMZJ1CN71KH58J36,3KOPY89HM9567WNMZJ1CN71KH58J36,267715,267715,,,,,,,,,,
,,,,1,1.927465,0,28,28,563,1,a man in a blue shirt plays volleyball with a group,a man in a green shirt plays volleyball with a group,wolfe1,image-126,2,32,A18NYAK5GTG15H,2021-01-07_10h09.28.900,MetaAwareness,2020.1.2,Win32,60,336OE47KI3N935RA0QLV79SNLCSWV8,A18NYAK5GTG15H,3KOPY89HM9567WNMZJ1CN71KH58J36,HYOK5,HYOK5,3KOPY89HM9567WNMZJ1CN71KH58J36,3KOPY89HM9567WNMZJ1CN71KH58J36,267715,267715,,,,,,,,,,
,,,,5,1.190345,0,29,29,330,1,a man with a red backpack rests with other hikers on the trail,a man with a green backpack rests with other hikers on the trail,wolfe1,image-084,2,32,A18NYAK5GTG15H,2021-01-07_10h09.28.900,MetaAwareness,2020.1.2,Win32,60,336OE47KI3N935RA0QLV79SNLCSWV8,A18NYAK5GTG15H,3KOPY89HM9567WNMZJ1CN71KH58J36,HYOK5,HYOK5,3KOPY89HM9567WNMZJ1CN71KH58J36,3KOPY89HM9567WNMZJ1CN71KH58J36,267715,267715,,,,,,,,,,
,,,,,,,,,,,,,,,,32,A18NYAK5GTG15H,2021-01-07_10h09.28.900,MetaAwareness,2020.1.2,Win32,60,336OE47KI3N935RA0QLV79SNLCSWV8,A18NYAK5GTG15H,3KOPY89HM9567WNMZJ1CN71KH58J36,HYOK5,HYOK5,3KOPY89HM9567WNMZJ1CN71KH58J36,3KOPY89HM9567WNMZJ1CN71KH58J36,267715,267715,1,2.307355,someone laying underneath a blue beach umbrella on a crowded beach,someone laying underneath a blue beach umbrella on a crowded beach,same,5,2.688295,members of a marching band crossing a track that all have feather plumes at the front of their hats,a cluttered and rustic looking cafe with 10 hanging lights,different