consent_response.keys,consent_response.rt,key_resp_2.keys,key_resp_2.rt,user_resp.keys,user_resp.rt,trials.thisRepN,trials.thisTrialN,trials.thisN,trials.thisIndex,trials.ran,image_1_text,image_2_text,database,image,number,age,worker_ID,date,expName,psychopyVersion,OS,frameRate,hitId,workerId,assignmentId,a,tp_a,b,tp_b,c,tp_c,catch_same_resp.keys,catch_same_resp.rt,image_1_text_catch_same,image_2_text_catch_same,image_catch_same,catch_different_resp.keys,catch_different_resp.rt,image_1_text_catch_different,image_2_text_catch_different,image_catch_different
space,8.58063,space,10.36216,5,6.17345,0,0,0,450,1,a set of stairs with a yellow cushion on the top stair.,a set of stairs with a white cushion on the top stair.,wolfe1,image-106,1,35,A1UCB0D27PY623,2021-01-07_10h12.16.120,MetaAwareness,2020.1.2,Win32,60,336OE47KI3N935RA0QLV79SNLCSWV8,A1UCB0D27PY623,3XUHV3NRVL1DU5F0P2MKQRJPI9VH5P,RVUX5,RVUX5,3XUHV3NRVL1DU5F0P2MKQRJPI9VH5P,3XUHV3NRVL1DU5F0P2MKQRJPI9VH5P,267715,267715,,,,,,,,,,
,,,,5,3.54447,0,1,1,303,1,a red sign is displayed in a busy shopping mall,a purple sign is displayed in a busy shopping mall,wolfe1,image-079,2,35,A1UCB0D27PY623,2021-01-07_10h12.16.120,MetaAwareness,2020.1.2,Win32,60,336OE47KI3N935RA0QLV79SNLCSWV8,A1UCB0D27PY623,3XUHV3NRVL1DU5F0P2MKQRJPI9VH5P,RVUX5,RVUX5,3XUHV3NRVL1DU5F0P2MKQRJPI9VH5P,3XUHV3NRVL1DU5F0P2MKQRJPI9VH5P,267715,267715,,,,,,,,,,
,,,,3,10.109945,0,2,2,3,1,a table is set with salt in a seaside dining area  ,a table with no food on it is set in a seaside dining area,wolfe1,image-001,4,35,A1UCB0D27PY623,2021-01-07_10h12.16.120,MetaAwareness,2020.1.2,Win32,60,336OE47KI3N935RA0QLV79SNLCSWV8,A1UCB0D27PY623,3XUHV3NRVL1DU5F0P2MKQRJPI9VH5P,RVUX5,RVUX5,3XUHV3NRVL1DU5F0P2MKQRJPI9VH5P,3XUHV3NRVL1DU5F0P2MKQRJPI9VH5P,267715,267715,,,,,,,,,,
,,,,5,8.911935,0,3,3,363,1,"there is a very busy street that is lined with tall older looking, but well kept buildings. a lady on the left is wearing  pink shirt","there is a very busy street that is lined with tall, older looking, but well kept buildings. a lady on the left is wearing a green shirt.",wolfe1,image-090,4,35,A1UCB0D27PY623,2021-01-07_10h12.16.120,MetaAwareness,2020.1.2,Win32,60,336OE47KI3N935RA0QLV79SNLCSWV8,A1UCB0D27PY623,3XUHV3NRVL1DU5F0P2MKQRJPI9VH5P,RVUX5,RVUX5,3XUHV3NRVL1DU5F0P2MKQRJPI9VH5P,3XUHV3NRVL1DU5F0P2MKQRJPI9VH5P,267715,267715,,,,,,,,,,
,,,,4,4.149,0,4,4,192,1,a patio at the back of a house with a walkway of 6 stone slabs leading to a sitting area,a patio at the back of a house with a walkway of 5 stone slabs leading to a sitting area,wolfe1,image-034,3,35,A1UCB0D27PY623,2021-01-07_10h12.16.120,MetaAwareness,2020.1.2,Win32,60,336OE47KI3N935RA0QLV79SNLCSWV8,A1UCB0D27PY623,3XUHV3NRVL1DU5F0P2MKQRJPI9VH5P,RVUX5,RVUX5,3XUHV3NRVL1DU5F0P2MKQRJPI9VH5P,3XUHV3NRVL1DU5F0P2MKQRJPI9VH5P,267715,267715,,,,,,,,,,
,,,,6,3.75843,0,5,5,456,1,an assortment of candles,an assortment of candles,wolfe1,image-107,2,35,A1UCB0D27PY623,2021-01-07_10h12.16.120,MetaAwareness,2020.1.2,Win32,60,336OE47KI3N935RA0QLV79SNLCSWV8,A1UCB0D27PY623,3XUHV3NRVL1DU5F0P2MKQRJPI9VH5P,RVUX5,RVUX5,3XUHV3NRVL1DU5F0P2MKQRJPI9VH5P,3XUHV3NRVL1DU5F0P2MKQRJPI9VH5P,267715,267715,,,,,,,,,,
,,,,5,6.594615,0,6,6,540,1,a crowded outdoor concert with someone wearing a light colored backpack and someone standing in front of them with a pink umbrella. ,a crowded outdoor concdert with somone wearing a light colored backpack and someone standing in front of them with a blue umbrella. ,wolfe1,image-122,2,35,A1UCB0D27PY623,2021-01-07_10h12.16.120,MetaAwareness,2020.1.2,Win32,60,336OE47KI3N935RA0QLV79SNLCSWV8,A1UCB0D27PY623,3XUHV3NRVL1DU5F0P2MKQRJPI9VH5P,RVUX5,RVUX5,3XUHV3NRVL1DU5F0P2MKQRJPI9VH5P,3XUHV3NRVL1DU5F0P2MKQRJPI9VH5P,267715,267715,,,,,,,,,,
,,,,5,8.833635,0,7,7,588,1,people loading supplies with an orange and blue case onto a helicopter in the snow. ,people loading supplies with a blue case onto a helicopter in the snow. ,wolfe1,image-130,2,35,A1UCB0D27PY623,2021-01-07_10h12.16.120,MetaAwareness,2020.1.2,Win32,60,336OE47KI3N935RA0QLV79SNLCSWV8,A1UCB0D27PY623,3XUHV3NRVL1DU5F0P2MKQRJPI9VH5P,RVUX5,RVUX5,3XUHV3NRVL1DU5F0P2MKQRJPI9VH5P,3XUHV3NRVL1DU5F0P2MKQRJPI9VH5P,267715,267715,,,,,,,,,,
,,,,5,5.00286,0,8,8,633,1,beach area with caddy' surfboard and 4 blue umbrellas and 3 yellow umbrellas,beach area with caddy's surfboard and 3 blue umbrellas and 4 yellow umbrellas,wolfe1,image-137,4,35,A1UCB0D27PY623,2021-01-07_10h12.16.120,MetaAwareness,2020.1.2,Win32,60,336OE47KI3N935RA0QLV79SNLCSWV8,A1UCB0D27PY623,3XUHV3NRVL1DU5F0P2MKQRJPI9VH5P,RVUX5,RVUX5,3XUHV3NRVL1DU5F0P2MKQRJPI9VH5P,3XUHV3NRVL1DU5F0P2MKQRJPI9VH5P,267715,267715,,,,,,,,,,
,,,,3,7.02484,0,9,9,82,1,people at an outdoor concert venue waiting for the show to start. there is one empty blanket off to the left. ,people at an outdoor concert venue waiting for the show to start. there is not an empty blanket anywhere. ,wolfe1,image-014,6,35,A1UCB0D27PY623,2021-01-07_10h12.16.120,MetaAwareness,2020.1.2,Win32,60,336OE47KI3N935RA0QLV79SNLCSWV8,A1UCB0D27PY623,3XUHV3NRVL1DU5F0P2MKQRJPI9VH5P,RVUX5,RVUX5,3XUHV3NRVL1DU5F0P2MKQRJPI9VH5P,3XUHV3NRVL1DU5F0P2MKQRJPI9VH5P,267715,267715,,,,,,,,,,
,,,,2,7.794665,0,10,10,91,1,a black object sints on the ground in front of a woman in a brown skirt on a crowded playground,nothing sits on on the ground in front of a woman in a brown skirt on a crowded playground,wolfe1,image-016,2,35,A1UCB0D27PY623,2021-01-07_10h12.16.120,MetaAwareness,2020.1.2,Win32,60,336OE47KI3N935RA0QLV79SNLCSWV8,A1UCB0D27PY623,3XUHV3NRVL1DU5F0P2MKQRJPI9VH5P,RVUX5,RVUX5,3XUHV3NRVL1DU5F0P2MKQRJPI9VH5P,3XUHV3NRVL1DU5F0P2MKQRJPI9VH5P,267715,267715,,,,,,,,,,
,,,,4,5.737545,0,11,11,101,1,a group of men are watching a man hit a golf ball in the marked hole.,a group of men are watching a man hit a golf ball in an unmarked hole.,wolfe1,image-017,7,35,A1UCB0D27PY623,2021-01-07_10h12.16.120,MetaAwareness,2020.1.2,Win32,60,336OE47KI3N935RA0QLV79SNLCSWV8,A1UCB0D27PY623,3XUHV3NRVL1DU5F0P2MKQRJPI9VH5P,RVUX5,RVUX5,3XUHV3NRVL1DU5F0P2MKQRJPI9VH5P,3XUHV3NRVL1DU5F0P2MKQRJPI9VH5P,267715,267715,,,,,,,,,,
,,,,5,8.412235,0,12,12,634,1,picnic tables are set up on the beach with three blue and three yellow beach umbrellas,picnic tables are set up on the beach with two blue and four yellow beach umbrellas,wolfe1,image-137,5,35,A1UCB0D27PY623,2021-01-07_10h12.16.120,MetaAwareness,2020.1.2,Win32,60,336OE47KI3N935RA0QLV79SNLCSWV8,A1UCB0D27PY623,3XUHV3NRVL1DU5F0P2MKQRJPI9VH5P,RVUX5,RVUX5,3XUHV3NRVL1DU5F0P2MKQRJPI9VH5P,3XUHV3NRVL1DU5F0P2MKQRJPI9VH5P,267715,267715,,,,,,,,,,
,,,,5,5.5505,0,13,13,563,1,a man in a blue shirt plays volleyball with a group,a man in a green shirt plays volleyball with a group,wolfe1,image-126,2,35,A1UCB0D27PY623,2021-01-07_10h12.16.120,MetaAwareness,2020.1.2,Win32,60,336OE47KI3N935RA0QLV79SNLCSWV8,A1UCB0D27PY623,3XUHV3NRVL1DU5F0P2MKQRJPI9VH5P,RVUX5,RVUX5,3XUHV3NRVL1DU5F0P2MKQRJPI9VH5P,3XUHV3NRVL1DU5F0P2MKQRJPI9VH5P,267715,267715,,,,,,,,,,
,,,,5,6.340315,0,14,14,353,1,children and adults walking in a field with a red cooler,children and adults walking in a field with a pirple cooler,wolfe1,image-088,5,35,A1UCB0D27PY623,2021-01-07_10h12.16.120,MetaAwareness,2020.1.2,Win32,60,336OE47KI3N935RA0QLV79SNLCSWV8,A1UCB0D27PY623,3XUHV3NRVL1DU5F0P2MKQRJPI9VH5P,RVUX5,RVUX5,3XUHV3NRVL1DU5F0P2MKQRJPI9VH5P,3XUHV3NRVL1DU5F0P2MKQRJPI9VH5P,267715,267715,,,,,,,,,,
,,,,5,7.80919,0,15,15,516,1,open air market with several white tents and one blue tent covering the products. ,open air market with several white tents and one rent tent covering the products,wolfe1,image-117,5,35,A1UCB0D27PY623,2021-01-07_10h12.16.120,MetaAwareness,2020.1.2,Win32,60,336OE47KI3N935RA0QLV79SNLCSWV8,A1UCB0D27PY623,3XUHV3NRVL1DU5F0P2MKQRJPI9VH5P,RVUX5,RVUX5,3XUHV3NRVL1DU5F0P2MKQRJPI9VH5P,3XUHV3NRVL1DU5F0P2MKQRJPI9VH5P,267715,267715,,,,,,,,,,
,,,,2,6.972475,0,16,16,131,1,people jog past a fountain with three american flags next to it,people jog by a fountain surrounded by green grass,wolfe1,image-022,4,35,A1UCB0D27PY623,2021-01-07_10h12.16.120,MetaAwareness,2020.1.2,Win32,60,336OE47KI3N935RA0QLV79SNLCSWV8,A1UCB0D27PY623,3XUHV3NRVL1DU5F0P2MKQRJPI9VH5P,RVUX5,RVUX5,3XUHV3NRVL1DU5F0P2MKQRJPI9VH5P,3XUHV3NRVL1DU5F0P2MKQRJPI9VH5P,267715,267715,,,,,,,,,,
,,,,5,3.859215,0,17,17,515,1,people shop at an outdoor market under white and blue canopies,people shop at an outdoor market under white and red canopies,wolfe1,image-117,4,35,A1UCB0D27PY623,2021-01-07_10h12.16.120,MetaAwareness,2020.1.2,Win32,60,336OE47KI3N935RA0QLV79SNLCSWV8,A1UCB0D27PY623,3XUHV3NRVL1DU5F0P2MKQRJPI9VH5P,RVUX5,RVUX5,3XUHV3NRVL1DU5F0P2MKQRJPI9VH5P,3XUHV3NRVL1DU5F0P2MKQRJPI9VH5P,267715,267715,,,,,,,,,,
,,,,5,7.15541,0,18,18,529,1,this is an outside gazebo that has several green plants and a sculputre in the middle. there is a green picture on the right front side .,this is an outside gazebo that has several green plants and a sculputre in the middle. there is a blue picture on the right front side.,wolfe1,image-120,1,35,A1UCB0D27PY623,2021-01-07_10h12.16.120,MetaAwareness,2020.1.2,Win32,60,336OE47KI3N935RA0QLV79SNLCSWV8,A1UCB0D27PY623,3XUHV3NRVL1DU5F0P2MKQRJPI9VH5P,RVUX5,RVUX5,3XUHV3NRVL1DU5F0P2MKQRJPI9VH5P,3XUHV3NRVL1DU5F0P2MKQRJPI9VH5P,267715,267715,,,,,,,,,,
,,,,5,2.55558,0,19,19,527,1,people gathering around a pond that has a yellow flag near the water.,people gathering around a pond that has a red flag near the water,wolfe1,image-119,4,35,A1UCB0D27PY623,2021-01-07_10h12.16.120,MetaAwareness,2020.1.2,Win32,60,336OE47KI3N935RA0QLV79SNLCSWV8,A1UCB0D27PY623,3XUHV3NRVL1DU5F0P2MKQRJPI9VH5P,RVUX5,RVUX5,3XUHV3NRVL1DU5F0P2MKQRJPI9VH5P,3XUHV3NRVL1DU5F0P2MKQRJPI9VH5P,267715,267715,,,,,,,,,,
,,,,6,7.15512,0,20,20,557,1,"two people are talking next to a boat dock, with both posts at the dock slightly green with algae.","two people are talking next to a boat dock, with one post at the dock looking cleaner than the other one slightly green with algae.",wolfe1,image-124,7,35,A1UCB0D27PY623,2021-01-07_10h12.16.120,MetaAwareness,2020.1.2,Win32,60,336OE47KI3N935RA0QLV79SNLCSWV8,A1UCB0D27PY623,3XUHV3NRVL1DU5F0P2MKQRJPI9VH5P,RVUX5,RVUX5,3XUHV3NRVL1DU5F0P2MKQRJPI9VH5P,3XUHV3NRVL1DU5F0P2MKQRJPI9VH5P,267715,267715,,,,,,,,,,
,,,,6,11.26724,0,21,21,210,1,quiet street with a few traditional style buildings with a sign on the yellow building,quiet street with a few traditional style buildings,wolfe1,image-038,2,35,A1UCB0D27PY623,2021-01-07_10h12.16.120,MetaAwareness,2020.1.2,Win32,60,336OE47KI3N935RA0QLV79SNLCSWV8,A1UCB0D27PY623,3XUHV3NRVL1DU5F0P2MKQRJPI9VH5P,RVUX5,RVUX5,3XUHV3NRVL1DU5F0P2MKQRJPI9VH5P,3XUHV3NRVL1DU5F0P2MKQRJPI9VH5P,267715,267715,,,,,,,,,,
,,,,2,3.6943,0,22,22,58,1,two cactus plants are on the table,one cactus plant is on the table.,wolfe1,image-011,1,35,A1UCB0D27PY623,2021-01-07_10h12.16.120,MetaAwareness,2020.1.2,Win32,60,336OE47KI3N935RA0QLV79SNLCSWV8,A1UCB0D27PY623,3XUHV3NRVL1DU5F0P2MKQRJPI9VH5P,RVUX5,RVUX5,3XUHV3NRVL1DU5F0P2MKQRJPI9VH5P,3XUHV3NRVL1DU5F0P2MKQRJPI9VH5P,267715,267715,,,,,,,,,,
,,,,2,4.46657,0,23,23,93,1,there is a crowded city park with a playground and many children.  there is a dark object on the ground.,there is a crowded city park with a playground and many children.  the sidewalk is clear of objects.,wolfe1,image-016,4,35,A1UCB0D27PY623,2021-01-07_10h12.16.120,MetaAwareness,2020.1.2,Win32,60,336OE47KI3N935RA0QLV79SNLCSWV8,A1UCB0D27PY623,3XUHV3NRVL1DU5F0P2MKQRJPI9VH5P,RVUX5,RVUX5,3XUHV3NRVL1DU5F0P2MKQRJPI9VH5P,3XUHV3NRVL1DU5F0P2MKQRJPI9VH5P,267715,267715,,,,,,,,,,
,,,,5,7.98517,0,24,24,81,1,people are sitting in a field for an outdoor concert with one empty blanket that no one is using,people are sitting in a field for an outdoor concert with a large patch of empty grass to the left side of the stage,wolfe1,image-014,5,35,A1UCB0D27PY623,2021-01-07_10h12.16.120,MetaAwareness,2020.1.2,Win32,60,336OE47KI3N935RA0QLV79SNLCSWV8,A1UCB0D27PY623,3XUHV3NRVL1DU5F0P2MKQRJPI9VH5P,RVUX5,RVUX5,3XUHV3NRVL1DU5F0P2MKQRJPI9VH5P,3XUHV3NRVL1DU5F0P2MKQRJPI9VH5P,267715,267715,,,,,,,,,,
,,,,5,4.12892,0,25,25,349,1,a woman carries a red cooler jug with a group of many children and adults while outside.,a woman carried a pink cooler jug with a group of many children and adults while outside.,wolfe1,image-088,1,35,A1UCB0D27PY623,2021-01-07_10h12.16.120,MetaAwareness,2020.1.2,Win32,60,336OE47KI3N935RA0QLV79SNLCSWV8,A1UCB0D27PY623,3XUHV3NRVL1DU5F0P2MKQRJPI9VH5P,RVUX5,RVUX5,3XUHV3NRVL1DU5F0P2MKQRJPI9VH5P,3XUHV3NRVL1DU5F0P2MKQRJPI9VH5P,267715,267715,,,,,,,,,,
,,,,5,4.035945,0,26,26,567,1,there is a car that is under a large amount of snow. a person is using a blue snowshovel to dig the car out.,there is a car that is under a large amount of snow. a person is using a green snowshovel to dig the car out. ,wolfe1,image-127,1,35,A1UCB0D27PY623,2021-01-07_10h12.16.120,MetaAwareness,2020.1.2,Win32,60,336OE47KI3N935RA0QLV79SNLCSWV8,A1UCB0D27PY623,3XUHV3NRVL1DU5F0P2MKQRJPI9VH5P,RVUX5,RVUX5,3XUHV3NRVL1DU5F0P2MKQRJPI9VH5P,3XUHV3NRVL1DU5F0P2MKQRJPI9VH5P,267715,267715,,,,,,,,,,
,,,,6,5.27686,0,27,27,32,1,a kitchen and living area with a microwave,a kitchen and living area,wolfe1,image-006,2,35,A1UCB0D27PY623,2021-01-07_10h12.16.120,MetaAwareness,2020.1.2,Win32,60,336OE47KI3N935RA0QLV79SNLCSWV8,A1UCB0D27PY623,3XUHV3NRVL1DU5F0P2MKQRJPI9VH5P,RVUX5,RVUX5,3XUHV3NRVL1DU5F0P2MKQRJPI9VH5P,3XUHV3NRVL1DU5F0P2MKQRJPI9VH5P,267715,267715,,,,,,,,,,
,,,,6,7.989575,0,28,28,19,1,a man sitting on the edge of the dock with a wooden addition chained to it.,"a man sitting on the edge of the dock with a wooden addition chained to it, but by only one chain.",wolfe1,image-004,2,35,A1UCB0D27PY623,2021-01-07_10h12.16.120,MetaAwareness,2020.1.2,Win32,60,336OE47KI3N935RA0QLV79SNLCSWV8,A1UCB0D27PY623,3XUHV3NRVL1DU5F0P2MKQRJPI9VH5P,RVUX5,RVUX5,3XUHV3NRVL1DU5F0P2MKQRJPI9VH5P,3XUHV3NRVL1DU5F0P2MKQRJPI9VH5P,267715,267715,,,,,,,,,,
,,,,5,3.2752,0,29,29,497,1,3 men are standing outside with a blue fence behind them,3 men are standing outside with a yellow fence behind them ,wolfe1,image-114,1,35,A1UCB0D27PY623,2021-01-07_10h12.16.120,MetaAwareness,2020.1.2,Win32,60,336OE47KI3N935RA0QLV79SNLCSWV8,A1UCB0D27PY623,3XUHV3NRVL1DU5F0P2MKQRJPI9VH5P,RVUX5,RVUX5,3XUHV3NRVL1DU5F0P2MKQRJPI9VH5P,3XUHV3NRVL1DU5F0P2MKQRJPI9VH5P,267715,267715,,,,,,,,,,
,,,,,,,,,,,,,,,,35,A1UCB0D27PY623,2021-01-07_10h12.16.120,MetaAwareness,2020.1.2,Win32,60,336OE47KI3N935RA0QLV79SNLCSWV8,A1UCB0D27PY623,3XUHV3NRVL1DU5F0P2MKQRJPI9VH5P,RVUX5,RVUX5,3XUHV3NRVL1DU5F0P2MKQRJPI9VH5P,3XUHV3NRVL1DU5F0P2MKQRJPI9VH5P,267715,267715,6,11.017205,someone laying underneath a blue beach umbrella on a crowded beach,someone laying underneath a blue beach umbrella on a crowded beach,same,1,7.478575,members of a marching band crossing a track that all have feather plumes at the front of their hats,a cluttered and rustic looking cafe with 10 hanging lights,different