consent_response.keys,consent_response.rt,key_resp_2.keys,key_resp_2.rt,user_resp.keys,user_resp.rt,trials.thisRepN,trials.thisTrialN,trials.thisN,trials.thisIndex,trials.ran,image_1_text,image_2_text,database,image,number,age,worker_ID,date,expName,psychopyVersion,OS,frameRate,hitId,workerId,assignmentId,a,tp_a,b,tp_b,c,tp_c,catch_same_resp.keys,catch_same_resp.rt,image_1_text_catch_same,image_2_text_catch_same,image_catch_same,catch_different_resp.keys,catch_different_resp.rt,image_1_text_catch_different,image_2_text_catch_different,image_catch_different
space,8.819705,space,20.677765,5,18.1028,0,0,0,6,1,this is a yard with a lot of clothing laying around and hanging on the trees. there is a blue piece of clothing on the right tree.,this is a yard with a lot of clothing laying around and hanging on the trees. there is nothing hanging on the far right side of the tree.,wolfe1,image-002,1,24,A1UZXOMO6BS6I2,2021-01-07_10h00.59.190,MetaAwareness,2020.1.2,Win32,60,3X2YVV51PV7THTBCTC160LL7W8K1WN,A1UZXOMO6BS6I2,3M1CVSFP618ND4QK3O0V7GRC1ALAQD,PV1M5,PV1M5,3M1CVSFP618ND4QK3O0V7GRC1ALAQD,3M1CVSFP618ND4QK3O0V7GRC1ALAQD,267715,267715,,,,,,,,,,
,,,,5,8.34063,0,1,1,360,1,"a busy street with people walking, including a woman with a red shirt","a busy street with people walking, including a woman with a green shirt",wolfe1,image-090,1,24,A1UZXOMO6BS6I2,2021-01-07_10h00.59.190,MetaAwareness,2020.1.2,Win32,60,3X2YVV51PV7THTBCTC160LL7W8K1WN,A1UZXOMO6BS6I2,3M1CVSFP618ND4QK3O0V7GRC1ALAQD,PV1M5,PV1M5,3M1CVSFP618ND4QK3O0V7GRC1ALAQD,3M1CVSFP618ND4QK3O0V7GRC1ALAQD,267715,267715,,,,,,,,,,
,,,,5,8.084325,0,2,2,358,1,"five boys sitting in a room and one boy's shirt has blue, tan, and white stripes","five boys sitting in a room and one boy's shirt has purple, tan, and white stripes",wolfe1,image-089,5,24,A1UZXOMO6BS6I2,2021-01-07_10h00.59.190,MetaAwareness,2020.1.2,Win32,60,3X2YVV51PV7THTBCTC160LL7W8K1WN,A1UZXOMO6BS6I2,3M1CVSFP618ND4QK3O0V7GRC1ALAQD,PV1M5,PV1M5,3M1CVSFP618ND4QK3O0V7GRC1ALAQD,3M1CVSFP618ND4QK3O0V7GRC1ALAQD,267715,267715,,,,,,,,,,
,,,,4,8.374355,0,3,3,108,1,crowds are being in the beach and something placed in the yellow box,crowds are being in the beach and no one placed in the yellow box,wolfe1,image-018,5,24,A1UZXOMO6BS6I2,2021-01-07_10h00.59.190,MetaAwareness,2020.1.2,Win32,60,3X2YVV51PV7THTBCTC160LL7W8K1WN,A1UZXOMO6BS6I2,3M1CVSFP618ND4QK3O0V7GRC1ALAQD,PV1M5,PV1M5,3M1CVSFP618ND4QK3O0V7GRC1ALAQD,3M1CVSFP618ND4QK3O0V7GRC1ALAQD,267715,267715,,,,,,,,,,
,,,,5,7.309665,0,4,4,382,1,black backpack with blue tape,black backpack with green tape,wolfe1,image-094,3,24,A1UZXOMO6BS6I2,2021-01-07_10h00.59.190,MetaAwareness,2020.1.2,Win32,60,3X2YVV51PV7THTBCTC160LL7W8K1WN,A1UZXOMO6BS6I2,3M1CVSFP618ND4QK3O0V7GRC1ALAQD,PV1M5,PV1M5,3M1CVSFP618ND4QK3O0V7GRC1ALAQD,3M1CVSFP618ND4QK3O0V7GRC1ALAQD,267715,267715,,,,,,,,,,
,,,,5,10.782005,0,5,5,546,1,a line of brightly colored buildings with cars in front of them.  the blue building has a blue sign in the window,a line of brightly colored buildings with cars in front of them.  the blue building has a red sign in the window,wolfe1,image-123,5,24,A1UZXOMO6BS6I2,2021-01-07_10h00.59.190,MetaAwareness,2020.1.2,Win32,60,3X2YVV51PV7THTBCTC160LL7W8K1WN,A1UZXOMO6BS6I2,3M1CVSFP618ND4QK3O0V7GRC1ALAQD,PV1M5,PV1M5,3M1CVSFP618ND4QK3O0V7GRC1ALAQD,3M1CVSFP618ND4QK3O0V7GRC1ALAQD,267715,267715,,,,,,,,,,
,,,,5,6.25414,0,6,6,572,1,rock climbing with a boy with blue on,rock climbing with a boy with green on,wolfe1,image-128,1,24,A1UZXOMO6BS6I2,2021-01-07_10h00.59.190,MetaAwareness,2020.1.2,Win32,60,3X2YVV51PV7THTBCTC160LL7W8K1WN,A1UZXOMO6BS6I2,3M1CVSFP618ND4QK3O0V7GRC1ALAQD,PV1M5,PV1M5,3M1CVSFP618ND4QK3O0V7GRC1ALAQD,3M1CVSFP618ND4QK3O0V7GRC1ALAQD,267715,267715,,,,,,,,,,
,,,,4,11.234005,0,7,7,451,1,a yellow pillow sits on a platform with many other colored and pattered pillows.,a green pillow sits on a platform with many other colored and pattered pillows.,wolfe1,image-106,2,24,A1UZXOMO6BS6I2,2021-01-07_10h00.59.190,MetaAwareness,2020.1.2,Win32,60,3X2YVV51PV7THTBCTC160LL7W8K1WN,A1UZXOMO6BS6I2,3M1CVSFP618ND4QK3O0V7GRC1ALAQD,PV1M5,PV1M5,3M1CVSFP618ND4QK3O0V7GRC1ALAQD,3M1CVSFP618ND4QK3O0V7GRC1ALAQD,267715,267715,,,,,,,,,,
,,,,5,14.13115,0,8,8,30,1,recent graduates celebrating in front of a park bench.,recent graduates celebrating in front of a park.,wolfe1,image-005,9,24,A1UZXOMO6BS6I2,2021-01-07_10h00.59.190,MetaAwareness,2020.1.2,Win32,60,3X2YVV51PV7THTBCTC160LL7W8K1WN,A1UZXOMO6BS6I2,3M1CVSFP618ND4QK3O0V7GRC1ALAQD,PV1M5,PV1M5,3M1CVSFP618ND4QK3O0V7GRC1ALAQD,3M1CVSFP618ND4QK3O0V7GRC1ALAQD,267715,267715,,,,,,,,,,
,,,,4,11.168215,0,9,9,540,1,a crowded outdoor concert with someone wearing a light colored backpack and someone standing in front of them with a pink umbrella. ,a crowded outdoor concdert with somone wearing a light colored backpack and someone standing in front of them with a blue umbrella. ,wolfe1,image-122,2,24,A1UZXOMO6BS6I2,2021-01-07_10h00.59.190,MetaAwareness,2020.1.2,Win32,60,3X2YVV51PV7THTBCTC160LL7W8K1WN,A1UZXOMO6BS6I2,3M1CVSFP618ND4QK3O0V7GRC1ALAQD,PV1M5,PV1M5,3M1CVSFP618ND4QK3O0V7GRC1ALAQD,3M1CVSFP618ND4QK3O0V7GRC1ALAQD,267715,267715,,,,,,,,,,
,,,,4,8.648405,0,10,10,39,1,a water way with a garbage can and an overhang light figure.,a water way with a garbage can and no light figure.,wolfe1,image-007,4,24,A1UZXOMO6BS6I2,2021-01-07_10h00.59.190,MetaAwareness,2020.1.2,Win32,60,3X2YVV51PV7THTBCTC160LL7W8K1WN,A1UZXOMO6BS6I2,3M1CVSFP618ND4QK3O0V7GRC1ALAQD,PV1M5,PV1M5,3M1CVSFP618ND4QK3O0V7GRC1ALAQD,3M1CVSFP618ND4QK3O0V7GRC1ALAQD,267715,267715,,,,,,,,,,
,,,,3,10.033865,0,11,11,257,1,a man with a shovel talking to a group of people. in he lower corner there is a whte bucket.,a man with a shovel talking to a group of people.,wolfe1,image-046,3,24,A1UZXOMO6BS6I2,2021-01-07_10h00.59.190,MetaAwareness,2020.1.2,Win32,60,3X2YVV51PV7THTBCTC160LL7W8K1WN,A1UZXOMO6BS6I2,3M1CVSFP618ND4QK3O0V7GRC1ALAQD,PV1M5,PV1M5,3M1CVSFP618ND4QK3O0V7GRC1ALAQD,3M1CVSFP618ND4QK3O0V7GRC1ALAQD,267715,267715,,,,,,,,,,
,,,,5,7.76515,0,12,12,395,1,a man is hiking on a dirt trail with red flowers growing beside it.,a man is hiking on a dirt trail with yellow flowers growing beside it.,wolfe1,image-095,7,24,A1UZXOMO6BS6I2,2021-01-07_10h00.59.190,MetaAwareness,2020.1.2,Win32,60,3X2YVV51PV7THTBCTC160LL7W8K1WN,A1UZXOMO6BS6I2,3M1CVSFP618ND4QK3O0V7GRC1ALAQD,PV1M5,PV1M5,3M1CVSFP618ND4QK3O0V7GRC1ALAQD,3M1CVSFP618ND4QK3O0V7GRC1ALAQD,267715,267715,,,,,,,,,,
,,,,4,6.287655,0,13,13,585,1,the person in foreground is wearing blue jeans,the person in the forground is wearing grey jeans,wolfe1,image-129,9,24,A1UZXOMO6BS6I2,2021-01-07_10h00.59.190,MetaAwareness,2020.1.2,Win32,60,3X2YVV51PV7THTBCTC160LL7W8K1WN,A1UZXOMO6BS6I2,3M1CVSFP618ND4QK3O0V7GRC1ALAQD,PV1M5,PV1M5,3M1CVSFP618ND4QK3O0V7GRC1ALAQD,3M1CVSFP618ND4QK3O0V7GRC1ALAQD,267715,267715,,,,,,,,,,
,,,,4,8.33753,0,14,14,453,1,a yellow pillow sits next to many other multi-colored pillows on a tiered area of a room,a light green pillow sits next to many other colored pillows on a tiered area of a room,wolfe1,image-106,4,24,A1UZXOMO6BS6I2,2021-01-07_10h00.59.190,MetaAwareness,2020.1.2,Win32,60,3X2YVV51PV7THTBCTC160LL7W8K1WN,A1UZXOMO6BS6I2,3M1CVSFP618ND4QK3O0V7GRC1ALAQD,PV1M5,PV1M5,3M1CVSFP618ND4QK3O0V7GRC1ALAQD,3M1CVSFP618ND4QK3O0V7GRC1ALAQD,267715,267715,,,,,,,,,,
,,,,3,10.80048,0,15,15,125,1,"three women are aiming bows, preparing to fire. there is an extra quiver of arrors at the far end of the row.","three women are aiming bows, readying to fire their arrows.",wolfe1,image-021,3,24,A1UZXOMO6BS6I2,2021-01-07_10h00.59.190,MetaAwareness,2020.1.2,Win32,60,3X2YVV51PV7THTBCTC160LL7W8K1WN,A1UZXOMO6BS6I2,3M1CVSFP618ND4QK3O0V7GRC1ALAQD,PV1M5,PV1M5,3M1CVSFP618ND4QK3O0V7GRC1ALAQD,3M1CVSFP618ND4QK3O0V7GRC1ALAQD,267715,267715,,,,,,,,,,
,,,,4,7.50729,0,16,16,434,1,people walk across a rainy street holding umbrellas. one person is wearing green shoes.,people walk across a rainy street holding umbrellas. one person is wearing red shoes.,wolfe1,image-103,4,24,A1UZXOMO6BS6I2,2021-01-07_10h00.59.190,MetaAwareness,2020.1.2,Win32,60,3X2YVV51PV7THTBCTC160LL7W8K1WN,A1UZXOMO6BS6I2,3M1CVSFP618ND4QK3O0V7GRC1ALAQD,PV1M5,PV1M5,3M1CVSFP618ND4QK3O0V7GRC1ALAQD,3M1CVSFP618ND4QK3O0V7GRC1ALAQD,267715,267715,,,,,,,,,,
,,,,2,11.280835,0,17,17,485,1,"between the planes, there is a truck that is yellow",between the trains there is a truck that is red,wolfe1,image-111,5,24,A1UZXOMO6BS6I2,2021-01-07_10h00.59.190,MetaAwareness,2020.1.2,Win32,60,3X2YVV51PV7THTBCTC160LL7W8K1WN,A1UZXOMO6BS6I2,3M1CVSFP618ND4QK3O0V7GRC1ALAQD,PV1M5,PV1M5,3M1CVSFP618ND4QK3O0V7GRC1ALAQD,3M1CVSFP618ND4QK3O0V7GRC1ALAQD,267715,267715,,,,,,,,,,
,,,,4,12.798425,0,18,18,587,1,a group of people in a cold snowy place with a man in blue getting into something that is orange.,a group of people in a cold snowy place with a man in blue getting into something that is blue.,wolfe1,image-130,1,24,A1UZXOMO6BS6I2,2021-01-07_10h00.59.190,MetaAwareness,2020.1.2,Win32,60,3X2YVV51PV7THTBCTC160LL7W8K1WN,A1UZXOMO6BS6I2,3M1CVSFP618ND4QK3O0V7GRC1ALAQD,PV1M5,PV1M5,3M1CVSFP618ND4QK3O0V7GRC1ALAQD,3M1CVSFP618ND4QK3O0V7GRC1ALAQD,267715,267715,,,,,,,,,,
,,,,5,6.80074,0,19,19,450,1,a set of stairs with a yellow cushion on the top stair.,a set of stairs with a white cushion on the top stair.,wolfe1,image-106,1,24,A1UZXOMO6BS6I2,2021-01-07_10h00.59.190,MetaAwareness,2020.1.2,Win32,60,3X2YVV51PV7THTBCTC160LL7W8K1WN,A1UZXOMO6BS6I2,3M1CVSFP618ND4QK3O0V7GRC1ALAQD,PV1M5,PV1M5,3M1CVSFP618ND4QK3O0V7GRC1ALAQD,3M1CVSFP618ND4QK3O0V7GRC1ALAQD,267715,267715,,,,,,,,,,
,,,,4,11.33294,0,20,20,107,1,"people camping next to canoes on the beach, there are beach chairs set up",people camping on the beach with their canoes right next to the water,wolfe1,image-018,4,24,A1UZXOMO6BS6I2,2021-01-07_10h00.59.190,MetaAwareness,2020.1.2,Win32,60,3X2YVV51PV7THTBCTC160LL7W8K1WN,A1UZXOMO6BS6I2,3M1CVSFP618ND4QK3O0V7GRC1ALAQD,PV1M5,PV1M5,3M1CVSFP618ND4QK3O0V7GRC1ALAQD,3M1CVSFP618ND4QK3O0V7GRC1ALAQD,267715,267715,,,,,,,,,,
,,,,3,16.49023,0,21,21,236,1,"a crowd of people walk in front of a fancy temple or church, the top decorated with statues and spires.","a crowd of people walk in front of a fancy temple or church, the top decorated with statues and spires, though one is missing",wolfe1,image-042,4,24,A1UZXOMO6BS6I2,2021-01-07_10h00.59.190,MetaAwareness,2020.1.2,Win32,60,3X2YVV51PV7THTBCTC160LL7W8K1WN,A1UZXOMO6BS6I2,3M1CVSFP618ND4QK3O0V7GRC1ALAQD,PV1M5,PV1M5,3M1CVSFP618ND4QK3O0V7GRC1ALAQD,3M1CVSFP618ND4QK3O0V7GRC1ALAQD,267715,267715,,,,,,,,,,
,,,,5,4.69845,0,22,22,437,1,a man wearing a blue shirt has a discussion with his co-workers,a man wearing a green shirt has a discussion with his co-workers,wolfe1,image-104,2,24,A1UZXOMO6BS6I2,2021-01-07_10h00.59.190,MetaAwareness,2020.1.2,Win32,60,3X2YVV51PV7THTBCTC160LL7W8K1WN,A1UZXOMO6BS6I2,3M1CVSFP618ND4QK3O0V7GRC1ALAQD,PV1M5,PV1M5,3M1CVSFP618ND4QK3O0V7GRC1ALAQD,3M1CVSFP618ND4QK3O0V7GRC1ALAQD,267715,267715,,,,,,,,,,
,,,,5,13.97345,0,23,23,604,1,"ther is a living room with a fireplace. there are white colored sofa around the fireplace. the sofa to the right has red, black, and dark red pillows on it.","there is a living room with a fireplace. there are white colored sofas around the fireplace. the sofa to teh right has red, black, and green pillows on it.",wolfe1,image-132,6,24,A1UZXOMO6BS6I2,2021-01-07_10h00.59.190,MetaAwareness,2020.1.2,Win32,60,3X2YVV51PV7THTBCTC160LL7W8K1WN,A1UZXOMO6BS6I2,3M1CVSFP618ND4QK3O0V7GRC1ALAQD,PV1M5,PV1M5,3M1CVSFP618ND4QK3O0V7GRC1ALAQD,3M1CVSFP618ND4QK3O0V7GRC1ALAQD,267715,267715,,,,,,,,,,
,,,,5,11.597285,0,24,24,245,1,9 small barns are outside beneath a vibrant pink sky against a mountain backdrop.,8 small barns are outside beneath a vibrant pink sky against a mountain backdrop.,wolfe1,image-044,1,24,A1UZXOMO6BS6I2,2021-01-07_10h00.59.190,MetaAwareness,2020.1.2,Win32,60,3X2YVV51PV7THTBCTC160LL7W8K1WN,A1UZXOMO6BS6I2,3M1CVSFP618ND4QK3O0V7GRC1ALAQD,PV1M5,PV1M5,3M1CVSFP618ND4QK3O0V7GRC1ALAQD,3M1CVSFP618ND4QK3O0V7GRC1ALAQD,267715,267715,,,,,,,,,,
,,,,4,7.889175,0,25,25,206,1,"an open dining area with an area for children, there is a white egg casing","an open dining area with an area for children, there are yellow and blue egg casings",wolfe1,image-037,3,24,A1UZXOMO6BS6I2,2021-01-07_10h00.59.190,MetaAwareness,2020.1.2,Win32,60,3X2YVV51PV7THTBCTC160LL7W8K1WN,A1UZXOMO6BS6I2,3M1CVSFP618ND4QK3O0V7GRC1ALAQD,PV1M5,PV1M5,3M1CVSFP618ND4QK3O0V7GRC1ALAQD,3M1CVSFP618ND4QK3O0V7GRC1ALAQD,267715,267715,,,,,,,,,,
,,,,4,5.120145,0,26,26,338,1,people at the beach and man in red hat,people at the beach and man in green hat,wolfe1,image-085,3,24,A1UZXOMO6BS6I2,2021-01-07_10h00.59.190,MetaAwareness,2020.1.2,Win32,60,3X2YVV51PV7THTBCTC160LL7W8K1WN,A1UZXOMO6BS6I2,3M1CVSFP618ND4QK3O0V7GRC1ALAQD,PV1M5,PV1M5,3M1CVSFP618ND4QK3O0V7GRC1ALAQD,3M1CVSFP618ND4QK3O0V7GRC1ALAQD,267715,267715,,,,,,,,,,
,,,,4,7.18162,0,27,27,449,1,a man wearing a green shirt looking to the side while waiting on a concert.,a man wearing a pink shirt looking to the side while waiting on a concert.,wolfe1,image-105,5,24,A1UZXOMO6BS6I2,2021-01-07_10h00.59.190,MetaAwareness,2020.1.2,Win32,60,3X2YVV51PV7THTBCTC160LL7W8K1WN,A1UZXOMO6BS6I2,3M1CVSFP618ND4QK3O0V7GRC1ALAQD,PV1M5,PV1M5,3M1CVSFP618ND4QK3O0V7GRC1ALAQD,3M1CVSFP618ND4QK3O0V7GRC1ALAQD,267715,267715,,,,,,,,,,
,,,,3,9.554415,0,28,28,92,1,crowds are being in the park one boy leg placed in the yellow box ,crowds are being in the park no ones leg placed in the yellow box ,wolfe1,image-016,3,24,A1UZXOMO6BS6I2,2021-01-07_10h00.59.190,MetaAwareness,2020.1.2,Win32,60,3X2YVV51PV7THTBCTC160LL7W8K1WN,A1UZXOMO6BS6I2,3M1CVSFP618ND4QK3O0V7GRC1ALAQD,PV1M5,PV1M5,3M1CVSFP618ND4QK3O0V7GRC1ALAQD,3M1CVSFP618ND4QK3O0V7GRC1ALAQD,267715,267715,,,,,,,,,,
,,,,4,7.882655,0,29,29,543,1,a storefront with a blue placard and cars out front,a storefront with a red placard and vars out front,wolfe1,image-123,2,24,A1UZXOMO6BS6I2,2021-01-07_10h00.59.190,MetaAwareness,2020.1.2,Win32,60,3X2YVV51PV7THTBCTC160LL7W8K1WN,A1UZXOMO6BS6I2,3M1CVSFP618ND4QK3O0V7GRC1ALAQD,PV1M5,PV1M5,3M1CVSFP618ND4QK3O0V7GRC1ALAQD,3M1CVSFP618ND4QK3O0V7GRC1ALAQD,267715,267715,,,,,,,,,,
,,,,,,,,,,,,,,,,24,A1UZXOMO6BS6I2,2021-01-07_10h00.59.190,MetaAwareness,2020.1.2,Win32,60,3X2YVV51PV7THTBCTC160LL7W8K1WN,A1UZXOMO6BS6I2,3M1CVSFP618ND4QK3O0V7GRC1ALAQD,PV1M5,PV1M5,3M1CVSFP618ND4QK3O0V7GRC1ALAQD,3M1CVSFP618ND4QK3O0V7GRC1ALAQD,267715,267715,6,11.784015,someone laying underneath a blue beach umbrella on a crowded beach,someone laying underneath a blue beach umbrella on a crowded beach,same,1,11.67483,members of a marching band crossing a track that all have feather plumes at the front of their hats,a cluttered and rustic looking cafe with 10 hanging lights,different