consent_response.keys,consent_response.rt,key_resp_2.keys,key_resp_2.rt,user_resp.keys,user_resp.rt,trials.thisRepN,trials.thisTrialN,trials.thisN,trials.thisIndex,trials.ran,image_1_text,image_2_text,database,image,number,age,worker_ID,date,expName,psychopyVersion,OS,frameRate,hitId,workerId,assignmentId,a,tp_a,b,tp_b,c,tp_c,catch_same_resp.keys,catch_same_resp.rt,image_1_text_catch_same,image_2_text_catch_same,image_catch_same,catch_different_resp.keys,catch_different_resp.rt,image_1_text_catch_different,image_2_text_catch_different,image_catch_different
space,4.253415,space,40.32606,4,13.7783,0,0,0,252,1,farmland at sunset with 7 hay stacks.,farmland at sunset with 6 hay stacks.,wolfe1,image-045,4,32,A1VRXZADIKWB4S,2021-01-07_18h15.40.773,MetaAwareness,2020.1.2,Win32,60,336OE47KI3N935RA0QLV79SNLCSWV8,A1VRXZADIKWB4S,37TRT2X24RUBARRZECGI5QZW5XLBJP,2TT75,2TT75,37TRT2X24RUBARRZECGI5QZW5XLBJP,37TRT2X24RUBARRZECGI5QZW5XLBJP,267715,267715,,,,,,,,,,
,,,,4,1.4842,0,1,1,451,1,a yellow pillow sits on a platform with many other colored and pattered pillows.,a green pillow sits on a platform with many other colored and pattered pillows.,wolfe1,image-106,2,32,A1VRXZADIKWB4S,2021-01-07_18h15.40.773,MetaAwareness,2020.1.2,Win32,60,336OE47KI3N935RA0QLV79SNLCSWV8,A1VRXZADIKWB4S,37TRT2X24RUBARRZECGI5QZW5XLBJP,2TT75,2TT75,37TRT2X24RUBARRZECGI5QZW5XLBJP,37TRT2X24RUBARRZECGI5QZW5XLBJP,267715,267715,,,,,,,,,,
,,,,2,0.38124,0,2,2,419,1,"there is a pop up gazebo in the middle of a camping area. in the background, there are large trees, a camper, and red and blue towels hanging on a line attached to the trees.","there is a pop up gazebo in the middle of a camping area. in the background, there are large trees, a camper, and red towels that are hanging from a line attached to the trees.",wolfe1,image-100,4,32,A1VRXZADIKWB4S,2021-01-07_18h15.40.773,MetaAwareness,2020.1.2,Win32,60,336OE47KI3N935RA0QLV79SNLCSWV8,A1VRXZADIKWB4S,37TRT2X24RUBARRZECGI5QZW5XLBJP,2TT75,2TT75,37TRT2X24RUBARRZECGI5QZW5XLBJP,37TRT2X24RUBARRZECGI5QZW5XLBJP,267715,267715,,,,,,,,,,
,,,,1,10.55263,0,3,3,472,1,sseveral people outdoors with backpacks,several people outdoors and a bman with a blue backpack,wolfe1,image-109,4,32,A1VRXZADIKWB4S,2021-01-07_18h15.40.773,MetaAwareness,2020.1.2,Win32,60,336OE47KI3N935RA0QLV79SNLCSWV8,A1VRXZADIKWB4S,37TRT2X24RUBARRZECGI5QZW5XLBJP,2TT75,2TT75,37TRT2X24RUBARRZECGI5QZW5XLBJP,37TRT2X24RUBARRZECGI5QZW5XLBJP,267715,267715,,,,,,,,,,
,,,,2,5.317255,0,4,4,338,1,people at the beach and man in red hat,people at the beach and man in green hat,wolfe1,image-085,3,32,A1VRXZADIKWB4S,2021-01-07_18h15.40.773,MetaAwareness,2020.1.2,Win32,60,336OE47KI3N935RA0QLV79SNLCSWV8,A1VRXZADIKWB4S,37TRT2X24RUBARRZECGI5QZW5XLBJP,2TT75,2TT75,37TRT2X24RUBARRZECGI5QZW5XLBJP,37TRT2X24RUBARRZECGI5QZW5XLBJP,267715,267715,,,,,,,,,,
,,,,2,0.95403,0,5,5,527,1,people gathering around a pond that has a yellow flag near the water.,people gathering around a pond that has a red flag near the water,wolfe1,image-119,4,32,A1VRXZADIKWB4S,2021-01-07_18h15.40.773,MetaAwareness,2020.1.2,Win32,60,336OE47KI3N935RA0QLV79SNLCSWV8,A1VRXZADIKWB4S,37TRT2X24RUBARRZECGI5QZW5XLBJP,2TT75,2TT75,37TRT2X24RUBARRZECGI5QZW5XLBJP,37TRT2X24RUBARRZECGI5QZW5XLBJP,267715,267715,,,,,,,,,,
,,,,5,0.116815,0,6,6,140,1,large car festival with multiple cars on display. the cars have their hoods and trucks open. one red car in particular has a red and white barrol in front of it. ,large car festival with mulitple cars on display. the cars have their hoods and trucks open.,wolfe1,image-024,3,32,A1VRXZADIKWB4S,2021-01-07_18h15.40.773,MetaAwareness,2020.1.2,Win32,60,336OE47KI3N935RA0QLV79SNLCSWV8,A1VRXZADIKWB4S,37TRT2X24RUBARRZECGI5QZW5XLBJP,2TT75,2TT75,37TRT2X24RUBARRZECGI5QZW5XLBJP,37TRT2X24RUBARRZECGI5QZW5XLBJP,267715,267715,,,,,,,,,,
,,,,4,0.30119,0,7,7,221,1,a group of young men playing basketball in front of garage doors that have overhanging lights,"a group of young men playing basketball in front of garage doors, of which one has an overhanging light",wolfe1,image-040,4,32,A1VRXZADIKWB4S,2021-01-07_18h15.40.773,MetaAwareness,2020.1.2,Win32,60,336OE47KI3N935RA0QLV79SNLCSWV8,A1VRXZADIKWB4S,37TRT2X24RUBARRZECGI5QZW5XLBJP,2TT75,2TT75,37TRT2X24RUBARRZECGI5QZW5XLBJP,37TRT2X24RUBARRZECGI5QZW5XLBJP,267715,267715,,,,,,,,,,
,,,,2,0.135205,0,8,8,8,1,yard sale with clothes and toy table with a blue jacket hanging by the table,yard sale with clothes and brown jacket hanging by a table.,wolfe1,image-002,3,32,A1VRXZADIKWB4S,2021-01-07_18h15.40.773,MetaAwareness,2020.1.2,Win32,60,336OE47KI3N935RA0QLV79SNLCSWV8,A1VRXZADIKWB4S,37TRT2X24RUBARRZECGI5QZW5XLBJP,2TT75,2TT75,37TRT2X24RUBARRZECGI5QZW5XLBJP,37TRT2X24RUBARRZECGI5QZW5XLBJP,267715,267715,,,,,,,,,,
,,,,4,0.099045,0,9,9,577,1,woman in blue jeans walking,woman in gray jeans walking,wolfe1,image-129,1,32,A1VRXZADIKWB4S,2021-01-07_18h15.40.773,MetaAwareness,2020.1.2,Win32,60,336OE47KI3N935RA0QLV79SNLCSWV8,A1VRXZADIKWB4S,37TRT2X24RUBARRZECGI5QZW5XLBJP,2TT75,2TT75,37TRT2X24RUBARRZECGI5QZW5XLBJP,37TRT2X24RUBARRZECGI5QZW5XLBJP,267715,267715,,,,,,,,,,
,,,,3,0.917835,0,10,10,248,1,"seven small barns adorn a grassy countryside that rests near a lake, rolling hills, and a large mountain","six small barns adorn a grassy countryside that rests near a lake, rolling hills, and a large mountain",wolfe1,image-044,4,32,A1VRXZADIKWB4S,2021-01-07_18h15.40.773,MetaAwareness,2020.1.2,Win32,60,336OE47KI3N935RA0QLV79SNLCSWV8,A1VRXZADIKWB4S,37TRT2X24RUBARRZECGI5QZW5XLBJP,2TT75,2TT75,37TRT2X24RUBARRZECGI5QZW5XLBJP,37TRT2X24RUBARRZECGI5QZW5XLBJP,267715,267715,,,,,,,,,,
,,,,4,0.001015,0,11,11,0,1,there is a table by the beach with 8 place settings.,there is a table by the beach with 8 place settings and two glass jars in the center.,wolfe1,image-001,1,32,A1VRXZADIKWB4S,2021-01-07_18h15.40.773,MetaAwareness,2020.1.2,Win32,60,336OE47KI3N935RA0QLV79SNLCSWV8,A1VRXZADIKWB4S,37TRT2X24RUBARRZECGI5QZW5XLBJP,2TT75,2TT75,37TRT2X24RUBARRZECGI5QZW5XLBJP,37TRT2X24RUBARRZECGI5QZW5XLBJP,267715,267715,,,,,,,,,,
,,,,2,0.00117,0,12,12,580,1,a group of people standing outside a building. the lady in the front is wearing blue jeans,a group of people standing outiside a building. the lady in the front is wearing gray pants.,wolfe1,image-129,4,32,A1VRXZADIKWB4S,2021-01-07_18h15.40.773,MetaAwareness,2020.1.2,Win32,60,336OE47KI3N935RA0QLV79SNLCSWV8,A1VRXZADIKWB4S,37TRT2X24RUBARRZECGI5QZW5XLBJP,2TT75,2TT75,37TRT2X24RUBARRZECGI5QZW5XLBJP,37TRT2X24RUBARRZECGI5QZW5XLBJP,267715,267715,,,,,,,,,,
,,,,4,1.152055,0,13,13,362,1,people walking along a street and a woman in a pink shirt,people walking along a street and a woman in a green shirt,wolfe1,image-090,3,32,A1VRXZADIKWB4S,2021-01-07_18h15.40.773,MetaAwareness,2020.1.2,Win32,60,336OE47KI3N935RA0QLV79SNLCSWV8,A1VRXZADIKWB4S,37TRT2X24RUBARRZECGI5QZW5XLBJP,2TT75,2TT75,37TRT2X24RUBARRZECGI5QZW5XLBJP,37TRT2X24RUBARRZECGI5QZW5XLBJP,267715,267715,,,,,,,,,,
,,,,3,0.001055,0,14,14,163,1,a stone school building with three features on the roof and many bikes parked as students are in class.,a stone school builiding with two features on the roof and many bikes parked as students are in class,wolfe1,image-029,3,32,A1VRXZADIKWB4S,2021-01-07_18h15.40.773,MetaAwareness,2020.1.2,Win32,60,336OE47KI3N935RA0QLV79SNLCSWV8,A1VRXZADIKWB4S,37TRT2X24RUBARRZECGI5QZW5XLBJP,2TT75,2TT75,37TRT2X24RUBARRZECGI5QZW5XLBJP,37TRT2X24RUBARRZECGI5QZW5XLBJP,267715,267715,,,,,,,,,,
,,,,4,0.972585,0,15,15,18,1,a man fishes into the water while sitting on wood that is held together with a chain,a man fishes into the water while sitting on wood ,wolfe1,image-004,1,32,A1VRXZADIKWB4S,2021-01-07_18h15.40.773,MetaAwareness,2020.1.2,Win32,60,336OE47KI3N935RA0QLV79SNLCSWV8,A1VRXZADIKWB4S,37TRT2X24RUBARRZECGI5QZW5XLBJP,2TT75,2TT75,37TRT2X24RUBARRZECGI5QZW5XLBJP,37TRT2X24RUBARRZECGI5QZW5XLBJP,267715,267715,,,,,,,,,,
,,,,5,0.000955,0,16,16,602,1,a living room scene including a couch with two orange pillows,a living room scene including a couch with one orange and one yellow pillow,wolfe1,image-132,4,32,A1VRXZADIKWB4S,2021-01-07_18h15.40.773,MetaAwareness,2020.1.2,Win32,60,336OE47KI3N935RA0QLV79SNLCSWV8,A1VRXZADIKWB4S,37TRT2X24RUBARRZECGI5QZW5XLBJP,2TT75,2TT75,37TRT2X24RUBARRZECGI5QZW5XLBJP,37TRT2X24RUBARRZECGI5QZW5XLBJP,267715,267715,,,,,,,,,,
,,,,3,0.083565,0,17,17,265,1,a group of men shoveling gravel. there is a yellow object next to a wooden stake.,a group of men shoveling gravel. there is only a wooden stake. ,wolfe1,image-047,3,32,A1VRXZADIKWB4S,2021-01-07_18h15.40.773,MetaAwareness,2020.1.2,Win32,60,336OE47KI3N935RA0QLV79SNLCSWV8,A1VRXZADIKWB4S,37TRT2X24RUBARRZECGI5QZW5XLBJP,2TT75,2TT75,37TRT2X24RUBARRZECGI5QZW5XLBJP,37TRT2X24RUBARRZECGI5QZW5XLBJP,267715,267715,,,,,,,,,,
,,,,2,0.93587,0,18,18,624,1,an outdoor rooftop patio overlooks a baby blue building.,an outdoor rooftop patio overlooks a pink building.,wolfe1,image-136,2,32,A1VRXZADIKWB4S,2021-01-07_18h15.40.773,MetaAwareness,2020.1.2,Win32,60,336OE47KI3N935RA0QLV79SNLCSWV8,A1VRXZADIKWB4S,37TRT2X24RUBARRZECGI5QZW5XLBJP,2TT75,2TT75,37TRT2X24RUBARRZECGI5QZW5XLBJP,37TRT2X24RUBARRZECGI5QZW5XLBJP,267715,267715,,,,,,,,,,
,,,,4,0.00085,0,19,19,20,1,"a person is sitting on a dock, next to a chain, fishing.",a person is sitting on a dock fishing,wolfe1,image-004,3,32,A1VRXZADIKWB4S,2021-01-07_18h15.40.773,MetaAwareness,2020.1.2,Win32,60,336OE47KI3N935RA0QLV79SNLCSWV8,A1VRXZADIKWB4S,37TRT2X24RUBARRZECGI5QZW5XLBJP,2TT75,2TT75,37TRT2X24RUBARRZECGI5QZW5XLBJP,37TRT2X24RUBARRZECGI5QZW5XLBJP,267715,267715,,,,,,,,,,
,,,,5,0.000735,0,20,20,523,1,"several parents, including a man with a red backpack are watching children at a playground","several parents, including a man with an orange backpack, are watching children at a playground",wolfe1,image-118,5,32,A1VRXZADIKWB4S,2021-01-07_18h15.40.773,MetaAwareness,2020.1.2,Win32,60,336OE47KI3N935RA0QLV79SNLCSWV8,A1VRXZADIKWB4S,37TRT2X24RUBARRZECGI5QZW5XLBJP,2TT75,2TT75,37TRT2X24RUBARRZECGI5QZW5XLBJP,37TRT2X24RUBARRZECGI5QZW5XLBJP,267715,267715,,,,,,,,,,
,,,,5,1.087555,0,21,21,464,1,a group of men playing golf with a view of a grayish buliding roof visible in the break of the tree line.,a group of men playing golf with a view of a reddish building roof visible in the break of the tree line.,wolfe1,image-108,2,32,A1VRXZADIKWB4S,2021-01-07_18h15.40.773,MetaAwareness,2020.1.2,Win32,60,336OE47KI3N935RA0QLV79SNLCSWV8,A1VRXZADIKWB4S,37TRT2X24RUBARRZECGI5QZW5XLBJP,2TT75,2TT75,37TRT2X24RUBARRZECGI5QZW5XLBJP,37TRT2X24RUBARRZECGI5QZW5XLBJP,267715,267715,,,,,,,,,,
,,,,2,0.00262,0,22,22,272,1,a group of african american kids with grass that has a tiny bit of water in it in the background,a group of african american kids with dry grass in the background,wolfe1,image-048,3,32,A1VRXZADIKWB4S,2021-01-07_18h15.40.773,MetaAwareness,2020.1.2,Win32,60,336OE47KI3N935RA0QLV79SNLCSWV8,A1VRXZADIKWB4S,37TRT2X24RUBARRZECGI5QZW5XLBJP,2TT75,2TT75,37TRT2X24RUBARRZECGI5QZW5XLBJP,37TRT2X24RUBARRZECGI5QZW5XLBJP,267715,267715,,,,,,,,,,
,,,,4,0.002485,0,23,23,542,1,a green sign displayed on the window of a blue house,a red sign displayed on the window of a blue house,wolfe1,image-123,1,32,A1VRXZADIKWB4S,2021-01-07_18h15.40.773,MetaAwareness,2020.1.2,Win32,60,336OE47KI3N935RA0QLV79SNLCSWV8,A1VRXZADIKWB4S,37TRT2X24RUBARRZECGI5QZW5XLBJP,2TT75,2TT75,37TRT2X24RUBARRZECGI5QZW5XLBJP,37TRT2X24RUBARRZECGI5QZW5XLBJP,267715,267715,,,,,,,,,,
,,,,2,0.8856,0,24,24,14,1,a presentation being held in a basement with one window,a presentation being held in a basement with no windows,wolfe1,image-003,4,32,A1VRXZADIKWB4S,2021-01-07_18h15.40.773,MetaAwareness,2020.1.2,Win32,60,336OE47KI3N935RA0QLV79SNLCSWV8,A1VRXZADIKWB4S,37TRT2X24RUBARRZECGI5QZW5XLBJP,2TT75,2TT75,37TRT2X24RUBARRZECGI5QZW5XLBJP,37TRT2X24RUBARRZECGI5QZW5XLBJP,267715,267715,,,,,,,,,,
,,,,4,0.064245,0,25,25,391,1,there is some red color flowers,there is some yellow color flowers ,wolfe1,image-095,3,32,A1VRXZADIKWB4S,2021-01-07_18h15.40.773,MetaAwareness,2020.1.2,Win32,60,336OE47KI3N935RA0QLV79SNLCSWV8,A1VRXZADIKWB4S,37TRT2X24RUBARRZECGI5QZW5XLBJP,2TT75,2TT75,37TRT2X24RUBARRZECGI5QZW5XLBJP,37TRT2X24RUBARRZECGI5QZW5XLBJP,267715,267715,,,,,,,,,,
,,,,5,0.01757,0,26,26,98,1,"a group of four men stand on a golf course, and one of them is getting ready to swing, and there is a peg in the ground behind him","a group of four men stand on a gold course, and one of them is getting ready to swing",wolfe1,image-017,4,32,A1VRXZADIKWB4S,2021-01-07_18h15.40.773,MetaAwareness,2020.1.2,Win32,60,336OE47KI3N935RA0QLV79SNLCSWV8,A1VRXZADIKWB4S,37TRT2X24RUBARRZECGI5QZW5XLBJP,2TT75,2TT75,37TRT2X24RUBARRZECGI5QZW5XLBJP,37TRT2X24RUBARRZECGI5QZW5XLBJP,267715,267715,,,,,,,,,,
,,,,4,0.84332,0,27,27,162,1,bikes sit in front of a building with three front facing windows at the very top of the building,bikes sit in front of a building with two front facing windows at the very top of the building,wolfe1,image-029,2,32,A1VRXZADIKWB4S,2021-01-07_18h15.40.773,MetaAwareness,2020.1.2,Win32,60,336OE47KI3N935RA0QLV79SNLCSWV8,A1VRXZADIKWB4S,37TRT2X24RUBARRZECGI5QZW5XLBJP,2TT75,2TT75,37TRT2X24RUBARRZECGI5QZW5XLBJP,37TRT2X24RUBARRZECGI5QZW5XLBJP,267715,267715,,,,,,,,,,
,,,,5,0.88633,0,28,28,134,1,a mother and child walking in to a glass building thats a clinic with two bushes outside,a mother and child walking in to a glass building thats a clinic that has only 1 bush,wolfe1,image-023,1,32,A1VRXZADIKWB4S,2021-01-07_18h15.40.773,MetaAwareness,2020.1.2,Win32,60,336OE47KI3N935RA0QLV79SNLCSWV8,A1VRXZADIKWB4S,37TRT2X24RUBARRZECGI5QZW5XLBJP,2TT75,2TT75,37TRT2X24RUBARRZECGI5QZW5XLBJP,37TRT2X24RUBARRZECGI5QZW5XLBJP,267715,267715,,,,,,,,,,
,,,,4,0.016885,0,29,29,203,1,the wide open ocean with five sail boats and five small speed boats ahead of them.,the wide open ocean with five sail boats and four small speed boats ahead of them,wolfe1,image-035,5,32,A1VRXZADIKWB4S,2021-01-07_18h15.40.773,MetaAwareness,2020.1.2,Win32,60,336OE47KI3N935RA0QLV79SNLCSWV8,A1VRXZADIKWB4S,37TRT2X24RUBARRZECGI5QZW5XLBJP,2TT75,2TT75,37TRT2X24RUBARRZECGI5QZW5XLBJP,37TRT2X24RUBARRZECGI5QZW5XLBJP,267715,267715,,,,,,,,,,
,,,,,,,,,,,,,,,,32,A1VRXZADIKWB4S,2021-01-07_18h15.40.773,MetaAwareness,2020.1.2,Win32,60,336OE47KI3N935RA0QLV79SNLCSWV8,A1VRXZADIKWB4S,37TRT2X24RUBARRZECGI5QZW5XLBJP,2TT75,2TT75,37TRT2X24RUBARRZECGI5QZW5XLBJP,37TRT2X24RUBARRZECGI5QZW5XLBJP,267715,267715,3,0.100745,someone laying underneath a blue beach umbrella on a crowded beach,someone laying underneath a blue beach umbrella on a crowded beach,same,5,0.80286,members of a marching band crossing a track that all have feather plumes at the front of their hats,a cluttered and rustic looking cafe with 10 hanging lights,different