consent_response.keys,consent_response.rt,key_resp_2.keys,key_resp_2.rt,user_resp.keys,user_resp.rt,trials.thisRepN,trials.thisTrialN,trials.thisN,trials.thisIndex,trials.ran,image_1_text,image_2_text,database,image,number,age,worker_ID,date,expName,psychopyVersion,OS,frameRate,hitId,workerId,assignmentId,a,tp_a,b,tp_b,c,tp_c,catch_same_resp.keys,catch_same_resp.rt,image_1_text_catch_same,image_2_text_catch_same,image_catch_same,catch_different_resp.keys,catch_different_resp.rt,image_1_text_catch_different,image_2_text_catch_different,image_catch_different
space,21.164,space,1.405,4,6.974,0,0,0,526,1,people hang out at a park along the water with a yellow flag nearby,people hang out at a park along the water with a red flag nearby,wolfe1,image-119,3,29,A273EH17NSJRH0,2021-01-07_12h53.04.309,MetaAwareness,2020.1.2,Win32,60,34R3P23QHT44L4WQV14RS81EDXMHW8,A273EH17NSJRH0,30OG32W0SVE50KU431A0Z5MYHFSNEW,03O05,03O05,30OG32W0SVE50KU431A0Z5MYHFSNEW,30OG32W0SVE50KU431A0Z5MYHFSNEW,267715,267715,,,,,,,,,,
,,,,3,5.24,0,1,1,635,1,there is a patch of sand that has bench tables and chairs with blue and yellow umbrellas hanging over them. the blue umbrella is on the far left.,there is a patch of sand that has bench tables and chairs with blue and yellow umbrellas hanging over them. there is a yellow umbrella on the far left side.,wolfe1,image-137,6,29,A273EH17NSJRH0,2021-01-07_12h53.04.309,MetaAwareness,2020.1.2,Win32,60,34R3P23QHT44L4WQV14RS81EDXMHW8,A273EH17NSJRH0,30OG32W0SVE50KU431A0Z5MYHFSNEW,03O05,03O05,30OG32W0SVE50KU431A0Z5MYHFSNEW,30OG32W0SVE50KU431A0Z5MYHFSNEW,267715,267715,,,,,,,,,,
,,,,1,7.169,0,2,2,160,1,there is an object behind the person sitting in the center of the photo,there is more grass behind the person sitting in the center of the photo,wolfe1,image-028,5,29,A273EH17NSJRH0,2021-01-07_12h53.04.309,MetaAwareness,2020.1.2,Win32,60,34R3P23QHT44L4WQV14RS81EDXMHW8,A273EH17NSJRH0,30OG32W0SVE50KU431A0Z5MYHFSNEW,03O05,03O05,30OG32W0SVE50KU431A0Z5MYHFSNEW,30OG32W0SVE50KU431A0Z5MYHFSNEW,267715,267715,,,,,,,,,,
,,,,2,4.825,0,3,3,563,1,a man in a blue shirt plays volleyball with a group,a man in a green shirt plays volleyball with a group,wolfe1,image-126,2,29,A273EH17NSJRH0,2021-01-07_12h53.04.309,MetaAwareness,2020.1.2,Win32,60,34R3P23QHT44L4WQV14RS81EDXMHW8,A273EH17NSJRH0,30OG32W0SVE50KU431A0Z5MYHFSNEW,03O05,03O05,30OG32W0SVE50KU431A0Z5MYHFSNEW,30OG32W0SVE50KU431A0Z5MYHFSNEW,267715,267715,,,,,,,,,,
,,,,2,9.022,0,4,4,56,1,a man in the snow with items including a yellow hat next to a red suitcase,a man in the snow with items including a red suitcase and a bucket with a blue garbage bag,wolfe1,image-010,6,29,A273EH17NSJRH0,2021-01-07_12h53.04.309,MetaAwareness,2020.1.2,Win32,60,34R3P23QHT44L4WQV14RS81EDXMHW8,A273EH17NSJRH0,30OG32W0SVE50KU431A0Z5MYHFSNEW,03O05,03O05,30OG32W0SVE50KU431A0Z5MYHFSNEW,30OG32W0SVE50KU431A0Z5MYHFSNEW,267715,267715,,,,,,,,,,
,,,,4,5.996,0,5,5,149,1,"a scenic beachfront view from a balcony, including tables, a couch, and red, white, and green pillows","a scenic beachfront view from a balcony, including tables, a couch, and red and white pillows",wolfe1,image-026,3,29,A273EH17NSJRH0,2021-01-07_12h53.04.309,MetaAwareness,2020.1.2,Win32,60,34R3P23QHT44L4WQV14RS81EDXMHW8,A273EH17NSJRH0,30OG32W0SVE50KU431A0Z5MYHFSNEW,03O05,03O05,30OG32W0SVE50KU431A0Z5MYHFSNEW,30OG32W0SVE50KU431A0Z5MYHFSNEW,267715,267715,,,,,,,,,,
,,,,4,6.064,0,6,6,623,1,a roof deck overlooks the ocean and a teal house,a roof deck overlooks the ocean and a pink house,wolfe1,image-136,1,29,A273EH17NSJRH0,2021-01-07_12h53.04.309,MetaAwareness,2020.1.2,Win32,60,34R3P23QHT44L4WQV14RS81EDXMHW8,A273EH17NSJRH0,30OG32W0SVE50KU431A0Z5MYHFSNEW,03O05,03O05,30OG32W0SVE50KU431A0Z5MYHFSNEW,30OG32W0SVE50KU431A0Z5MYHFSNEW,267715,267715,,,,,,,,,,
,,,,5,5.109,0,7,7,287,1,spectators watching a dirt bike race with one of the spectators wearing a yellow shirt.,spectators watching a dirt bike race with one of the spectators wearing a blue shirt.,wolfe1,image-076,4,29,A273EH17NSJRH0,2021-01-07_12h53.04.309,MetaAwareness,2020.1.2,Win32,60,34R3P23QHT44L4WQV14RS81EDXMHW8,A273EH17NSJRH0,30OG32W0SVE50KU431A0Z5MYHFSNEW,03O05,03O05,30OG32W0SVE50KU431A0Z5MYHFSNEW,30OG32W0SVE50KU431A0Z5MYHFSNEW,267715,267715,,,,,,,,,,
,,,,2,3.652,0,8,8,65,1,"a small open building in a yard with a hammock and couch, next to it is a small concrete donut with plants in the center",a small open building in a yard with a hammock and a couch,wolfe1,image-012,1,29,A273EH17NSJRH0,2021-01-07_12h53.04.309,MetaAwareness,2020.1.2,Win32,60,34R3P23QHT44L4WQV14RS81EDXMHW8,A273EH17NSJRH0,30OG32W0SVE50KU431A0Z5MYHFSNEW,03O05,03O05,30OG32W0SVE50KU431A0Z5MYHFSNEW,30OG32W0SVE50KU431A0Z5MYHFSNEW,267715,267715,,,,,,,,,,
,,,,4,6.419,0,9,9,511,1,"a man is receiving a medal for completing a run in front of a ballfield with a building with red shutters,",a man is receiving a medal for completing a run in front of a ballfield with a building with black shutters.,wolfe1,image-116,6,29,A273EH17NSJRH0,2021-01-07_12h53.04.309,MetaAwareness,2020.1.2,Win32,60,34R3P23QHT44L4WQV14RS81EDXMHW8,A273EH17NSJRH0,30OG32W0SVE50KU431A0Z5MYHFSNEW,03O05,03O05,30OG32W0SVE50KU431A0Z5MYHFSNEW,30OG32W0SVE50KU431A0Z5MYHFSNEW,267715,267715,,,,,,,,,,
,,,,5,4.706,0,10,10,11,1,"a group of people are having a discussion in a classroom, there is a curtain over the window in the room.",a group of people are sitting in a classroom having a discussion.,wolfe1,image-003,1,29,A273EH17NSJRH0,2021-01-07_12h53.04.309,MetaAwareness,2020.1.2,Win32,60,34R3P23QHT44L4WQV14RS81EDXMHW8,A273EH17NSJRH0,30OG32W0SVE50KU431A0Z5MYHFSNEW,03O05,03O05,30OG32W0SVE50KU431A0Z5MYHFSNEW,30OG32W0SVE50KU431A0Z5MYHFSNEW,267715,267715,,,,,,,,,,
,,,,3,4.784,0,11,11,183,1,basketball game near a roofed building,basketball game in a park with trees,wolfe1,image-033,1,29,A273EH17NSJRH0,2021-01-07_12h53.04.309,MetaAwareness,2020.1.2,Win32,60,34R3P23QHT44L4WQV14RS81EDXMHW8,A273EH17NSJRH0,30OG32W0SVE50KU431A0Z5MYHFSNEW,03O05,03O05,30OG32W0SVE50KU431A0Z5MYHFSNEW,30OG32W0SVE50KU431A0Z5MYHFSNEW,267715,267715,,,,,,,,,,
,,,,2,4.233,0,12,12,164,1,"a university building with seven windows on the roof, a person walking a path, and many bikes in the foreground.","a university building with six windows on the roof, a person walking a path, and many bikes in the foreground.",wolfe1,image-029,4,29,A273EH17NSJRH0,2021-01-07_12h53.04.309,MetaAwareness,2020.1.2,Win32,60,34R3P23QHT44L4WQV14RS81EDXMHW8,A273EH17NSJRH0,30OG32W0SVE50KU431A0Z5MYHFSNEW,03O05,03O05,30OG32W0SVE50KU431A0Z5MYHFSNEW,30OG32W0SVE50KU431A0Z5MYHFSNEW,267715,267715,,,,,,,,,,
,,,,4,3.403,0,13,13,59,1,a large room with table and a box plant and a chair off to the side.,a large room with table that doesn't have plant and has a chair and picture.,wolfe1,image-011,2,29,A273EH17NSJRH0,2021-01-07_12h53.04.309,MetaAwareness,2020.1.2,Win32,60,34R3P23QHT44L4WQV14RS81EDXMHW8,A273EH17NSJRH0,30OG32W0SVE50KU431A0Z5MYHFSNEW,03O05,03O05,30OG32W0SVE50KU431A0Z5MYHFSNEW,30OG32W0SVE50KU431A0Z5MYHFSNEW,267715,267715,,,,,,,,,,
,,,,2,4.381,0,14,14,332,1,a group of young hikers in which one hiker is checking out something in his red backpack,a group of young ikers in whic one hiker is checking out something in his green backpack,wolfe1,image-084,4,29,A273EH17NSJRH0,2021-01-07_12h53.04.309,MetaAwareness,2020.1.2,Win32,60,34R3P23QHT44L4WQV14RS81EDXMHW8,A273EH17NSJRH0,30OG32W0SVE50KU431A0Z5MYHFSNEW,03O05,03O05,30OG32W0SVE50KU431A0Z5MYHFSNEW,30OG32W0SVE50KU431A0Z5MYHFSNEW,267715,267715,,,,,,,,,,
,,,,3,2.479,0,15,15,234,1,many people crowd a street in front of a huge catherdral with 5 front points on the top.,many people crowd a street in front of a huge catherdral with 4 front points on the top.,wolfe1,image-042,2,29,A273EH17NSJRH0,2021-01-07_12h53.04.309,MetaAwareness,2020.1.2,Win32,60,34R3P23QHT44L4WQV14RS81EDXMHW8,A273EH17NSJRH0,30OG32W0SVE50KU431A0Z5MYHFSNEW,03O05,03O05,30OG32W0SVE50KU431A0Z5MYHFSNEW,30OG32W0SVE50KU431A0Z5MYHFSNEW,267715,267715,,,,,,,,,,
,,,,3,2.552,0,16,16,363,1,"there is a very busy street that is lined with tall older looking, but well kept buildings. a lady on the left is wearing  pink shirt","there is a very busy street that is lined with tall, older looking, but well kept buildings. a lady on the left is wearing a green shirt.",wolfe1,image-090,4,29,A273EH17NSJRH0,2021-01-07_12h53.04.309,MetaAwareness,2020.1.2,Win32,60,34R3P23QHT44L4WQV14RS81EDXMHW8,A273EH17NSJRH0,30OG32W0SVE50KU431A0Z5MYHFSNEW,03O05,03O05,30OG32W0SVE50KU431A0Z5MYHFSNEW,30OG32W0SVE50KU431A0Z5MYHFSNEW,267715,267715,,,,,,,,,,
,,,,5,5.189,0,17,17,373,1,a woman in white sneakers exercises with other seniors,a woman in purple sneakers exercises with other seniors,wolfe1,image-092,6,29,A273EH17NSJRH0,2021-01-07_12h53.04.309,MetaAwareness,2020.1.2,Win32,60,34R3P23QHT44L4WQV14RS81EDXMHW8,A273EH17NSJRH0,30OG32W0SVE50KU431A0Z5MYHFSNEW,03O05,03O05,30OG32W0SVE50KU431A0Z5MYHFSNEW,30OG32W0SVE50KU431A0Z5MYHFSNEW,267715,267715,,,,,,,,,,
,,,,6,8.279,0,18,18,291,1,some men in hats watching a dirt bike race,some men in hats watching a dirt bike race,wolfe1,image-076,8,29,A273EH17NSJRH0,2021-01-07_12h53.04.309,MetaAwareness,2020.1.2,Win32,60,34R3P23QHT44L4WQV14RS81EDXMHW8,A273EH17NSJRH0,30OG32W0SVE50KU431A0Z5MYHFSNEW,03O05,03O05,30OG32W0SVE50KU431A0Z5MYHFSNEW,30OG32W0SVE50KU431A0Z5MYHFSNEW,267715,267715,,,,,,,,,,
,,,,2,3.849,0,19,19,374,1,several students in a school gym taking part in an exercise class. one student is wearing pink pants.,"several students in a school gym taking part in an exercise class, one student is wearing blue pants.",wolfe1,image-093,1,29,A273EH17NSJRH0,2021-01-07_12h53.04.309,MetaAwareness,2020.1.2,Win32,60,34R3P23QHT44L4WQV14RS81EDXMHW8,A273EH17NSJRH0,30OG32W0SVE50KU431A0Z5MYHFSNEW,03O05,03O05,30OG32W0SVE50KU431A0Z5MYHFSNEW,30OG32W0SVE50KU431A0Z5MYHFSNEW,267715,267715,,,,,,,,,,
,,,,3,4.782,0,20,20,322,1,several students are working together at a table in a classroom. behind them is a bulletin board with a red square on it,several students are working together at a table in a classroom. behind them there is a bulletin board with a yellow square on it. ,wolfe1,image-083,1,29,A273EH17NSJRH0,2021-01-07_12h53.04.309,MetaAwareness,2020.1.2,Win32,60,34R3P23QHT44L4WQV14RS81EDXMHW8,A273EH17NSJRH0,30OG32W0SVE50KU431A0Z5MYHFSNEW,03O05,03O05,30OG32W0SVE50KU431A0Z5MYHFSNEW,30OG32W0SVE50KU431A0Z5MYHFSNEW,267715,267715,,,,,,,,,,
,,,,5,4.948,0,21,21,1,1,dining tables with place settings and a salt shaker and also chairs next to a blue ocean. ,dining tables with place mats and  silverware but lacking salt and pepper overlooking a blue ocean. ,wolfe1,image-001,2,29,A273EH17NSJRH0,2021-01-07_12h53.04.309,MetaAwareness,2020.1.2,Win32,60,34R3P23QHT44L4WQV14RS81EDXMHW8,A273EH17NSJRH0,30OG32W0SVE50KU431A0Z5MYHFSNEW,03O05,03O05,30OG32W0SVE50KU431A0Z5MYHFSNEW,30OG32W0SVE50KU431A0Z5MYHFSNEW,267715,267715,,,,,,,,,,
,,,,2,3.179,0,22,22,124,1, four people and 1 watching shoot bow and arrow  there are 3 extra arrows,four people and 1 watching shoot bow and arrow there are 2 extra arrows,wolfe1,image-021,2,29,A273EH17NSJRH0,2021-01-07_12h53.04.309,MetaAwareness,2020.1.2,Win32,60,34R3P23QHT44L4WQV14RS81EDXMHW8,A273EH17NSJRH0,30OG32W0SVE50KU431A0Z5MYHFSNEW,03O05,03O05,30OG32W0SVE50KU431A0Z5MYHFSNEW,30OG32W0SVE50KU431A0Z5MYHFSNEW,267715,267715,,,,,,,,,,
,,,,2,4.376,0,23,23,293,1,"a group of people and an american flag in front of a church, a woman is holding a blue item","a group of people and an american flag in front of a church, a woman is holding a yellow item",wolfe1,image-077,1,29,A273EH17NSJRH0,2021-01-07_12h53.04.309,MetaAwareness,2020.1.2,Win32,60,34R3P23QHT44L4WQV14RS81EDXMHW8,A273EH17NSJRH0,30OG32W0SVE50KU431A0Z5MYHFSNEW,03O05,03O05,30OG32W0SVE50KU431A0Z5MYHFSNEW,30OG32W0SVE50KU431A0Z5MYHFSNEW,267715,267715,,,,,,,,,,
,,,,2,4.472,0,24,24,147,1,a brown cushion sitting on a large sectional bench,a white cushion sits on a large sectional bench,wolfe1,image-026,1,29,A273EH17NSJRH0,2021-01-07_12h53.04.309,MetaAwareness,2020.1.2,Win32,60,34R3P23QHT44L4WQV14RS81EDXMHW8,A273EH17NSJRH0,30OG32W0SVE50KU431A0Z5MYHFSNEW,03O05,03O05,30OG32W0SVE50KU431A0Z5MYHFSNEW,30OG32W0SVE50KU431A0Z5MYHFSNEW,267715,267715,,,,,,,,,,
,,,,3,4.345,0,25,25,338,1,people at the beach and man in red hat,people at the beach and man in green hat,wolfe1,image-085,3,29,A273EH17NSJRH0,2021-01-07_12h53.04.309,MetaAwareness,2020.1.2,Win32,60,34R3P23QHT44L4WQV14RS81EDXMHW8,A273EH17NSJRH0,30OG32W0SVE50KU431A0Z5MYHFSNEW,03O05,03O05,30OG32W0SVE50KU431A0Z5MYHFSNEW,30OG32W0SVE50KU431A0Z5MYHFSNEW,267715,267715,,,,,,,,,,
,,,,5,7.821,0,26,26,458,1,a bowl of hand dipped candles two of which are blue,a bowl of hand dipped candles one of which is blue,wolfe1,image-107,4,29,A273EH17NSJRH0,2021-01-07_12h53.04.309,MetaAwareness,2020.1.2,Win32,60,34R3P23QHT44L4WQV14RS81EDXMHW8,A273EH17NSJRH0,30OG32W0SVE50KU431A0Z5MYHFSNEW,03O05,03O05,30OG32W0SVE50KU431A0Z5MYHFSNEW,30OG32W0SVE50KU431A0Z5MYHFSNEW,267715,267715,,,,,,,,,,
,,,,5,6.378,0,27,27,416,1,"a large tent is set up on a campground, next to an rv. there is a blue towell on the clothesline next to the tent.","a large tent is set up on a campground, ne to an rv. there is a pink towell on the clothesline next to the tent",wolfe1,image-100,1,29,A273EH17NSJRH0,2021-01-07_12h53.04.309,MetaAwareness,2020.1.2,Win32,60,34R3P23QHT44L4WQV14RS81EDXMHW8,A273EH17NSJRH0,30OG32W0SVE50KU431A0Z5MYHFSNEW,03O05,03O05,30OG32W0SVE50KU431A0Z5MYHFSNEW,30OG32W0SVE50KU431A0Z5MYHFSNEW,267715,267715,,,,,,,,,,
,,,,5,3.334,0,28,28,336,1,"a boardwalk on a beach, including bicyclists, people eating, and a man with a red hat","a boardwalk on a beach, including bicyclists, people eating, and a man with a green hat",wolfe1,image-085,1,29,A273EH17NSJRH0,2021-01-07_12h53.04.309,MetaAwareness,2020.1.2,Win32,60,34R3P23QHT44L4WQV14RS81EDXMHW8,A273EH17NSJRH0,30OG32W0SVE50KU431A0Z5MYHFSNEW,03O05,03O05,30OG32W0SVE50KU431A0Z5MYHFSNEW,30OG32W0SVE50KU431A0Z5MYHFSNEW,267715,267715,,,,,,,,,,
,,,,5,6.602,0,29,29,349,1,a woman carries a red cooler jug with a group of many children and adults while outside.,a woman carried a pink cooler jug with a group of many children and adults while outside.,wolfe1,image-088,1,29,A273EH17NSJRH0,2021-01-07_12h53.04.309,MetaAwareness,2020.1.2,Win32,60,34R3P23QHT44L4WQV14RS81EDXMHW8,A273EH17NSJRH0,30OG32W0SVE50KU431A0Z5MYHFSNEW,03O05,03O05,30OG32W0SVE50KU431A0Z5MYHFSNEW,30OG32W0SVE50KU431A0Z5MYHFSNEW,267715,267715,,,,,,,,,,
,,,,,,,,,,,,,,,,29,A273EH17NSJRH0,2021-01-07_12h53.04.309,MetaAwareness,2020.1.2,Win32,60,34R3P23QHT44L4WQV14RS81EDXMHW8,A273EH17NSJRH0,30OG32W0SVE50KU431A0Z5MYHFSNEW,03O05,03O05,30OG32W0SVE50KU431A0Z5MYHFSNEW,30OG32W0SVE50KU431A0Z5MYHFSNEW,267715,267715,6,4.796,someone laying underneath a blue beach umbrella on a crowded beach,someone laying underneath a blue beach umbrella on a crowded beach,same,1,2.668,members of a marching band crossing a track that all have feather plumes at the front of their hats,a cluttered and rustic looking cafe with 10 hanging lights,different