consent_response.keys,consent_response.rt,key_resp_2.keys,key_resp_2.rt,user_resp.keys,user_resp.rt,trials.thisRepN,trials.thisTrialN,trials.thisN,trials.thisIndex,trials.ran,image_1_text,image_2_text,database,image,number,age,worker_ID,date,expName,psychopyVersion,OS,frameRate,hitId,workerId,assignmentId,a,tp_a,b,tp_b,c,tp_c,catch_same_resp.keys,catch_same_resp.rt,image_1_text_catch_same,image_2_text_catch_same,image_catch_same,catch_different_resp.keys,catch_different_resp.rt,image_1_text_catch_different,image_2_text_catch_different,image_catch_different
space,4.175,space,8.544,5,10.473,0,0,0,104,1,"a group camps on a beach, their kayaks and tents and chairs set up on the sand, including one overlooking the horizon.","a group camps on a beach, their kayaks and tents and chairs set up on the sand, though none overlook the horizon.",wolfe1,image-018,1,29,A2IMMQ5AS3ZK78,2021-01-07_09h30.29.374,MetaAwareness,2020.1.2,Win32,60,3X2YVV51PV7THTBCTC160LL7W8K1WN,A2IMMQ5AS3ZK78,3URFVVM166LG6559WP0ZYAFADGXZU7,1VRU5,1VRU5,3URFVVM166LG6559WP0ZYAFADGXZU7,3URFVVM166LG6559WP0ZYAFADGXZU7,267715,267715,,,,,,,,,,
,,,,3,7.761,0,1,1,256,1,diggers with white box,diggers discussing dig site,wolfe1,image-046,2,29,A2IMMQ5AS3ZK78,2021-01-07_09h30.29.374,MetaAwareness,2020.1.2,Win32,60,3X2YVV51PV7THTBCTC160LL7W8K1WN,A2IMMQ5AS3ZK78,3URFVVM166LG6559WP0ZYAFADGXZU7,1VRU5,1VRU5,3URFVVM166LG6559WP0ZYAFADGXZU7,3URFVVM166LG6559WP0ZYAFADGXZU7,267715,267715,,,,,,,,,,
,,,,5,7.054,0,2,2,350,1,a group of young children with two teachers on a day out. the teacher is holding a red cooler. ,"a group of young children with two teachers on a day out, the teacher is holding a pink cooler. ",wolfe1,image-088,2,29,A2IMMQ5AS3ZK78,2021-01-07_09h30.29.374,MetaAwareness,2020.1.2,Win32,60,3X2YVV51PV7THTBCTC160LL7W8K1WN,A2IMMQ5AS3ZK78,3URFVVM166LG6559WP0ZYAFADGXZU7,1VRU5,1VRU5,3URFVVM166LG6559WP0ZYAFADGXZU7,3URFVVM166LG6559WP0ZYAFADGXZU7,267715,267715,,,,,,,,,,
,,,,3,4.349,0,3,3,528,1,a pond with a yellow sign.,a pond with a dark orange sign.,wolfe1,image-119,5,29,A2IMMQ5AS3ZK78,2021-01-07_09h30.29.374,MetaAwareness,2020.1.2,Win32,60,3X2YVV51PV7THTBCTC160LL7W8K1WN,A2IMMQ5AS3ZK78,3URFVVM166LG6559WP0ZYAFADGXZU7,1VRU5,1VRU5,3URFVVM166LG6559WP0ZYAFADGXZU7,3URFVVM166LG6559WP0ZYAFADGXZU7,267715,267715,,,,,,,,,,
,,,,4,7.942,0,4,4,57,1,a person in the snow setting up their supplies one of which is a yellow bucket,a person in the snow laying out all their supplies on the floor.,wolfe1,image-010,7,29,A2IMMQ5AS3ZK78,2021-01-07_09h30.29.374,MetaAwareness,2020.1.2,Win32,60,3X2YVV51PV7THTBCTC160LL7W8K1WN,A2IMMQ5AS3ZK78,3URFVVM166LG6559WP0ZYAFADGXZU7,1VRU5,1VRU5,3URFVVM166LG6559WP0ZYAFADGXZU7,3URFVVM166LG6559WP0ZYAFADGXZU7,267715,267715,,,,,,,,,,
,,,,5,9.014,0,5,5,118,1,a man in a blue shirt sits next to a pink and white striped sack at an outdoor festival with many other people.,a  man in a blue shirt sits at an outdoor festival with many other people.,wolfe1,image-020,3,29,A2IMMQ5AS3ZK78,2021-01-07_09h30.29.374,MetaAwareness,2020.1.2,Win32,60,3X2YVV51PV7THTBCTC160LL7W8K1WN,A2IMMQ5AS3ZK78,3URFVVM166LG6559WP0ZYAFADGXZU7,1VRU5,1VRU5,3URFVVM166LG6559WP0ZYAFADGXZU7,3URFVVM166LG6559WP0ZYAFADGXZU7,267715,267715,,,,,,,,,,
,,,,5,3.94,0,6,6,433,1,people walking down the street in the rain including a person wearing green shoes,people walking down the street in the rain including a person wearing red shoes,wolfe1,image-103,3,29,A2IMMQ5AS3ZK78,2021-01-07_09h30.29.374,MetaAwareness,2020.1.2,Win32,60,3X2YVV51PV7THTBCTC160LL7W8K1WN,A2IMMQ5AS3ZK78,3URFVVM166LG6559WP0ZYAFADGXZU7,1VRU5,1VRU5,3URFVVM166LG6559WP0ZYAFADGXZU7,3URFVVM166LG6559WP0ZYAFADGXZU7,267715,267715,,,,,,,,,,
,,,,5,5.236,0,7,7,514,1,a group of people shopping at a market with mostly white awnings except for two which have a green and blue awning. ,a group of people shopping at a market with mostly white awnings except for two which have a green and red awning. ,wolfe1,image-117,3,29,A2IMMQ5AS3ZK78,2021-01-07_09h30.29.374,MetaAwareness,2020.1.2,Win32,60,3X2YVV51PV7THTBCTC160LL7W8K1WN,A2IMMQ5AS3ZK78,3URFVVM166LG6559WP0ZYAFADGXZU7,1VRU5,1VRU5,3URFVVM166LG6559WP0ZYAFADGXZU7,3URFVVM166LG6559WP0ZYAFADGXZU7,267715,267715,,,,,,,,,,
,,,,3,10.087,0,8,8,46,1,"a woman pettin a deer at what appears to be a petting zoo, there is a person in all black behind her to the right.","a woman petting a deer at a zoo, there is no person dressed in all black behind her",wolfe1,image-008,5,29,A2IMMQ5AS3ZK78,2021-01-07_09h30.29.374,MetaAwareness,2020.1.2,Win32,60,3X2YVV51PV7THTBCTC160LL7W8K1WN,A2IMMQ5AS3ZK78,3URFVVM166LG6559WP0ZYAFADGXZU7,1VRU5,1VRU5,3URFVVM166LG6559WP0ZYAFADGXZU7,3URFVVM166LG6559WP0ZYAFADGXZU7,267715,267715,,,,,,,,,,
,,,,4,9.756,0,9,9,63,1,"a table is in a sparsely decorated room, and on the table are books and plants. there is a large cactus and a small cactus on the table.","a table is in a sparsely decorated room, and on the table are books and plants. there is a large cactus on the table.",wolfe1,image-011,6,29,A2IMMQ5AS3ZK78,2021-01-07_09h30.29.374,MetaAwareness,2020.1.2,Win32,60,3X2YVV51PV7THTBCTC160LL7W8K1WN,A2IMMQ5AS3ZK78,3URFVVM166LG6559WP0ZYAFADGXZU7,1VRU5,1VRU5,3URFVVM166LG6559WP0ZYAFADGXZU7,3URFVVM166LG6559WP0ZYAFADGXZU7,267715,267715,,,,,,,,,,
,,,,5,6.435,0,10,10,37,1,train station on milwaukie has building in the distance with a large window in the center. ,train station on milwaukie has a building in the distance. ,wolfe1,image-007,2,29,A2IMMQ5AS3ZK78,2021-01-07_09h30.29.374,MetaAwareness,2020.1.2,Win32,60,3X2YVV51PV7THTBCTC160LL7W8K1WN,A2IMMQ5AS3ZK78,3URFVVM166LG6559WP0ZYAFADGXZU7,1VRU5,1VRU5,3URFVVM166LG6559WP0ZYAFADGXZU7,3URFVVM166LG6559WP0ZYAFADGXZU7,267715,267715,,,,,,,,,,
,,,,5,4.576,0,11,11,568,1,a group of people cleaning off a car with the lady on the right using a blue shovel.,a group of people cleaning off a car with the lady on the right using a green shovel.,wolfe1,image-127,2,29,A2IMMQ5AS3ZK78,2021-01-07_09h30.29.374,MetaAwareness,2020.1.2,Win32,60,3X2YVV51PV7THTBCTC160LL7W8K1WN,A2IMMQ5AS3ZK78,3URFVVM166LG6559WP0ZYAFADGXZU7,1VRU5,1VRU5,3URFVVM166LG6559WP0ZYAFADGXZU7,3URFVVM166LG6559WP0ZYAFADGXZU7,267715,267715,,,,,,,,,,
,,,,5,10.724,0,12,12,155,1,a crowd forms in front of benches with placards on them,"a crowd forms in front of benches, some of which have placards",wolfe1,image-027,5,29,A2IMMQ5AS3ZK78,2021-01-07_09h30.29.374,MetaAwareness,2020.1.2,Win32,60,3X2YVV51PV7THTBCTC160LL7W8K1WN,A2IMMQ5AS3ZK78,3URFVVM166LG6559WP0ZYAFADGXZU7,1VRU5,1VRU5,3URFVVM166LG6559WP0ZYAFADGXZU7,3URFVVM166LG6559WP0ZYAFADGXZU7,267715,267715,,,,,,,,,,
,,,,3,8.143,0,13,13,268,1,men spreading gravel with an orange object near the shovel ,men spreading gravel without an orange object near the shovel,wolfe1,image-047,6,29,A2IMMQ5AS3ZK78,2021-01-07_09h30.29.374,MetaAwareness,2020.1.2,Win32,60,3X2YVV51PV7THTBCTC160LL7W8K1WN,A2IMMQ5AS3ZK78,3URFVVM166LG6559WP0ZYAFADGXZU7,1VRU5,1VRU5,3URFVVM166LG6559WP0ZYAFADGXZU7,3URFVVM166LG6559WP0ZYAFADGXZU7,267715,267715,,,,,,,,,,
,,,,2,16.066,0,14,14,187,1,a basketball player gets ready to take a shot from under the eave of a nearby building,a player gets ready to take a shot during a basketball game in the mountains,wolfe1,image-033,5,29,A2IMMQ5AS3ZK78,2021-01-07_09h30.29.374,MetaAwareness,2020.1.2,Win32,60,3X2YVV51PV7THTBCTC160LL7W8K1WN,A2IMMQ5AS3ZK78,3URFVVM166LG6559WP0ZYAFADGXZU7,1VRU5,1VRU5,3URFVVM166LG6559WP0ZYAFADGXZU7,3URFVVM166LG6559WP0ZYAFADGXZU7,267715,267715,,,,,,,,,,
,,,,5,6.338,0,15,15,409,1,people walking towards an ancient building with one man wearing green shorts,people walking towards an ancient building with one man wearing brown shorts,wolfe1,image-098,3,29,A2IMMQ5AS3ZK78,2021-01-07_09h30.29.374,MetaAwareness,2020.1.2,Win32,60,3X2YVV51PV7THTBCTC160LL7W8K1WN,A2IMMQ5AS3ZK78,3URFVVM166LG6559WP0ZYAFADGXZU7,1VRU5,1VRU5,3URFVVM166LG6559WP0ZYAFADGXZU7,3URFVVM166LG6559WP0ZYAFADGXZU7,267715,267715,,,,,,,,,,
,,,,5,4.639,0,16,16,625,1,a rooftop patio overlooking a light blue building. ,a rooftop patio overlooking a pink building. ,wolfe1,image-136,3,29,A2IMMQ5AS3ZK78,2021-01-07_09h30.29.374,MetaAwareness,2020.1.2,Win32,60,3X2YVV51PV7THTBCTC160LL7W8K1WN,A2IMMQ5AS3ZK78,3URFVVM166LG6559WP0ZYAFADGXZU7,1VRU5,1VRU5,3URFVVM166LG6559WP0ZYAFADGXZU7,3URFVVM166LG6559WP0ZYAFADGXZU7,267715,267715,,,,,,,,,,
,,,,5,4.242,0,17,17,408,1,people walking to a  catheral with one person wearing green shorts.,people walking to a  catheral with one person wearing brown shorts.,wolfe1,image-098,2,29,A2IMMQ5AS3ZK78,2021-01-07_09h30.29.374,MetaAwareness,2020.1.2,Win32,60,3X2YVV51PV7THTBCTC160LL7W8K1WN,A2IMMQ5AS3ZK78,3URFVVM166LG6559WP0ZYAFADGXZU7,1VRU5,1VRU5,3URFVVM166LG6559WP0ZYAFADGXZU7,3URFVVM166LG6559WP0ZYAFADGXZU7,267715,267715,,,,,,,,,,
,,,,5,8.26,0,18,18,398,1,looks like people worjing on music in a room with pianos and chairs. there is a stool with something that is blue underneath it,looks like people working on music in a room with pianos and chairs. there is a stool with something green underneath it.,wolfe1,image-096,2,29,A2IMMQ5AS3ZK78,2021-01-07_09h30.29.374,MetaAwareness,2020.1.2,Win32,60,3X2YVV51PV7THTBCTC160LL7W8K1WN,A2IMMQ5AS3ZK78,3URFVVM166LG6559WP0ZYAFADGXZU7,1VRU5,1VRU5,3URFVVM166LG6559WP0ZYAFADGXZU7,3URFVVM166LG6559WP0ZYAFADGXZU7,267715,267715,,,,,,,,,,
,,,,5,4.003,0,19,19,590,1,people walking in the snow towards a helicopter and some yellow supplies,people walking in the snow towards a helicopter and some blue supplies,wolfe1,image-130,4,29,A2IMMQ5AS3ZK78,2021-01-07_09h30.29.374,MetaAwareness,2020.1.2,Win32,60,3X2YVV51PV7THTBCTC160LL7W8K1WN,A2IMMQ5AS3ZK78,3URFVVM166LG6559WP0ZYAFADGXZU7,1VRU5,1VRU5,3URFVVM166LG6559WP0ZYAFADGXZU7,3URFVVM166LG6559WP0ZYAFADGXZU7,267715,267715,,,,,,,,,,
,,,,3,4.278,0,20,20,0,1,there is a table by the beach with 8 place settings.,there is a table by the beach with 8 place settings and two glass jars in the center.,wolfe1,image-001,1,29,A2IMMQ5AS3ZK78,2021-01-07_09h30.29.374,MetaAwareness,2020.1.2,Win32,60,3X2YVV51PV7THTBCTC160LL7W8K1WN,A2IMMQ5AS3ZK78,3URFVVM166LG6559WP0ZYAFADGXZU7,1VRU5,1VRU5,3URFVVM166LG6559WP0ZYAFADGXZU7,3URFVVM166LG6559WP0ZYAFADGXZU7,267715,267715,,,,,,,,,,
,,,,4,5.536,0,21,21,351,1,a lady carrying a red water jug.,a lady carrying a pink water jug.,wolfe1,image-088,3,29,A2IMMQ5AS3ZK78,2021-01-07_09h30.29.374,MetaAwareness,2020.1.2,Win32,60,3X2YVV51PV7THTBCTC160LL7W8K1WN,A2IMMQ5AS3ZK78,3URFVVM166LG6559WP0ZYAFADGXZU7,1VRU5,1VRU5,3URFVVM166LG6559WP0ZYAFADGXZU7,3URFVVM166LG6559WP0ZYAFADGXZU7,267715,267715,,,,,,,,,,
,,,,4,6.028,0,22,22,562,1,a volley ball game in a wooded park setting with a group of three people watching a ball about to be volleyed back ,a volleyball game with a group of three players watching on the right watching one person about to hit the ball across in a park setting,wolfe1,image-126,1,29,A2IMMQ5AS3ZK78,2021-01-07_09h30.29.374,MetaAwareness,2020.1.2,Win32,60,3X2YVV51PV7THTBCTC160LL7W8K1WN,A2IMMQ5AS3ZK78,3URFVVM166LG6559WP0ZYAFADGXZU7,1VRU5,1VRU5,3URFVVM166LG6559WP0ZYAFADGXZU7,3URFVVM166LG6559WP0ZYAFADGXZU7,267715,267715,,,,,,,,,,
,,,,3,6.201,0,23,23,168,1,a building front with some stores and a sign for a business.,a building front with some stores.,wolfe1,image-030,4,29,A2IMMQ5AS3ZK78,2021-01-07_09h30.29.374,MetaAwareness,2020.1.2,Win32,60,3X2YVV51PV7THTBCTC160LL7W8K1WN,A2IMMQ5AS3ZK78,3URFVVM166LG6559WP0ZYAFADGXZU7,1VRU5,1VRU5,3URFVVM166LG6559WP0ZYAFADGXZU7,3URFVVM166LG6559WP0ZYAFADGXZU7,267715,267715,,,,,,,,,,
,,,,5,5.937,0,24,24,516,1,open air market with several white tents and one blue tent covering the products. ,open air market with several white tents and one rent tent covering the products,wolfe1,image-117,5,29,A2IMMQ5AS3ZK78,2021-01-07_09h30.29.374,MetaAwareness,2020.1.2,Win32,60,3X2YVV51PV7THTBCTC160LL7W8K1WN,A2IMMQ5AS3ZK78,3URFVVM166LG6559WP0ZYAFADGXZU7,1VRU5,1VRU5,3URFVVM166LG6559WP0ZYAFADGXZU7,3URFVVM166LG6559WP0ZYAFADGXZU7,267715,267715,,,,,,,,,,
,,,,5,6.77,0,25,25,425,1,a group of men posing for a picture with the gentleman all the way on the right wearing a bright red tie. ,a group of men posing for a picture with the gentleman all the way on the right wearing a dull red tie. ,wolfe1,image-102,2,29,A2IMMQ5AS3ZK78,2021-01-07_09h30.29.374,MetaAwareness,2020.1.2,Win32,60,3X2YVV51PV7THTBCTC160LL7W8K1WN,A2IMMQ5AS3ZK78,3URFVVM166LG6559WP0ZYAFADGXZU7,1VRU5,1VRU5,3URFVVM166LG6559WP0ZYAFADGXZU7,3URFVVM166LG6559WP0ZYAFADGXZU7,267715,267715,,,,,,,,,,
,,,,5,8.779,0,26,26,574,1,"several people lined up to cliff jump into the water, a boy being pulled out of the water has a purple life jacket on","several people lined up to clidd jump into the water, a boy being pulled out of the water has a green life jacket on",wolfe1,image-128,3,29,A2IMMQ5AS3ZK78,2021-01-07_09h30.29.374,MetaAwareness,2020.1.2,Win32,60,3X2YVV51PV7THTBCTC160LL7W8K1WN,A2IMMQ5AS3ZK78,3URFVVM166LG6559WP0ZYAFADGXZU7,1VRU5,1VRU5,3URFVVM166LG6559WP0ZYAFADGXZU7,3URFVVM166LG6559WP0ZYAFADGXZU7,267715,267715,,,,,,,,,,
,,,,3,4.105,0,27,27,478,1,a series of buildings. one has a red roof,a series of buildings. one has a dark blue roof,wolfe1,image-110,6,29,A2IMMQ5AS3ZK78,2021-01-07_09h30.29.374,MetaAwareness,2020.1.2,Win32,60,3X2YVV51PV7THTBCTC160LL7W8K1WN,A2IMMQ5AS3ZK78,3URFVVM166LG6559WP0ZYAFADGXZU7,1VRU5,1VRU5,3URFVVM166LG6559WP0ZYAFADGXZU7,3URFVVM166LG6559WP0ZYAFADGXZU7,267715,267715,,,,,,,,,,
,,,,2,5.381,0,28,28,160,1,there is an object behind the person sitting in the center of the photo,there is more grass behind the person sitting in the center of the photo,wolfe1,image-028,5,29,A2IMMQ5AS3ZK78,2021-01-07_09h30.29.374,MetaAwareness,2020.1.2,Win32,60,3X2YVV51PV7THTBCTC160LL7W8K1WN,A2IMMQ5AS3ZK78,3URFVVM166LG6559WP0ZYAFADGXZU7,1VRU5,1VRU5,3URFVVM166LG6559WP0ZYAFADGXZU7,3URFVVM166LG6559WP0ZYAFADGXZU7,267715,267715,,,,,,,,,,
,,,,3,5.863,0,29,29,422,1,"a group of kids playing on a swingset, there is a girl in a pink shirt in the lower right","a group of kids playing on a swingset, there is a girl in an orange shirt in the lower right",wolfe1,image-101,3,29,A2IMMQ5AS3ZK78,2021-01-07_09h30.29.374,MetaAwareness,2020.1.2,Win32,60,3X2YVV51PV7THTBCTC160LL7W8K1WN,A2IMMQ5AS3ZK78,3URFVVM166LG6559WP0ZYAFADGXZU7,1VRU5,1VRU5,3URFVVM166LG6559WP0ZYAFADGXZU7,3URFVVM166LG6559WP0ZYAFADGXZU7,267715,267715,,,,,,,,,,
,,,,,,,,,,,,,,,,29,A2IMMQ5AS3ZK78,2021-01-07_09h30.29.374,MetaAwareness,2020.1.2,Win32,60,3X2YVV51PV7THTBCTC160LL7W8K1WN,A2IMMQ5AS3ZK78,3URFVVM166LG6559WP0ZYAFADGXZU7,1VRU5,1VRU5,3URFVVM166LG6559WP0ZYAFADGXZU7,3URFVVM166LG6559WP0ZYAFADGXZU7,267715,267715,5,6.125,someone laying underneath a blue beach umbrella on a crowded beach,someone laying underneath a blue beach umbrella on a crowded beach,same,1,4.179,members of a marching band crossing a track that all have feather plumes at the front of their hats,a cluttered and rustic looking cafe with 10 hanging lights,different