consent_response.keys,consent_response.rt,key_resp_2.keys,key_resp_2.rt,user_resp.keys,user_resp.rt,trials.thisRepN,trials.thisTrialN,trials.thisN,trials.thisIndex,trials.ran,image_1_text,image_2_text,database,image,number,age,worker_ID,date,expName,psychopyVersion,OS,frameRate,hitId,workerId,assignmentId,a,tp_a,b,tp_b,c,tp_c,catch_same_resp.keys,catch_same_resp.rt,image_1_text_catch_same,image_2_text_catch_same,image_catch_same,catch_different_resp.keys,catch_different_resp.rt,image_1_text_catch_different,image_2_text_catch_different,image_catch_different
space,5.825,space,1.394,3,12.044,0,0,0,85,1,two men posing with a mascot with a garbage can in the background. ,two men posing with a mascot with no garbage can in the background.,wolfe1,image-015,1,41,A2Z6NL0CTXY0ZB,2021-01-07_07h49.05.160,MetaAwareness,2020.1.2,Win32,60,3FHTJGYT8O301Z4EZ98EFEHH50YPGE,A2Z6NL0CTXY0ZB,3TYCR1GOTDMDNFIFNB8Y7NJR0P1LZW,ORYT5,ORYT5,3TYCR1GOTDMDNFIFNB8Y7NJR0P1LZW,3TYCR1GOTDMDNFIFNB8Y7NJR0P1LZW,267715,267715,,,,,,,,,,
,,,,2,10.556,0,1,1,510,1,a house with red windows sits over a ballfield where several people are standing,a house with blue windows looms over a ballfield where several peope are standing in the road,wolfe1,image-116,5,41,A2Z6NL0CTXY0ZB,2021-01-07_07h49.05.160,MetaAwareness,2020.1.2,Win32,60,3FHTJGYT8O301Z4EZ98EFEHH50YPGE,A2Z6NL0CTXY0ZB,3TYCR1GOTDMDNFIFNB8Y7NJR0P1LZW,ORYT5,ORYT5,3TYCR1GOTDMDNFIFNB8Y7NJR0P1LZW,3TYCR1GOTDMDNFIFNB8Y7NJR0P1LZW,267715,267715,,,,,,,,,,
,,,,3,10.004,0,2,2,354,1,a young boy in a blue striped shirt sitting with 4 other boys in a group.,a young boy in a purple striped shirt sitting with 4 other boys in a group.,wolfe1,image-089,1,41,A2Z6NL0CTXY0ZB,2021-01-07_07h49.05.160,MetaAwareness,2020.1.2,Win32,60,3FHTJGYT8O301Z4EZ98EFEHH50YPGE,A2Z6NL0CTXY0ZB,3TYCR1GOTDMDNFIFNB8Y7NJR0P1LZW,ORYT5,ORYT5,3TYCR1GOTDMDNFIFNB8Y7NJR0P1LZW,3TYCR1GOTDMDNFIFNB8Y7NJR0P1LZW,267715,267715,,,,,,,,,,
,,,,3,9.097,0,3,3,261,1,a group of people are listening to a man talk who is working holding a shovel and is putting dirt into a white bucket.,a group of people are listening to a man who is working holding a shovel.,wolfe1,image-046,7,41,A2Z6NL0CTXY0ZB,2021-01-07_07h49.05.160,MetaAwareness,2020.1.2,Win32,60,3FHTJGYT8O301Z4EZ98EFEHH50YPGE,A2Z6NL0CTXY0ZB,3TYCR1GOTDMDNFIFNB8Y7NJR0P1LZW,ORYT5,ORYT5,3TYCR1GOTDMDNFIFNB8Y7NJR0P1LZW,3TYCR1GOTDMDNFIFNB8Y7NJR0P1LZW,267715,267715,,,,,,,,,,
,,,,4,10.332,0,4,4,74,1,men in white shirts playing instruments outside of a building with a no loitering sign on the wall,men in white shirts playing instruments outside of a building with no signs on the wall,wolfe1,image-013,2,41,A2Z6NL0CTXY0ZB,2021-01-07_07h49.05.160,MetaAwareness,2020.1.2,Win32,60,3FHTJGYT8O301Z4EZ98EFEHH50YPGE,A2Z6NL0CTXY0ZB,3TYCR1GOTDMDNFIFNB8Y7NJR0P1LZW,ORYT5,ORYT5,3TYCR1GOTDMDNFIFNB8Y7NJR0P1LZW,3TYCR1GOTDMDNFIFNB8Y7NJR0P1LZW,267715,267715,,,,,,,,,,
,,,,4,12.269,0,5,5,320,1,a soccer play with one red and one torquoise shoe rens after another toward the ball,a soccer play with one red and one green shoe runs after another toward the ball,wolfe1,image-082,3,41,A2Z6NL0CTXY0ZB,2021-01-07_07h49.05.160,MetaAwareness,2020.1.2,Win32,60,3FHTJGYT8O301Z4EZ98EFEHH50YPGE,A2Z6NL0CTXY0ZB,3TYCR1GOTDMDNFIFNB8Y7NJR0P1LZW,ORYT5,ORYT5,3TYCR1GOTDMDNFIFNB8Y7NJR0P1LZW,3TYCR1GOTDMDNFIFNB8Y7NJR0P1LZW,267715,267715,,,,,,,,,,
,,,,4,5.367,0,6,6,446,1,a man sitting in a crowd wearing a tan shirt,a man sitting in a crowd wearing a pink shirt,wolfe1,image-105,2,41,A2Z6NL0CTXY0ZB,2021-01-07_07h49.05.160,MetaAwareness,2020.1.2,Win32,60,3FHTJGYT8O301Z4EZ98EFEHH50YPGE,A2Z6NL0CTXY0ZB,3TYCR1GOTDMDNFIFNB8Y7NJR0P1LZW,ORYT5,ORYT5,3TYCR1GOTDMDNFIFNB8Y7NJR0P1LZW,3TYCR1GOTDMDNFIFNB8Y7NJR0P1LZW,267715,267715,,,,,,,,,,
,,,,4,3.475,0,7,7,254,1,an empty field with 7 bails of hay scatterered around.,an empty field with 6 bails of hay scattered around.,wolfe1,image-045,6,41,A2Z6NL0CTXY0ZB,2021-01-07_07h49.05.160,MetaAwareness,2020.1.2,Win32,60,3FHTJGYT8O301Z4EZ98EFEHH50YPGE,A2Z6NL0CTXY0ZB,3TYCR1GOTDMDNFIFNB8Y7NJR0P1LZW,ORYT5,ORYT5,3TYCR1GOTDMDNFIFNB8Y7NJR0P1LZW,3TYCR1GOTDMDNFIFNB8Y7NJR0P1LZW,267715,267715,,,,,,,,,,
,,,,4,10.233,0,8,8,410,1,"a group of people walking into a building, one guy is wearing green shorts.","a group of people walking into a building, with one guy wearing brown shorts.",wolfe1,image-098,4,41,A2Z6NL0CTXY0ZB,2021-01-07_07h49.05.160,MetaAwareness,2020.1.2,Win32,60,3FHTJGYT8O301Z4EZ98EFEHH50YPGE,A2Z6NL0CTXY0ZB,3TYCR1GOTDMDNFIFNB8Y7NJR0P1LZW,ORYT5,ORYT5,3TYCR1GOTDMDNFIFNB8Y7NJR0P1LZW,3TYCR1GOTDMDNFIFNB8Y7NJR0P1LZW,267715,267715,,,,,,,,,,
,,,,4,10.119,0,9,9,357,1,five young men sittin in chairs including a young man in a blue and grey striped shirt,five young men sitting in chairs including a young man in a purple and grey striped shirt,wolfe1,image-089,4,41,A2Z6NL0CTXY0ZB,2021-01-07_07h49.05.160,MetaAwareness,2020.1.2,Win32,60,3FHTJGYT8O301Z4EZ98EFEHH50YPGE,A2Z6NL0CTXY0ZB,3TYCR1GOTDMDNFIFNB8Y7NJR0P1LZW,ORYT5,ORYT5,3TYCR1GOTDMDNFIFNB8Y7NJR0P1LZW,3TYCR1GOTDMDNFIFNB8Y7NJR0P1LZW,267715,267715,,,,,,,,,,
,,,,3,12.168,0,10,10,346,1,a yard sale with two people working and one peron shopping. there is a blue item on the table,"a yard sale with two people working and one person shopping, the same item is there in this image, but it is now purple instead of blue.",wolfe1,image-087,2,41,A2Z6NL0CTXY0ZB,2021-01-07_07h49.05.160,MetaAwareness,2020.1.2,Win32,60,3FHTJGYT8O301Z4EZ98EFEHH50YPGE,A2Z6NL0CTXY0ZB,3TYCR1GOTDMDNFIFNB8Y7NJR0P1LZW,ORYT5,ORYT5,3TYCR1GOTDMDNFIFNB8Y7NJR0P1LZW,3TYCR1GOTDMDNFIFNB8Y7NJR0P1LZW,267715,267715,,,,,,,,,,
,,,,2,4.826,0,11,11,43,1,"a woman petting a deer in an outdoor setting, in the background is a man dressed in black clothing",a woman petting a deer in an outdoor setting,wolfe1,image-008,2,41,A2Z6NL0CTXY0ZB,2021-01-07_07h49.05.160,MetaAwareness,2020.1.2,Win32,60,3FHTJGYT8O301Z4EZ98EFEHH50YPGE,A2Z6NL0CTXY0ZB,3TYCR1GOTDMDNFIFNB8Y7NJR0P1LZW,ORYT5,ORYT5,3TYCR1GOTDMDNFIFNB8Y7NJR0P1LZW,3TYCR1GOTDMDNFIFNB8Y7NJR0P1LZW,267715,267715,,,,,,,,,,
,,,,4,3.695,0,12,12,396,1,hiker walking along a trail next to a red flower.,hiker walking along a trail next to a yellow flower.,wolfe1,image-095,8,41,A2Z6NL0CTXY0ZB,2021-01-07_07h49.05.160,MetaAwareness,2020.1.2,Win32,60,3FHTJGYT8O301Z4EZ98EFEHH50YPGE,A2Z6NL0CTXY0ZB,3TYCR1GOTDMDNFIFNB8Y7NJR0P1LZW,ORYT5,ORYT5,3TYCR1GOTDMDNFIFNB8Y7NJR0P1LZW,3TYCR1GOTDMDNFIFNB8Y7NJR0P1LZW,267715,267715,,,,,,,,,,
,,,,4,2.617,0,13,13,219,1,a group of boys are playing basketball. there is a coachlight on the wall ,a group of boys are playing basketball. there is no coachlight on the wall. ,wolfe1,image-040,2,41,A2Z6NL0CTXY0ZB,2021-01-07_07h49.05.160,MetaAwareness,2020.1.2,Win32,60,3FHTJGYT8O301Z4EZ98EFEHH50YPGE,A2Z6NL0CTXY0ZB,3TYCR1GOTDMDNFIFNB8Y7NJR0P1LZW,ORYT5,ORYT5,3TYCR1GOTDMDNFIFNB8Y7NJR0P1LZW,3TYCR1GOTDMDNFIFNB8Y7NJR0P1LZW,267715,267715,,,,,,,,,,
,,,,3,10.787,0,14,14,170,1,adult boy scouts marching in a parade with one girl scout accompanying them and wearing a badge on the right side of her chest.,adult boy scouts marching in a parade with one girl scout accompanying them.,wolfe1,image-031,2,41,A2Z6NL0CTXY0ZB,2021-01-07_07h49.05.160,MetaAwareness,2020.1.2,Win32,60,3FHTJGYT8O301Z4EZ98EFEHH50YPGE,A2Z6NL0CTXY0ZB,3TYCR1GOTDMDNFIFNB8Y7NJR0P1LZW,ORYT5,ORYT5,3TYCR1GOTDMDNFIFNB8Y7NJR0P1LZW,3TYCR1GOTDMDNFIFNB8Y7NJR0P1LZW,267715,267715,,,,,,,,,,
,,,,4,3.322,0,15,15,277,1,a beach scene with a palm tree. one of the palm fronds is highlighted. ,a beach scene with a palm tree. one of the palm fronds is missing. ,wolfe1,image-049,4,41,A2Z6NL0CTXY0ZB,2021-01-07_07h49.05.160,MetaAwareness,2020.1.2,Win32,60,3FHTJGYT8O301Z4EZ98EFEHH50YPGE,A2Z6NL0CTXY0ZB,3TYCR1GOTDMDNFIFNB8Y7NJR0P1LZW,ORYT5,ORYT5,3TYCR1GOTDMDNFIFNB8Y7NJR0P1LZW,3TYCR1GOTDMDNFIFNB8Y7NJR0P1LZW,267715,267715,,,,,,,,,,
,,,,3,5.599,0,16,16,45,1,people at a petting zoo including a group of people in white shirts  and one in black at the rear of the zoo,people at a petting zoo including a group of people in white shirts at the rear of the zoo,wolfe1,image-008,4,41,A2Z6NL0CTXY0ZB,2021-01-07_07h49.05.160,MetaAwareness,2020.1.2,Win32,60,3FHTJGYT8O301Z4EZ98EFEHH50YPGE,A2Z6NL0CTXY0ZB,3TYCR1GOTDMDNFIFNB8Y7NJR0P1LZW,ORYT5,ORYT5,3TYCR1GOTDMDNFIFNB8Y7NJR0P1LZW,3TYCR1GOTDMDNFIFNB8Y7NJR0P1LZW,267715,267715,,,,,,,,,,
,,,,4,3.089,0,17,17,147,1,a brown cushion sitting on a large sectional bench,a white cushion sits on a large sectional bench,wolfe1,image-026,1,41,A2Z6NL0CTXY0ZB,2021-01-07_07h49.05.160,MetaAwareness,2020.1.2,Win32,60,3FHTJGYT8O301Z4EZ98EFEHH50YPGE,A2Z6NL0CTXY0ZB,3TYCR1GOTDMDNFIFNB8Y7NJR0P1LZW,ORYT5,ORYT5,3TYCR1GOTDMDNFIFNB8Y7NJR0P1LZW,3TYCR1GOTDMDNFIFNB8Y7NJR0P1LZW,267715,267715,,,,,,,,,,
,,,,4,5.126,0,18,18,154,1,people stand onthe street near benches that have drainage vents underneath.,people stand on the street near benches but the middle bench has no drainage vent.,wolfe1,image-027,4,41,A2Z6NL0CTXY0ZB,2021-01-07_07h49.05.160,MetaAwareness,2020.1.2,Win32,60,3FHTJGYT8O301Z4EZ98EFEHH50YPGE,A2Z6NL0CTXY0ZB,3TYCR1GOTDMDNFIFNB8Y7NJR0P1LZW,ORYT5,ORYT5,3TYCR1GOTDMDNFIFNB8Y7NJR0P1LZW,3TYCR1GOTDMDNFIFNB8Y7NJR0P1LZW,267715,267715,,,,,,,,,,
,,,,4,2.611,0,19,19,524,1,there is a yellow flag by the lake.,there is a red flag by the lake.,wolfe1,image-119,1,41,A2Z6NL0CTXY0ZB,2021-01-07_07h49.05.160,MetaAwareness,2020.1.2,Win32,60,3FHTJGYT8O301Z4EZ98EFEHH50YPGE,A2Z6NL0CTXY0ZB,3TYCR1GOTDMDNFIFNB8Y7NJR0P1LZW,ORYT5,ORYT5,3TYCR1GOTDMDNFIFNB8Y7NJR0P1LZW,3TYCR1GOTDMDNFIFNB8Y7NJR0P1LZW,267715,267715,,,,,,,,,,
,,,,4,3.523,0,20,20,303,1,a red sign is displayed in a busy shopping mall,a purple sign is displayed in a busy shopping mall,wolfe1,image-079,2,41,A2Z6NL0CTXY0ZB,2021-01-07_07h49.05.160,MetaAwareness,2020.1.2,Win32,60,3FHTJGYT8O301Z4EZ98EFEHH50YPGE,A2Z6NL0CTXY0ZB,3TYCR1GOTDMDNFIFNB8Y7NJR0P1LZW,ORYT5,ORYT5,3TYCR1GOTDMDNFIFNB8Y7NJR0P1LZW,3TYCR1GOTDMDNFIFNB8Y7NJR0P1LZW,267715,267715,,,,,,,,,,
,,,,5,8.817,0,21,21,162,1,bikes sit in front of a building with three front facing windows at the very top of the building,bikes sit in front of a building with two front facing windows at the very top of the building,wolfe1,image-029,2,41,A2Z6NL0CTXY0ZB,2021-01-07_07h49.05.160,MetaAwareness,2020.1.2,Win32,60,3FHTJGYT8O301Z4EZ98EFEHH50YPGE,A2Z6NL0CTXY0ZB,3TYCR1GOTDMDNFIFNB8Y7NJR0P1LZW,ORYT5,ORYT5,3TYCR1GOTDMDNFIFNB8Y7NJR0P1LZW,3TYCR1GOTDMDNFIFNB8Y7NJR0P1LZW,267715,267715,,,,,,,,,,
,,,,4,5.789,0,22,22,174,1,a woman with badges across her chest walks alongside her fellow ranger across the street,a woman with a badge on the left side of her chest walks alongside her fellow rangers across the street,wolfe1,image-031,6,41,A2Z6NL0CTXY0ZB,2021-01-07_07h49.05.160,MetaAwareness,2020.1.2,Win32,60,3FHTJGYT8O301Z4EZ98EFEHH50YPGE,A2Z6NL0CTXY0ZB,3TYCR1GOTDMDNFIFNB8Y7NJR0P1LZW,ORYT5,ORYT5,3TYCR1GOTDMDNFIFNB8Y7NJR0P1LZW,3TYCR1GOTDMDNFIFNB8Y7NJR0P1LZW,267715,267715,,,,,,,,,,
,,,,4,7.466,0,23,23,559,1,"two surveyors looking at their equipment, with a blue bag of it left on the streetside in case they need it.","two surveyors looking at their equipment, with a yellow bag of it left on the streetside in case they need it.",wolfe1,image-125,2,41,A2Z6NL0CTXY0ZB,2021-01-07_07h49.05.160,MetaAwareness,2020.1.2,Win32,60,3FHTJGYT8O301Z4EZ98EFEHH50YPGE,A2Z6NL0CTXY0ZB,3TYCR1GOTDMDNFIFNB8Y7NJR0P1LZW,ORYT5,ORYT5,3TYCR1GOTDMDNFIFNB8Y7NJR0P1LZW,3TYCR1GOTDMDNFIFNB8Y7NJR0P1LZW,267715,267715,,,,,,,,,,
,,,,4,8.414,0,24,24,409,1,people walking towards an ancient building with one man wearing green shorts,people walking towards an ancient building with one man wearing brown shorts,wolfe1,image-098,3,41,A2Z6NL0CTXY0ZB,2021-01-07_07h49.05.160,MetaAwareness,2020.1.2,Win32,60,3FHTJGYT8O301Z4EZ98EFEHH50YPGE,A2Z6NL0CTXY0ZB,3TYCR1GOTDMDNFIFNB8Y7NJR0P1LZW,ORYT5,ORYT5,3TYCR1GOTDMDNFIFNB8Y7NJR0P1LZW,3TYCR1GOTDMDNFIFNB8Y7NJR0P1LZW,267715,267715,,,,,,,,,,
,,,,4,7.585,0,25,25,385,1,"a couple walks down the quad on a college campus, with a woman wearing a backpack with a blue label","a couple walks down the quad on a college campus, with a woman wearing a backpack with a green label",wolfe1,image-094,6,41,A2Z6NL0CTXY0ZB,2021-01-07_07h49.05.160,MetaAwareness,2020.1.2,Win32,60,3FHTJGYT8O301Z4EZ98EFEHH50YPGE,A2Z6NL0CTXY0ZB,3TYCR1GOTDMDNFIFNB8Y7NJR0P1LZW,ORYT5,ORYT5,3TYCR1GOTDMDNFIFNB8Y7NJR0P1LZW,3TYCR1GOTDMDNFIFNB8Y7NJR0P1LZW,267715,267715,,,,,,,,,,
,,,,4,2.307,0,26,26,141,1,people walking around a car show including a man in a white shirt passing a trash can in front of a red car,people walking around a car show including a man in a white shirt passing in front of a red car,wolfe1,image-024,4,41,A2Z6NL0CTXY0ZB,2021-01-07_07h49.05.160,MetaAwareness,2020.1.2,Win32,60,3FHTJGYT8O301Z4EZ98EFEHH50YPGE,A2Z6NL0CTXY0ZB,3TYCR1GOTDMDNFIFNB8Y7NJR0P1LZW,ORYT5,ORYT5,3TYCR1GOTDMDNFIFNB8Y7NJR0P1LZW,3TYCR1GOTDMDNFIFNB8Y7NJR0P1LZW,267715,267715,,,,,,,,,,
,,,,4,274.531,0,27,27,263,1,people shoveling gravel outside of a home with a toy in the gravel,people shoveling gravel outside of a home,wolfe1,image-047,1,41,A2Z6NL0CTXY0ZB,2021-01-07_07h49.05.160,MetaAwareness,2020.1.2,Win32,60,3FHTJGYT8O301Z4EZ98EFEHH50YPGE,A2Z6NL0CTXY0ZB,3TYCR1GOTDMDNFIFNB8Y7NJR0P1LZW,ORYT5,ORYT5,3TYCR1GOTDMDNFIFNB8Y7NJR0P1LZW,3TYCR1GOTDMDNFIFNB8Y7NJR0P1LZW,267715,267715,,,,,,,,,,
,,,,6,9.829,0,28,28,435,1,a group of people walking down a sidewalk in the rain. the man in the black coat is wearing green shoes. ,a group of people walking down a sidewalk in the rain. the man in the black coat is wearing red shoes. ,wolfe1,image-103,5,41,A2Z6NL0CTXY0ZB,2021-01-07_07h49.05.160,MetaAwareness,2020.1.2,Win32,60,3FHTJGYT8O301Z4EZ98EFEHH50YPGE,A2Z6NL0CTXY0ZB,3TYCR1GOTDMDNFIFNB8Y7NJR0P1LZW,ORYT5,ORYT5,3TYCR1GOTDMDNFIFNB8Y7NJR0P1LZW,3TYCR1GOTDMDNFIFNB8Y7NJR0P1LZW,267715,267715,,,,,,,,,,
,,,,4,5.055,0,29,29,516,1,open air market with several white tents and one blue tent covering the products. ,open air market with several white tents and one rent tent covering the products,wolfe1,image-117,5,41,A2Z6NL0CTXY0ZB,2021-01-07_07h49.05.160,MetaAwareness,2020.1.2,Win32,60,3FHTJGYT8O301Z4EZ98EFEHH50YPGE,A2Z6NL0CTXY0ZB,3TYCR1GOTDMDNFIFNB8Y7NJR0P1LZW,ORYT5,ORYT5,3TYCR1GOTDMDNFIFNB8Y7NJR0P1LZW,3TYCR1GOTDMDNFIFNB8Y7NJR0P1LZW,267715,267715,,,,,,,,,,
,,,,,,,,,,,,,,,,41,A2Z6NL0CTXY0ZB,2021-01-07_07h49.05.160,MetaAwareness,2020.1.2,Win32,60,3FHTJGYT8O301Z4EZ98EFEHH50YPGE,A2Z6NL0CTXY0ZB,3TYCR1GOTDMDNFIFNB8Y7NJR0P1LZW,ORYT5,ORYT5,3TYCR1GOTDMDNFIFNB8Y7NJR0P1LZW,3TYCR1GOTDMDNFIFNB8Y7NJR0P1LZW,267715,267715,6,14.468,someone laying underneath a blue beach umbrella on a crowded beach,someone laying underneath a blue beach umbrella on a crowded beach,same,3,2.922,members of a marching band crossing a track that all have feather plumes at the front of their hats,a cluttered and rustic looking cafe with 10 hanging lights,different