consent_response.keys,consent_response.rt,key_resp_2.keys,key_resp_2.rt,user_resp.keys,user_resp.rt,trials.thisRepN,trials.thisTrialN,trials.thisN,trials.thisIndex,trials.ran,image_1_text,image_2_text,database,image,number,age,worker_ID,date,expName,psychopyVersion,OS,frameRate,hitId,workerId,assignmentId,a,tp_a,b,tp_b,c,tp_c,catch_same_resp.keys,catch_same_resp.rt,image_1_text_catch_same,image_2_text_catch_same,image_catch_same,catch_different_resp.keys,catch_different_resp.rt,image_1_text_catch_different,image_2_text_catch_different,image_catch_different
space,17.80769,space,4.19221,1,3.204035,0,0,0,400,1,a group of practicing singers practicing with a blue bin next to the pianist.,a group of singers practicing with a green bin next to the pianist. ,wolfe1,image-096,4,32,A30UZA3PZYJ21R,2021-01-07_09h28.47.353,MetaAwareness,2020.1.2,Win32,60,3X2YVV51PV7THTBCTC160LL7W8K1WN,A30UZA3PZYJ21R,3FPRZHYEPZAFYRNGG8FVQVCECS7V3V,EZPF5,EZPF5,3FPRZHYEPZAFYRNGG8FVQVCECS7V3V,3FPRZHYEPZAFYRNGG8FVQVCECS7V3V,267715,267715,,,,,,,,,,
,,,,6,4.086345,0,1,1,264,1, people digging in a yard with a small indistinguishable object near them,people digging in a yard with no small indistinguishable objects near them,wolfe1,image-047,2,32,A30UZA3PZYJ21R,2021-01-07_09h28.47.353,MetaAwareness,2020.1.2,Win32,60,3X2YVV51PV7THTBCTC160LL7W8K1WN,A30UZA3PZYJ21R,3FPRZHYEPZAFYRNGG8FVQVCECS7V3V,EZPF5,EZPF5,3FPRZHYEPZAFYRNGG8FVQVCECS7V3V,3FPRZHYEPZAFYRNGG8FVQVCECS7V3V,267715,267715,,,,,,,,,,
,,,,4,1.309185,0,2,2,188,1,people playing basketball outside with a blue awning ,people playing basketball outside with a tree in the background,wolfe1,image-033,6,32,A30UZA3PZYJ21R,2021-01-07_09h28.47.353,MetaAwareness,2020.1.2,Win32,60,3X2YVV51PV7THTBCTC160LL7W8K1WN,A30UZA3PZYJ21R,3FPRZHYEPZAFYRNGG8FVQVCECS7V3V,EZPF5,EZPF5,3FPRZHYEPZAFYRNGG8FVQVCECS7V3V,3FPRZHYEPZAFYRNGG8FVQVCECS7V3V,267715,267715,,,,,,,,,,
,,,,3,0.90714,0,3,3,153,1,people at an outdoor market in a park where some are sitting on concrete benches with small lights underneath. ,people at an outdoor market in a park where some are sitting on concrete benches with small lights underneath but one is missing the light. ,wolfe1,image-027,3,32,A30UZA3PZYJ21R,2021-01-07_09h28.47.353,MetaAwareness,2020.1.2,Win32,60,3X2YVV51PV7THTBCTC160LL7W8K1WN,A30UZA3PZYJ21R,3FPRZHYEPZAFYRNGG8FVQVCECS7V3V,EZPF5,EZPF5,3FPRZHYEPZAFYRNGG8FVQVCECS7V3V,3FPRZHYEPZAFYRNGG8FVQVCECS7V3V,267715,267715,,,,,,,,,,
,,,,6,1.1774,0,4,4,517,1,people shopping at a market with a man standing next to a tent with a blue top,people shopping at a market with a man standing next to a tent with a red top,wolfe1,image-117,6,32,A30UZA3PZYJ21R,2021-01-07_09h28.47.353,MetaAwareness,2020.1.2,Win32,60,3X2YVV51PV7THTBCTC160LL7W8K1WN,A30UZA3PZYJ21R,3FPRZHYEPZAFYRNGG8FVQVCECS7V3V,EZPF5,EZPF5,3FPRZHYEPZAFYRNGG8FVQVCECS7V3V,3FPRZHYEPZAFYRNGG8FVQVCECS7V3V,267715,267715,,,,,,,,,,
,,,,6,3.2686,0,5,5,371,1,a group of old people in a movement class with one old woman wearing a white pair of shoes,a group of old people in a movement class with one old woman wearing a pink pair of shoes,wolfe1,image-092,4,32,A30UZA3PZYJ21R,2021-01-07_09h28.47.353,MetaAwareness,2020.1.2,Win32,60,3X2YVV51PV7THTBCTC160LL7W8K1WN,A30UZA3PZYJ21R,3FPRZHYEPZAFYRNGG8FVQVCECS7V3V,EZPF5,EZPF5,3FPRZHYEPZAFYRNGG8FVQVCECS7V3V,3FPRZHYEPZAFYRNGG8FVQVCECS7V3V,267715,267715,,,,,,,,,,
,,,,5,1.354795,0,6,6,16,1,people gathered in a circle in a classroom with a window and blinds on the wall with a speaker below,people gathered in a circle in a classroom with a blank wall and a speaker behind them,wolfe1,image-003,6,32,A30UZA3PZYJ21R,2021-01-07_09h28.47.353,MetaAwareness,2020.1.2,Win32,60,3X2YVV51PV7THTBCTC160LL7W8K1WN,A30UZA3PZYJ21R,3FPRZHYEPZAFYRNGG8FVQVCECS7V3V,EZPF5,EZPF5,3FPRZHYEPZAFYRNGG8FVQVCECS7V3V,3FPRZHYEPZAFYRNGG8FVQVCECS7V3V,267715,267715,,,,,,,,,,
,,,,4,1.14994,0,7,7,310,1,"patrons sit near an outdoor bar, with a green umbrella nearby","patrons sit near an outdoor bar, with a purple umbrella nearby",wolfe1,image-080,3,32,A30UZA3PZYJ21R,2021-01-07_09h28.47.353,MetaAwareness,2020.1.2,Win32,60,3X2YVV51PV7THTBCTC160LL7W8K1WN,A30UZA3PZYJ21R,3FPRZHYEPZAFYRNGG8FVQVCECS7V3V,EZPF5,EZPF5,3FPRZHYEPZAFYRNGG8FVQVCECS7V3V,3FPRZHYEPZAFYRNGG8FVQVCECS7V3V,267715,267715,,,,,,,,,,
,,,,3,0.12786,0,8,8,528,1,a pond with a yellow sign.,a pond with a dark orange sign.,wolfe1,image-119,5,32,A30UZA3PZYJ21R,2021-01-07_09h28.47.353,MetaAwareness,2020.1.2,Win32,60,3X2YVV51PV7THTBCTC160LL7W8K1WN,A30UZA3PZYJ21R,3FPRZHYEPZAFYRNGG8FVQVCECS7V3V,EZPF5,EZPF5,3FPRZHYEPZAFYRNGG8FVQVCECS7V3V,3FPRZHYEPZAFYRNGG8FVQVCECS7V3V,267715,267715,,,,,,,,,,
,,,,1,1.59146,0,9,9,374,1,several students in a school gym taking part in an exercise class. one student is wearing pink pants.,"several students in a school gym taking part in an exercise class, one student is wearing blue pants.",wolfe1,image-093,1,32,A30UZA3PZYJ21R,2021-01-07_09h28.47.353,MetaAwareness,2020.1.2,Win32,60,3X2YVV51PV7THTBCTC160LL7W8K1WN,A30UZA3PZYJ21R,3FPRZHYEPZAFYRNGG8FVQVCECS7V3V,EZPF5,EZPF5,3FPRZHYEPZAFYRNGG8FVQVCECS7V3V,3FPRZHYEPZAFYRNGG8FVQVCECS7V3V,267715,267715,,,,,,,,,,
,,,,2,1.32321,0,10,10,221,1,a group of young men playing basketball in front of garage doors that have overhanging lights,"a group of young men playing basketball in front of garage doors, of which one has an overhanging light",wolfe1,image-040,4,32,A30UZA3PZYJ21R,2021-01-07_09h28.47.353,MetaAwareness,2020.1.2,Win32,60,3X2YVV51PV7THTBCTC160LL7W8K1WN,A30UZA3PZYJ21R,3FPRZHYEPZAFYRNGG8FVQVCECS7V3V,EZPF5,EZPF5,3FPRZHYEPZAFYRNGG8FVQVCECS7V3V,3FPRZHYEPZAFYRNGG8FVQVCECS7V3V,267715,267715,,,,,,,,,,
,,,,3,1.14283,0,11,11,144,1,this is an outdoor market with people walking about on a nice day and there are umbreallas coverins stalls and a coniferous tree in the background,"a nice day with an outdoor market and covered stalls with blue sky and part of a couple umbrellas, one green and one orange in front of the sky",wolfe1,image-025,3,32,A30UZA3PZYJ21R,2021-01-07_09h28.47.353,MetaAwareness,2020.1.2,Win32,60,3X2YVV51PV7THTBCTC160LL7W8K1WN,A30UZA3PZYJ21R,3FPRZHYEPZAFYRNGG8FVQVCECS7V3V,EZPF5,EZPF5,3FPRZHYEPZAFYRNGG8FVQVCECS7V3V,3FPRZHYEPZAFYRNGG8FVQVCECS7V3V,267715,267715,,,,,,,,,,
,,,,4,1.282375,0,12,12,268,1,men spreading gravel with an orange object near the shovel ,men spreading gravel without an orange object near the shovel,wolfe1,image-047,6,32,A30UZA3PZYJ21R,2021-01-07_09h28.47.353,MetaAwareness,2020.1.2,Win32,60,3X2YVV51PV7THTBCTC160LL7W8K1WN,A30UZA3PZYJ21R,3FPRZHYEPZAFYRNGG8FVQVCECS7V3V,EZPF5,EZPF5,3FPRZHYEPZAFYRNGG8FVQVCECS7V3V,3FPRZHYEPZAFYRNGG8FVQVCECS7V3V,267715,267715,,,,,,,,,,
,,,,6,1.28189,0,13,13,627,1,a deck patio with a blue house in the background,a deck patio with a pink house in the background,wolfe1,image-136,5,32,A30UZA3PZYJ21R,2021-01-07_09h28.47.353,MetaAwareness,2020.1.2,Win32,60,3X2YVV51PV7THTBCTC160LL7W8K1WN,A30UZA3PZYJ21R,3FPRZHYEPZAFYRNGG8FVQVCECS7V3V,EZPF5,EZPF5,3FPRZHYEPZAFYRNGG8FVQVCECS7V3V,3FPRZHYEPZAFYRNGG8FVQVCECS7V3V,267715,267715,,,,,,,,,,
,,,,5,1.15091,0,14,14,441,1,"a group of doctors and or nurses are in a meeting room having a discussion, and one of the men is wearing a light blue button-down dress shirt","a group of doctors and or nurses are in a meeting room having a discussion, and one of the men is wearing a light green button-down dress shirt",wolfe1,image-104,6,32,A30UZA3PZYJ21R,2021-01-07_09h28.47.353,MetaAwareness,2020.1.2,Win32,60,3X2YVV51PV7THTBCTC160LL7W8K1WN,A30UZA3PZYJ21R,3FPRZHYEPZAFYRNGG8FVQVCECS7V3V,EZPF5,EZPF5,3FPRZHYEPZAFYRNGG8FVQVCECS7V3V,3FPRZHYEPZAFYRNGG8FVQVCECS7V3V,267715,267715,,,,,,,,,,
,,,,4,1.21656,0,15,15,303,1,a red sign is displayed in a busy shopping mall,a purple sign is displayed in a busy shopping mall,wolfe1,image-079,2,32,A30UZA3PZYJ21R,2021-01-07_09h28.47.353,MetaAwareness,2020.1.2,Win32,60,3X2YVV51PV7THTBCTC160LL7W8K1WN,A30UZA3PZYJ21R,3FPRZHYEPZAFYRNGG8FVQVCECS7V3V,EZPF5,EZPF5,3FPRZHYEPZAFYRNGG8FVQVCECS7V3V,3FPRZHYEPZAFYRNGG8FVQVCECS7V3V,267715,267715,,,,,,,,,,
,,,,3,1.093265,0,16,16,340,1,several children are playing in a grass field together.the child furthest away is wearing a red shirt.,several children are playing in a grass frield toether. the child furthest away is wearing a purple shirt,wolfe1,image-086,1,32,A30UZA3PZYJ21R,2021-01-07_09h28.47.353,MetaAwareness,2020.1.2,Win32,60,3X2YVV51PV7THTBCTC160LL7W8K1WN,A30UZA3PZYJ21R,3FPRZHYEPZAFYRNGG8FVQVCECS7V3V,EZPF5,EZPF5,3FPRZHYEPZAFYRNGG8FVQVCECS7V3V,3FPRZHYEPZAFYRNGG8FVQVCECS7V3V,267715,267715,,,,,,,,,,
,,,,6,1.238705,0,17,17,461,1,a basket of candles with a variety of colors including blue are at a shrine.,a basket of candles with a variety of colors including purple are at a shrine.,wolfe1,image-107,7,32,A30UZA3PZYJ21R,2021-01-07_09h28.47.353,MetaAwareness,2020.1.2,Win32,60,3X2YVV51PV7THTBCTC160LL7W8K1WN,A30UZA3PZYJ21R,3FPRZHYEPZAFYRNGG8FVQVCECS7V3V,EZPF5,EZPF5,3FPRZHYEPZAFYRNGG8FVQVCECS7V3V,3FPRZHYEPZAFYRNGG8FVQVCECS7V3V,267715,267715,,,,,,,,,,
,,,,5,1.209965,0,18,18,634,1,picnic tables are set up on the beach with three blue and three yellow beach umbrellas,picnic tables are set up on the beach with two blue and four yellow beach umbrellas,wolfe1,image-137,5,32,A30UZA3PZYJ21R,2021-01-07_09h28.47.353,MetaAwareness,2020.1.2,Win32,60,3X2YVV51PV7THTBCTC160LL7W8K1WN,A30UZA3PZYJ21R,3FPRZHYEPZAFYRNGG8FVQVCECS7V3V,EZPF5,EZPF5,3FPRZHYEPZAFYRNGG8FVQVCECS7V3V,3FPRZHYEPZAFYRNGG8FVQVCECS7V3V,267715,267715,,,,,,,,,,
,,,,4,1.927335,0,19,19,388,1,a male and female student walking together and her backpack has a blue sticker,a male and female student waking together and her backpack has a green sticker,wolfe1,image-094,9,32,A30UZA3PZYJ21R,2021-01-07_09h28.47.353,MetaAwareness,2020.1.2,Win32,60,3X2YVV51PV7THTBCTC160LL7W8K1WN,A30UZA3PZYJ21R,3FPRZHYEPZAFYRNGG8FVQVCECS7V3V,EZPF5,EZPF5,3FPRZHYEPZAFYRNGG8FVQVCECS7V3V,3FPRZHYEPZAFYRNGG8FVQVCECS7V3V,267715,267715,,,,,,,,,,
,,,,5,1.09842,0,20,20,88,1,two men with a bird mascot and a recycle bin and an art piece behind them,two men with a bird mascot and an art piece behind them,wolfe1,image-015,4,32,A30UZA3PZYJ21R,2021-01-07_09h28.47.353,MetaAwareness,2020.1.2,Win32,60,3X2YVV51PV7THTBCTC160LL7W8K1WN,A30UZA3PZYJ21R,3FPRZHYEPZAFYRNGG8FVQVCECS7V3V,EZPF5,EZPF5,3FPRZHYEPZAFYRNGG8FVQVCECS7V3V,3FPRZHYEPZAFYRNGG8FVQVCECS7V3V,267715,267715,,,,,,,,,,
,,,,6,1.22703,0,21,21,617,1,"a group of people on a sunny day walk along a boardwalk next to businesses, and there is a woman wearing a red shirt near the tropicana building","a group of people on a sunny day walk along a boardwalk next to businesses, and there is a woman wearing a blue shirt near the topicana building",wolfe1,image-134,5,32,A30UZA3PZYJ21R,2021-01-07_09h28.47.353,MetaAwareness,2020.1.2,Win32,60,3X2YVV51PV7THTBCTC160LL7W8K1WN,A30UZA3PZYJ21R,3FPRZHYEPZAFYRNGG8FVQVCECS7V3V,EZPF5,EZPF5,3FPRZHYEPZAFYRNGG8FVQVCECS7V3V,3FPRZHYEPZAFYRNGG8FVQVCECS7V3V,267715,267715,,,,,,,,,,
,,,,5,0.9388,0,22,22,520,1,"a group of people hang around some playground equipment, including someone with a red backpack","a group of people hang around some playground equipment, including someone wwith an orange backpack.",wolfe1,image-118,2,32,A30UZA3PZYJ21R,2021-01-07_09h28.47.353,MetaAwareness,2020.1.2,Win32,60,3X2YVV51PV7THTBCTC160LL7W8K1WN,A30UZA3PZYJ21R,3FPRZHYEPZAFYRNGG8FVQVCECS7V3V,EZPF5,EZPF5,3FPRZHYEPZAFYRNGG8FVQVCECS7V3V,3FPRZHYEPZAFYRNGG8FVQVCECS7V3V,267715,267715,,,,,,,,,,
,,,,4,1.122225,0,23,23,83,1,a large concert in an outdoor tent with a lot of people sitting on the ground and a baby in the grass alone,a large concert in an outdoor tent with a lot people sitting on the ground. there is no baby in the grass in this image,wolfe1,image-014,7,32,A30UZA3PZYJ21R,2021-01-07_09h28.47.353,MetaAwareness,2020.1.2,Win32,60,3X2YVV51PV7THTBCTC160LL7W8K1WN,A30UZA3PZYJ21R,3FPRZHYEPZAFYRNGG8FVQVCECS7V3V,EZPF5,EZPF5,3FPRZHYEPZAFYRNGG8FVQVCECS7V3V,3FPRZHYEPZAFYRNGG8FVQVCECS7V3V,267715,267715,,,,,,,,,,
,,,,5,1.278285,0,24,24,611,1,an outdoor lounge area with a red and black striped surfboard in the background,an outdoor lounge area with a yellow and green striped surfboard,wolfe1,image-133,7,32,A30UZA3PZYJ21R,2021-01-07_09h28.47.353,MetaAwareness,2020.1.2,Win32,60,3X2YVV51PV7THTBCTC160LL7W8K1WN,A30UZA3PZYJ21R,3FPRZHYEPZAFYRNGG8FVQVCECS7V3V,EZPF5,EZPF5,3FPRZHYEPZAFYRNGG8FVQVCECS7V3V,3FPRZHYEPZAFYRNGG8FVQVCECS7V3V,267715,267715,,,,,,,,,,
,,,,6,1.19567,0,25,25,342,1,children are playing in a grassy field while a kid in a red shirt sits behind them,children are playing in a grassy fiel while a kid in purple sits behind them,wolfe1,image-086,3,32,A30UZA3PZYJ21R,2021-01-07_09h28.47.353,MetaAwareness,2020.1.2,Win32,60,3X2YVV51PV7THTBCTC160LL7W8K1WN,A30UZA3PZYJ21R,3FPRZHYEPZAFYRNGG8FVQVCECS7V3V,EZPF5,EZPF5,3FPRZHYEPZAFYRNGG8FVQVCECS7V3V,3FPRZHYEPZAFYRNGG8FVQVCECS7V3V,267715,267715,,,,,,,,,,
,,,,5,1.15964,0,26,26,348,1,"a woman browses a table at a yard sale, ignoring the blue plastic toy to her right on the table.","a woman browses a table at a yard sale, ignoring the purple plastic toy to her right on the table.",wolfe1,image-087,4,32,A30UZA3PZYJ21R,2021-01-07_09h28.47.353,MetaAwareness,2020.1.2,Win32,60,3X2YVV51PV7THTBCTC160LL7W8K1WN,A30UZA3PZYJ21R,3FPRZHYEPZAFYRNGG8FVQVCECS7V3V,EZPF5,EZPF5,3FPRZHYEPZAFYRNGG8FVQVCECS7V3V,3FPRZHYEPZAFYRNGG8FVQVCECS7V3V,267715,267715,,,,,,,,,,
,,,,4,1.20193,0,27,27,435,1,a group of people walking down a sidewalk in the rain. the man in the black coat is wearing green shoes. ,a group of people walking down a sidewalk in the rain. the man in the black coat is wearing red shoes. ,wolfe1,image-103,5,32,A30UZA3PZYJ21R,2021-01-07_09h28.47.353,MetaAwareness,2020.1.2,Win32,60,3X2YVV51PV7THTBCTC160LL7W8K1WN,A30UZA3PZYJ21R,3FPRZHYEPZAFYRNGG8FVQVCECS7V3V,EZPF5,EZPF5,3FPRZHYEPZAFYRNGG8FVQVCECS7V3V,3FPRZHYEPZAFYRNGG8FVQVCECS7V3V,267715,267715,,,,,,,,,,
,,,,5,1.14567,0,28,28,103,1,four men playing golf and the current golfer has something behind him.,four men playing golf,wolfe1,image-017,9,32,A30UZA3PZYJ21R,2021-01-07_09h28.47.353,MetaAwareness,2020.1.2,Win32,60,3X2YVV51PV7THTBCTC160LL7W8K1WN,A30UZA3PZYJ21R,3FPRZHYEPZAFYRNGG8FVQVCECS7V3V,EZPF5,EZPF5,3FPRZHYEPZAFYRNGG8FVQVCECS7V3V,3FPRZHYEPZAFYRNGG8FVQVCECS7V3V,267715,267715,,,,,,,,,,
,,,,6,1.20184,0,29,29,490,1,people walking downtown with one person looking at a turquios shop with red shades ,people walking downtown with one person looking at a turquois shop with yellow shades,wolfe1,image-113,1,32,A30UZA3PZYJ21R,2021-01-07_09h28.47.353,MetaAwareness,2020.1.2,Win32,60,3X2YVV51PV7THTBCTC160LL7W8K1WN,A30UZA3PZYJ21R,3FPRZHYEPZAFYRNGG8FVQVCECS7V3V,EZPF5,EZPF5,3FPRZHYEPZAFYRNGG8FVQVCECS7V3V,3FPRZHYEPZAFYRNGG8FVQVCECS7V3V,267715,267715,,,,,,,,,,
,,,,,,,,,,,,,,,,32,A30UZA3PZYJ21R,2021-01-07_09h28.47.353,MetaAwareness,2020.1.2,Win32,60,3X2YVV51PV7THTBCTC160LL7W8K1WN,A30UZA3PZYJ21R,3FPRZHYEPZAFYRNGG8FVQVCECS7V3V,EZPF5,EZPF5,3FPRZHYEPZAFYRNGG8FVQVCECS7V3V,3FPRZHYEPZAFYRNGG8FVQVCECS7V3V,267715,267715,5,1.21367,someone laying underneath a blue beach umbrella on a crowded beach,someone laying underneath a blue beach umbrella on a crowded beach,same,4,1.110845,members of a marching band crossing a track that all have feather plumes at the front of their hats,a cluttered and rustic looking cafe with 10 hanging lights,different