consent_response.keys,consent_response.rt,key_resp_2.keys,key_resp_2.rt,user_resp.keys,user_resp.rt,trials.thisRepN,trials.thisTrialN,trials.thisN,trials.thisIndex,trials.ran,image_1_text,image_2_text,database,image,number,age,worker_ID,date,expName,psychopyVersion,OS,frameRate,hitId,workerId,assignmentId,a,tp_a,b,tp_b,c,tp_c,catch_same_resp.keys,catch_same_resp.rt,image_1_text_catch_same,image_2_text_catch_same,image_catch_same,catch_different_resp.keys,catch_different_resp.rt,image_1_text_catch_different,image_2_text_catch_different,image_catch_different
space,38.37243,space,19.76036,4,9.724475,0,0,0,260,1,a white object sticks out of the ground as locals are gathered to aid in digging a hole in the ground,locals gather to aid in digging a hole in the ground,wolfe1,image-046,6,46,A3FGT6EU39C6S4,2021-01-07_10h39.07.848,MetaAwareness,2020.1.2,Win32,60,3BVS8WK9Q1YCTW9Z6SQG56P839GIBJ,A3FGT6EU39C6S4,3WQ3B2KGE9J4FABVONAC1Q3ABGWB1W,GBQW5,GBQW5,3WQ3B2KGE9J4FABVONAC1Q3ABGWB1W,3WQ3B2KGE9J4FABVONAC1Q3ABGWB1W,267715,267715,,,,,,,,,,
,,,,5,12.32492,0,1,1,192,1,a patio at the back of a house with a walkway of 6 stone slabs leading to a sitting area,a patio at the back of a house with a walkway of 5 stone slabs leading to a sitting area,wolfe1,image-034,3,46,A3FGT6EU39C6S4,2021-01-07_10h39.07.848,MetaAwareness,2020.1.2,Win32,60,3BVS8WK9Q1YCTW9Z6SQG56P839GIBJ,A3FGT6EU39C6S4,3WQ3B2KGE9J4FABVONAC1Q3ABGWB1W,GBQW5,GBQW5,3WQ3B2KGE9J4FABVONAC1Q3ABGWB1W,3WQ3B2KGE9J4FABVONAC1Q3ABGWB1W,267715,267715,,,,,,,,,,
,,,,4,6.395435,0,2,2,502,1,there is a green chair,there is a purple chair,wolfe1,image-115,2,46,A3FGT6EU39C6S4,2021-01-07_10h39.07.848,MetaAwareness,2020.1.2,Win32,60,3BVS8WK9Q1YCTW9Z6SQG56P839GIBJ,A3FGT6EU39C6S4,3WQ3B2KGE9J4FABVONAC1Q3ABGWB1W,GBQW5,GBQW5,3WQ3B2KGE9J4FABVONAC1Q3ABGWB1W,3WQ3B2KGE9J4FABVONAC1Q3ABGWB1W,267715,267715,,,,,,,,,,
,,,,3,11.366375,0,3,3,76,1,band in no smoking area,band in available smoking area,wolfe1,image-013,4,46,A3FGT6EU39C6S4,2021-01-07_10h39.07.848,MetaAwareness,2020.1.2,Win32,60,3BVS8WK9Q1YCTW9Z6SQG56P839GIBJ,A3FGT6EU39C6S4,3WQ3B2KGE9J4FABVONAC1Q3ABGWB1W,GBQW5,GBQW5,3WQ3B2KGE9J4FABVONAC1Q3ABGWB1W,3WQ3B2KGE9J4FABVONAC1Q3ABGWB1W,267715,267715,,,,,,,,,,
,,,,4,53.720735,0,4,4,144,1,this is an outdoor market with people walking about on a nice day and there are umbreallas coverins stalls and a coniferous tree in the background,"a nice day with an outdoor market and covered stalls with blue sky and part of a couple umbrellas, one green and one orange in front of the sky",wolfe1,image-025,3,46,A3FGT6EU39C6S4,2021-01-07_10h39.07.848,MetaAwareness,2020.1.2,Win32,60,3BVS8WK9Q1YCTW9Z6SQG56P839GIBJ,A3FGT6EU39C6S4,3WQ3B2KGE9J4FABVONAC1Q3ABGWB1W,GBQW5,GBQW5,3WQ3B2KGE9J4FABVONAC1Q3ABGWB1W,3WQ3B2KGE9J4FABVONAC1Q3ABGWB1W,267715,267715,,,,,,,,,,
,,,,4,8.495465,0,5,5,67,1,a grotto with a fire pit ,a grotto without a firepit,wolfe1,image-012,3,46,A3FGT6EU39C6S4,2021-01-07_10h39.07.848,MetaAwareness,2020.1.2,Win32,60,3BVS8WK9Q1YCTW9Z6SQG56P839GIBJ,A3FGT6EU39C6S4,3WQ3B2KGE9J4FABVONAC1Q3ABGWB1W,GBQW5,GBQW5,3WQ3B2KGE9J4FABVONAC1Q3ABGWB1W,3WQ3B2KGE9J4FABVONAC1Q3ABGWB1W,267715,267715,,,,,,,,,,
,,,,5,8.872195,0,6,6,172,1,a parade of people are on the stree and the girl has a badge on her right chest,a parade of people are on the street and the girl has no badge on her right chest,wolfe1,image-031,4,46,A3FGT6EU39C6S4,2021-01-07_10h39.07.848,MetaAwareness,2020.1.2,Win32,60,3BVS8WK9Q1YCTW9Z6SQG56P839GIBJ,A3FGT6EU39C6S4,3WQ3B2KGE9J4FABVONAC1Q3ABGWB1W,GBQW5,GBQW5,3WQ3B2KGE9J4FABVONAC1Q3ABGWB1W,3WQ3B2KGE9J4FABVONAC1Q3ABGWB1W,267715,267715,,,,,,,,,,
,,,,5,11.05268,0,7,7,421,1,kids enjoying themselves on a swing set. a girl in pink shirt is off to the side watching everyone. ,kids enjoying themselves on a swing set. a girl in a yellow shirt is off to the side watching everyone. ,wolfe1,image-101,2,46,A3FGT6EU39C6S4,2021-01-07_10h39.07.848,MetaAwareness,2020.1.2,Win32,60,3BVS8WK9Q1YCTW9Z6SQG56P839GIBJ,A3FGT6EU39C6S4,3WQ3B2KGE9J4FABVONAC1Q3ABGWB1W,GBQW5,GBQW5,3WQ3B2KGE9J4FABVONAC1Q3ABGWB1W,3WQ3B2KGE9J4FABVONAC1Q3ABGWB1W,267715,267715,,,,,,,,,,
,,,,5,6.902465,0,8,8,337,1,at an outdoor restaurant near the beach a man in a purple hat looks out towards the ocean. ,at an outdoor restaurant near the beach a man in a green hat looks out towards the ocean. ,wolfe1,image-085,2,46,A3FGT6EU39C6S4,2021-01-07_10h39.07.848,MetaAwareness,2020.1.2,Win32,60,3BVS8WK9Q1YCTW9Z6SQG56P839GIBJ,A3FGT6EU39C6S4,3WQ3B2KGE9J4FABVONAC1Q3ABGWB1W,GBQW5,GBQW5,3WQ3B2KGE9J4FABVONAC1Q3ABGWB1W,3WQ3B2KGE9J4FABVONAC1Q3ABGWB1W,267715,267715,,,,,,,,,,
,,,,5,7.638665,0,9,9,474,1,a city street with multicolored buildings and a red billboard next to one another.,a city street with multicolored buildings and a blue billboard next to one another. ,wolfe1,image-110,2,46,A3FGT6EU39C6S4,2021-01-07_10h39.07.848,MetaAwareness,2020.1.2,Win32,60,3BVS8WK9Q1YCTW9Z6SQG56P839GIBJ,A3FGT6EU39C6S4,3WQ3B2KGE9J4FABVONAC1Q3ABGWB1W,GBQW5,GBQW5,3WQ3B2KGE9J4FABVONAC1Q3ABGWB1W,3WQ3B2KGE9J4FABVONAC1Q3ABGWB1W,267715,267715,,,,,,,,,,
,,,,4,10.484515,0,10,10,59,1,a large room with table and a box plant and a chair off to the side.,a large room with table that doesn't have plant and has a chair and picture.,wolfe1,image-011,2,46,A3FGT6EU39C6S4,2021-01-07_10h39.07.848,MetaAwareness,2020.1.2,Win32,60,3BVS8WK9Q1YCTW9Z6SQG56P839GIBJ,A3FGT6EU39C6S4,3WQ3B2KGE9J4FABVONAC1Q3ABGWB1W,GBQW5,GBQW5,3WQ3B2KGE9J4FABVONAC1Q3ABGWB1W,3WQ3B2KGE9J4FABVONAC1Q3ABGWB1W,267715,267715,,,,,,,,,,
,,,,6,7.44935,0,11,11,180,1,a family is feeding birds that surround them in front of a landmark,a family is feeding birds in front of them in front of a landmark,wolfe1,image-032,5,46,A3FGT6EU39C6S4,2021-01-07_10h39.07.848,MetaAwareness,2020.1.2,Win32,60,3BVS8WK9Q1YCTW9Z6SQG56P839GIBJ,A3FGT6EU39C6S4,3WQ3B2KGE9J4FABVONAC1Q3ABGWB1W,GBQW5,GBQW5,3WQ3B2KGE9J4FABVONAC1Q3ABGWB1W,3WQ3B2KGE9J4FABVONAC1Q3ABGWB1W,267715,267715,,,,,,,,,,
,,,,5,11.55052,0,12,12,584,1,a group of people are standing around on a sidewalk while one woman in blue jeans is looking at what she is holding.,a group of people are standing around on the sidewalk while a woman in grey pants is looking at what she is holding.,wolfe1,image-129,8,46,A3FGT6EU39C6S4,2021-01-07_10h39.07.848,MetaAwareness,2020.1.2,Win32,60,3BVS8WK9Q1YCTW9Z6SQG56P839GIBJ,A3FGT6EU39C6S4,3WQ3B2KGE9J4FABVONAC1Q3ABGWB1W,GBQW5,GBQW5,3WQ3B2KGE9J4FABVONAC1Q3ABGWB1W,3WQ3B2KGE9J4FABVONAC1Q3ABGWB1W,267715,267715,,,,,,,,,,
,,,,4,16.492245,0,13,13,119,1,"a group of people are sitting on towels and blankets in the grass, waiting for something, with a pink and white striped blanket in the center of the image.","a group of people are sitting on towels and blankets in the grass, waiting for something, with there being no blanket in the center of the image.",wolfe1,image-020,4,46,A3FGT6EU39C6S4,2021-01-07_10h39.07.848,MetaAwareness,2020.1.2,Win32,60,3BVS8WK9Q1YCTW9Z6SQG56P839GIBJ,A3FGT6EU39C6S4,3WQ3B2KGE9J4FABVONAC1Q3ABGWB1W,GBQW5,GBQW5,3WQ3B2KGE9J4FABVONAC1Q3ABGWB1W,3WQ3B2KGE9J4FABVONAC1Q3ABGWB1W,267715,267715,,,,,,,,,,
,,,,4,8.82269,0,14,14,499,1,three men pose for a picture with a blue wooden structure behind them,three men pose for a picture with a yellow wooden structure behind them,wolfe1,image-114,3,46,A3FGT6EU39C6S4,2021-01-07_10h39.07.848,MetaAwareness,2020.1.2,Win32,60,3BVS8WK9Q1YCTW9Z6SQG56P839GIBJ,A3FGT6EU39C6S4,3WQ3B2KGE9J4FABVONAC1Q3ABGWB1W,GBQW5,GBQW5,3WQ3B2KGE9J4FABVONAC1Q3ABGWB1W,3WQ3B2KGE9J4FABVONAC1Q3ABGWB1W,267715,267715,,,,,,,,,,
,,,,6,7.902765,0,15,15,125,1,"three women are aiming bows, preparing to fire. there is an extra quiver of arrors at the far end of the row.","three women are aiming bows, readying to fire their arrows.",wolfe1,image-021,3,46,A3FGT6EU39C6S4,2021-01-07_10h39.07.848,MetaAwareness,2020.1.2,Win32,60,3BVS8WK9Q1YCTW9Z6SQG56P839GIBJ,A3FGT6EU39C6S4,3WQ3B2KGE9J4FABVONAC1Q3ABGWB1W,GBQW5,GBQW5,3WQ3B2KGE9J4FABVONAC1Q3ABGWB1W,3WQ3B2KGE9J4FABVONAC1Q3ABGWB1W,267715,267715,,,,,,,,,,
,,,,5,10.11224,0,16,16,11,1,"a group of people are having a discussion in a classroom, there is a curtain over the window in the room.",a group of people are sitting in a classroom having a discussion.,wolfe1,image-003,1,46,A3FGT6EU39C6S4,2021-01-07_10h39.07.848,MetaAwareness,2020.1.2,Win32,60,3BVS8WK9Q1YCTW9Z6SQG56P839GIBJ,A3FGT6EU39C6S4,3WQ3B2KGE9J4FABVONAC1Q3ABGWB1W,GBQW5,GBQW5,3WQ3B2KGE9J4FABVONAC1Q3ABGWB1W,3WQ3B2KGE9J4FABVONAC1Q3ABGWB1W,267715,267715,,,,,,,,,,
,,,,6,9.35689,0,17,17,35,1,"a luxurious and modern hotel room that features many appliances, such as a microwave, tv, refridgerator, and more","a luxurios and mdern hotel room that featuresa few appliances, such as a refridgerator, tv, and more",wolfe1,image-006,5,46,A3FGT6EU39C6S4,2021-01-07_10h39.07.848,MetaAwareness,2020.1.2,Win32,60,3BVS8WK9Q1YCTW9Z6SQG56P839GIBJ,A3FGT6EU39C6S4,3WQ3B2KGE9J4FABVONAC1Q3ABGWB1W,GBQW5,GBQW5,3WQ3B2KGE9J4FABVONAC1Q3ABGWB1W,3WQ3B2KGE9J4FABVONAC1Q3ABGWB1W,267715,267715,,,,,,,,,,
,,,,5,8.19513,0,18,18,561,1,"construction workers set up surveying equipment, while an onlooker stands next to a blue bag","construction workers set up surveying equipment, while an onlooker stands next to a green bag",wolfe1,image-125,4,46,A3FGT6EU39C6S4,2021-01-07_10h39.07.848,MetaAwareness,2020.1.2,Win32,60,3BVS8WK9Q1YCTW9Z6SQG56P839GIBJ,A3FGT6EU39C6S4,3WQ3B2KGE9J4FABVONAC1Q3ABGWB1W,GBQW5,GBQW5,3WQ3B2KGE9J4FABVONAC1Q3ABGWB1W,3WQ3B2KGE9J4FABVONAC1Q3ABGWB1W,267715,267715,,,,,,,,,,
,,,,5,6.1776,0,19,19,446,1,a man sitting in a crowd wearing a tan shirt,a man sitting in a crowd wearing a pink shirt,wolfe1,image-105,2,46,A3FGT6EU39C6S4,2021-01-07_10h39.07.848,MetaAwareness,2020.1.2,Win32,60,3BVS8WK9Q1YCTW9Z6SQG56P839GIBJ,A3FGT6EU39C6S4,3WQ3B2KGE9J4FABVONAC1Q3ABGWB1W,GBQW5,GBQW5,3WQ3B2KGE9J4FABVONAC1Q3ABGWB1W,3WQ3B2KGE9J4FABVONAC1Q3ABGWB1W,267715,267715,,,,,,,,,,
,,,,5,7.8596,0,20,20,195,1,the backyard of a home with green grass and six stones to walk on in the grass. ,the backyard of a home with green grass and five stones to walk on in the grass.,wolfe1,image-034,6,46,A3FGT6EU39C6S4,2021-01-07_10h39.07.848,MetaAwareness,2020.1.2,Win32,60,3BVS8WK9Q1YCTW9Z6SQG56P839GIBJ,A3FGT6EU39C6S4,3WQ3B2KGE9J4FABVONAC1Q3ABGWB1W,GBQW5,GBQW5,3WQ3B2KGE9J4FABVONAC1Q3ABGWB1W,3WQ3B2KGE9J4FABVONAC1Q3ABGWB1W,267715,267715,,,,,,,,,,
,,,,5,10.08718,0,21,21,505,1,there is a small concert happening on a lawn. many people are watching. there is a green chair facing the stage on the left side.,there is a small concert happening on a lawn. many people are watching. there is a purple chair facing the stage on the left side.,wolfe1,image-115,5,46,A3FGT6EU39C6S4,2021-01-07_10h39.07.848,MetaAwareness,2020.1.2,Win32,60,3BVS8WK9Q1YCTW9Z6SQG56P839GIBJ,A3FGT6EU39C6S4,3WQ3B2KGE9J4FABVONAC1Q3ABGWB1W,GBQW5,GBQW5,3WQ3B2KGE9J4FABVONAC1Q3ABGWB1W,3WQ3B2KGE9J4FABVONAC1Q3ABGWB1W,267715,267715,,,,,,,,,,
,,,,5,12.557315,0,22,22,419,1,"there is a pop up gazebo in the middle of a camping area. in the background, there are large trees, a camper, and red and blue towels hanging on a line attached to the trees.","there is a pop up gazebo in the middle of a camping area. in the background, there are large trees, a camper, and red towels that are hanging from a line attached to the trees.",wolfe1,image-100,4,46,A3FGT6EU39C6S4,2021-01-07_10h39.07.848,MetaAwareness,2020.1.2,Win32,60,3BVS8WK9Q1YCTW9Z6SQG56P839GIBJ,A3FGT6EU39C6S4,3WQ3B2KGE9J4FABVONAC1Q3ABGWB1W,GBQW5,GBQW5,3WQ3B2KGE9J4FABVONAC1Q3ABGWB1W,3WQ3B2KGE9J4FABVONAC1Q3ABGWB1W,267715,267715,,,,,,,,,,
,,,,5,9.086995,0,23,23,154,1,people stand onthe street near benches that have drainage vents underneath.,people stand on the street near benches but the middle bench has no drainage vent.,wolfe1,image-027,4,46,A3FGT6EU39C6S4,2021-01-07_10h39.07.848,MetaAwareness,2020.1.2,Win32,60,3BVS8WK9Q1YCTW9Z6SQG56P839GIBJ,A3FGT6EU39C6S4,3WQ3B2KGE9J4FABVONAC1Q3ABGWB1W,GBQW5,GBQW5,3WQ3B2KGE9J4FABVONAC1Q3ABGWB1W,3WQ3B2KGE9J4FABVONAC1Q3ABGWB1W,267715,267715,,,,,,,,,,
,,,,5,9.527095,0,24,24,385,1,"a couple walks down the quad on a college campus, with a woman wearing a backpack with a blue label","a couple walks down the quad on a college campus, with a woman wearing a backpack with a green label",wolfe1,image-094,6,46,A3FGT6EU39C6S4,2021-01-07_10h39.07.848,MetaAwareness,2020.1.2,Win32,60,3BVS8WK9Q1YCTW9Z6SQG56P839GIBJ,A3FGT6EU39C6S4,3WQ3B2KGE9J4FABVONAC1Q3ABGWB1W,GBQW5,GBQW5,3WQ3B2KGE9J4FABVONAC1Q3ABGWB1W,3WQ3B2KGE9J4FABVONAC1Q3ABGWB1W,267715,267715,,,,,,,,,,
,,,,4,4.813875,0,25,25,58,1,two cactus plants are on the table,one cactus plant is on the table.,wolfe1,image-011,1,46,A3FGT6EU39C6S4,2021-01-07_10h39.07.848,MetaAwareness,2020.1.2,Win32,60,3BVS8WK9Q1YCTW9Z6SQG56P839GIBJ,A3FGT6EU39C6S4,3WQ3B2KGE9J4FABVONAC1Q3ABGWB1W,GBQW5,GBQW5,3WQ3B2KGE9J4FABVONAC1Q3ABGWB1W,3WQ3B2KGE9J4FABVONAC1Q3ABGWB1W,267715,267715,,,,,,,,,,
,,,,4,9.19952,0,26,26,268,1,men spreading gravel with an orange object near the shovel ,men spreading gravel without an orange object near the shovel,wolfe1,image-047,6,46,A3FGT6EU39C6S4,2021-01-07_10h39.07.848,MetaAwareness,2020.1.2,Win32,60,3BVS8WK9Q1YCTW9Z6SQG56P839GIBJ,A3FGT6EU39C6S4,3WQ3B2KGE9J4FABVONAC1Q3ABGWB1W,GBQW5,GBQW5,3WQ3B2KGE9J4FABVONAC1Q3ABGWB1W,3WQ3B2KGE9J4FABVONAC1Q3ABGWB1W,267715,267715,,,,,,,,,,
,,,,5,9.20881,0,27,27,564,1,"two teams play a game of volleyball outside, with one man on one team wearing a dark blue shirt.","two teams play a game of volleyball outside, with one man on one team wearing a grayish yellow shirt.",wolfe1,image-126,3,46,A3FGT6EU39C6S4,2021-01-07_10h39.07.848,MetaAwareness,2020.1.2,Win32,60,3BVS8WK9Q1YCTW9Z6SQG56P839GIBJ,A3FGT6EU39C6S4,3WQ3B2KGE9J4FABVONAC1Q3ABGWB1W,GBQW5,GBQW5,3WQ3B2KGE9J4FABVONAC1Q3ABGWB1W,3WQ3B2KGE9J4FABVONAC1Q3ABGWB1W,267715,267715,,,,,,,,,,
,,,,5,10.503795,0,28,28,152,1,people are at an outdoor event standing around a set of concrete barriers with lights in them,"people are at an outdoor event standing around a set of concrete barriers with lights in them, except for the center barrier",wolfe1,image-027,2,46,A3FGT6EU39C6S4,2021-01-07_10h39.07.848,MetaAwareness,2020.1.2,Win32,60,3BVS8WK9Q1YCTW9Z6SQG56P839GIBJ,A3FGT6EU39C6S4,3WQ3B2KGE9J4FABVONAC1Q3ABGWB1W,GBQW5,GBQW5,3WQ3B2KGE9J4FABVONAC1Q3ABGWB1W,3WQ3B2KGE9J4FABVONAC1Q3ABGWB1W,267715,267715,,,,,,,,,,
,,,,5,17.279825,0,29,29,597,1,children in a large room learning how to dance and be active. a girl in the front row with red shorts follows the dance instructor's moves closely. ,children in a large room learning how to dance and be active. a girl in the front row with purple shorts follows the dance instructor's moves closely.,wolfe1,image-131,5,46,A3FGT6EU39C6S4,2021-01-07_10h39.07.848,MetaAwareness,2020.1.2,Win32,60,3BVS8WK9Q1YCTW9Z6SQG56P839GIBJ,A3FGT6EU39C6S4,3WQ3B2KGE9J4FABVONAC1Q3ABGWB1W,GBQW5,GBQW5,3WQ3B2KGE9J4FABVONAC1Q3ABGWB1W,3WQ3B2KGE9J4FABVONAC1Q3ABGWB1W,267715,267715,,,,,,,,,,
,,,,,,,,,,,,,,,,46,A3FGT6EU39C6S4,2021-01-07_10h39.07.848,MetaAwareness,2020.1.2,Win32,60,3BVS8WK9Q1YCTW9Z6SQG56P839GIBJ,A3FGT6EU39C6S4,3WQ3B2KGE9J4FABVONAC1Q3ABGWB1W,GBQW5,GBQW5,3WQ3B2KGE9J4FABVONAC1Q3ABGWB1W,3WQ3B2KGE9J4FABVONAC1Q3ABGWB1W,267715,267715,6,13.651345,someone laying underneath a blue beach umbrella on a crowded beach,someone laying underneath a blue beach umbrella on a crowded beach,same,1,15.449005,members of a marching band crossing a track that all have feather plumes at the front of their hats,a cluttered and rustic looking cafe with 10 hanging lights,different