consent_response.keys,consent_response.rt,key_resp_2.keys,key_resp_2.rt,user_resp.keys,user_resp.rt,trials.thisRepN,trials.thisTrialN,trials.thisN,trials.thisIndex,trials.ran,image_1_text,image_2_text,database,image,number,age,worker_ID,date,expName,psychopyVersion,OS,frameRate,hitId,workerId,assignmentId,a,tp_a,b,tp_b,c,tp_c,catch_same_resp.keys,catch_same_resp.rt,image_1_text_catch_same,image_2_text_catch_same,image_catch_same,catch_different_resp.keys,catch_different_resp.rt,image_1_text_catch_different,image_2_text_catch_different,image_catch_different
space,5.363705,space,10.004,3,8.039935,0,0,0,327,1,students work at a table in front of a bulletin board with a red decoration,students work at a table in front of a bulletin board with a yellow decoration ,wolfe1,image-083,6,27,A3I40B0FATY8VH,2021-01-07_07h55.24.151,MetaAwareness,2020.1.2,Win32,60,3FHTJGYT8O301Z4EZ98EFEHH50YPGE,A3I40B0FATY8VH,3HMVI3QICKV0SI46YFOW911BWPSY1C,IIMH5,IIMH5,3HMVI3QICKV0SI46YFOW911BWPSY1C,3HMVI3QICKV0SI46YFOW911BWPSY1C,267715,267715,,,,,,,,,,
,,,,3,9.76492,0,1,1,14,1,a presentation being held in a basement with one window,a presentation being held in a basement with no windows,wolfe1,image-003,4,27,A3I40B0FATY8VH,2021-01-07_07h55.24.151,MetaAwareness,2020.1.2,Win32,60,3FHTJGYT8O301Z4EZ98EFEHH50YPGE,A3I40B0FATY8VH,3HMVI3QICKV0SI46YFOW911BWPSY1C,IIMH5,IIMH5,3HMVI3QICKV0SI46YFOW911BWPSY1C,3HMVI3QICKV0SI46YFOW911BWPSY1C,267715,267715,,,,,,,,,,
,,,,2,24.18596,0,2,2,226,1,"a mossy, marsh like scene with mountains and blue sky in the background as well as a red, farmlike facility, with one of the marsh rocks in the foreground","a marshlike, rocky setting with water and moutains and a red, farmlike facility in the background and a swatch of lake and plant growth in the foreground",wolfe1,image-041,2,27,A3I40B0FATY8VH,2021-01-07_07h55.24.151,MetaAwareness,2020.1.2,Win32,60,3FHTJGYT8O301Z4EZ98EFEHH50YPGE,A3I40B0FATY8VH,3HMVI3QICKV0SI46YFOW911BWPSY1C,IIMH5,IIMH5,3HMVI3QICKV0SI46YFOW911BWPSY1C,3HMVI3QICKV0SI46YFOW911BWPSY1C,267715,267715,,,,,,,,,,
,,,,5,12.160095,0,3,3,124,1, four people and 1 watching shoot bow and arrow  there are 3 extra arrows,four people and 1 watching shoot bow and arrow there are 2 extra arrows,wolfe1,image-021,2,27,A3I40B0FATY8VH,2021-01-07_07h55.24.151,MetaAwareness,2020.1.2,Win32,60,3FHTJGYT8O301Z4EZ98EFEHH50YPGE,A3I40B0FATY8VH,3HMVI3QICKV0SI46YFOW911BWPSY1C,IIMH5,IIMH5,3HMVI3QICKV0SI46YFOW911BWPSY1C,3HMVI3QICKV0SI46YFOW911BWPSY1C,267715,267715,,,,,,,,,,
,,,,5,14.91285,0,4,4,106,1,"there is a beach with people, tents, and kayaks all around. there is a blue chair facing the water.","there is a beach with people, tents, and kayaks all around. there is no blue chair facing the water.",wolfe1,image-018,3,27,A3I40B0FATY8VH,2021-01-07_07h55.24.151,MetaAwareness,2020.1.2,Win32,60,3FHTJGYT8O301Z4EZ98EFEHH50YPGE,A3I40B0FATY8VH,3HMVI3QICKV0SI46YFOW911BWPSY1C,IIMH5,IIMH5,3HMVI3QICKV0SI46YFOW911BWPSY1C,3HMVI3QICKV0SI46YFOW911BWPSY1C,267715,267715,,,,,,,,,,
,,,,4,11.022295,0,5,5,410,1,"a group of people walking into a building, one guy is wearing green shorts.","a group of people walking into a building, with one guy wearing brown shorts.",wolfe1,image-098,4,27,A3I40B0FATY8VH,2021-01-07_07h55.24.151,MetaAwareness,2020.1.2,Win32,60,3FHTJGYT8O301Z4EZ98EFEHH50YPGE,A3I40B0FATY8VH,3HMVI3QICKV0SI46YFOW911BWPSY1C,IIMH5,IIMH5,3HMVI3QICKV0SI46YFOW911BWPSY1C,3HMVI3QICKV0SI46YFOW911BWPSY1C,267715,267715,,,,,,,,,,
,,,,4,5.81589,0,6,6,300,1,group of people and man in blue shirt,group of people and man in green shirt,wolfe1,image-078,4,27,A3I40B0FATY8VH,2021-01-07_07h55.24.151,MetaAwareness,2020.1.2,Win32,60,3FHTJGYT8O301Z4EZ98EFEHH50YPGE,A3I40B0FATY8VH,3HMVI3QICKV0SI46YFOW911BWPSY1C,IIMH5,IIMH5,3HMVI3QICKV0SI46YFOW911BWPSY1C,3HMVI3QICKV0SI46YFOW911BWPSY1C,267715,267715,,,,,,,,,,
,,,,2,10.692785,0,7,7,7,1,a yard sale in front of a brick house with clothing and a childs to and a blue dress,a yard sale in front of a brick house with clothing and a childs toy,wolfe1,image-002,2,27,A3I40B0FATY8VH,2021-01-07_07h55.24.151,MetaAwareness,2020.1.2,Win32,60,3FHTJGYT8O301Z4EZ98EFEHH50YPGE,A3I40B0FATY8VH,3HMVI3QICKV0SI46YFOW911BWPSY1C,IIMH5,IIMH5,3HMVI3QICKV0SI46YFOW911BWPSY1C,3HMVI3QICKV0SI46YFOW911BWPSY1C,267715,267715,,,,,,,,,,
,,,,5,9.77914,0,8,8,420,1,"a group of children play and climb around a swingset, including a young one in a pink shirt.","a group of children play and climb around a swingset, including a young one in an orange shirt.",wolfe1,image-101,1,27,A3I40B0FATY8VH,2021-01-07_07h55.24.151,MetaAwareness,2020.1.2,Win32,60,3FHTJGYT8O301Z4EZ98EFEHH50YPGE,A3I40B0FATY8VH,3HMVI3QICKV0SI46YFOW911BWPSY1C,IIMH5,IIMH5,3HMVI3QICKV0SI46YFOW911BWPSY1C,3HMVI3QICKV0SI46YFOW911BWPSY1C,267715,267715,,,,,,,,,,
,,,,5,7.96471,0,9,9,522,1,walking thru a park with one person wearing a red backpack.,walking thru a park with one person wearing an orange backpack.,wolfe1,image-118,4,27,A3I40B0FATY8VH,2021-01-07_07h55.24.151,MetaAwareness,2020.1.2,Win32,60,3FHTJGYT8O301Z4EZ98EFEHH50YPGE,A3I40B0FATY8VH,3HMVI3QICKV0SI46YFOW911BWPSY1C,IIMH5,IIMH5,3HMVI3QICKV0SI46YFOW911BWPSY1C,3HMVI3QICKV0SI46YFOW911BWPSY1C,267715,267715,,,,,,,,,,
,,,,1,6.11696,0,10,10,216,1,a square black objects sits in the middle of the shelf in a room,nothing sits in the middle of the shelf  in a room,wolfe1,image-039,4,27,A3I40B0FATY8VH,2021-01-07_07h55.24.151,MetaAwareness,2020.1.2,Win32,60,3FHTJGYT8O301Z4EZ98EFEHH50YPGE,A3I40B0FATY8VH,3HMVI3QICKV0SI46YFOW911BWPSY1C,IIMH5,IIMH5,3HMVI3QICKV0SI46YFOW911BWPSY1C,3HMVI3QICKV0SI46YFOW911BWPSY1C,267715,267715,,,,,,,,,,
,,,,4,13.53572,0,11,11,478,1,a series of buildings. one has a red roof,a series of buildings. one has a dark blue roof,wolfe1,image-110,6,27,A3I40B0FATY8VH,2021-01-07_07h55.24.151,MetaAwareness,2020.1.2,Win32,60,3FHTJGYT8O301Z4EZ98EFEHH50YPGE,A3I40B0FATY8VH,3HMVI3QICKV0SI46YFOW911BWPSY1C,IIMH5,IIMH5,3HMVI3QICKV0SI46YFOW911BWPSY1C,3HMVI3QICKV0SI46YFOW911BWPSY1C,267715,267715,,,,,,,,,,
,,,,5,13.20902,0,12,12,419,1,"there is a pop up gazebo in the middle of a camping area. in the background, there are large trees, a camper, and red and blue towels hanging on a line attached to the trees.","there is a pop up gazebo in the middle of a camping area. in the background, there are large trees, a camper, and red towels that are hanging from a line attached to the trees.",wolfe1,image-100,4,27,A3I40B0FATY8VH,2021-01-07_07h55.24.151,MetaAwareness,2020.1.2,Win32,60,3FHTJGYT8O301Z4EZ98EFEHH50YPGE,A3I40B0FATY8VH,3HMVI3QICKV0SI46YFOW911BWPSY1C,IIMH5,IIMH5,3HMVI3QICKV0SI46YFOW911BWPSY1C,3HMVI3QICKV0SI46YFOW911BWPSY1C,267715,267715,,,,,,,,,,
,,,,4,7.33168,0,13,13,571,1,woman clearing car with bluw shovel,women clearing car with green shovel,wolfe1,image-127,5,27,A3I40B0FATY8VH,2021-01-07_07h55.24.151,MetaAwareness,2020.1.2,Win32,60,3FHTJGYT8O301Z4EZ98EFEHH50YPGE,A3I40B0FATY8VH,3HMVI3QICKV0SI46YFOW911BWPSY1C,IIMH5,IIMH5,3HMVI3QICKV0SI46YFOW911BWPSY1C,3HMVI3QICKV0SI46YFOW911BWPSY1C,267715,267715,,,,,,,,,,
,,,,4,6.52405,0,14,14,586,1,a woman standing on the sidewalk wearing a pair of blue jeans.,a woman standing on the sidewalk wearing a pair of grey jeans.,wolfe1,image-129,10,27,A3I40B0FATY8VH,2021-01-07_07h55.24.151,MetaAwareness,2020.1.2,Win32,60,3FHTJGYT8O301Z4EZ98EFEHH50YPGE,A3I40B0FATY8VH,3HMVI3QICKV0SI46YFOW911BWPSY1C,IIMH5,IIMH5,3HMVI3QICKV0SI46YFOW911BWPSY1C,3HMVI3QICKV0SI46YFOW911BWPSY1C,267715,267715,,,,,,,,,,
,,,,4,8.268315,0,15,15,394,1,a person hiking along a dirt trail through a green hillside with a red flowering plant to the right,a person hiking along a dirt trail through a green hillside with a yellow flowering plant to the left,wolfe1,image-095,6,27,A3I40B0FATY8VH,2021-01-07_07h55.24.151,MetaAwareness,2020.1.2,Win32,60,3FHTJGYT8O301Z4EZ98EFEHH50YPGE,A3I40B0FATY8VH,3HMVI3QICKV0SI46YFOW911BWPSY1C,IIMH5,IIMH5,3HMVI3QICKV0SI46YFOW911BWPSY1C,3HMVI3QICKV0SI46YFOW911BWPSY1C,267715,267715,,,,,,,,,,
,,,,4,5.624685,0,16,16,328,1,there is a red peice of paper on the board behind the students,there is a yellow peice of paper on the board behind the students,wolfe1,image-083,7,27,A3I40B0FATY8VH,2021-01-07_07h55.24.151,MetaAwareness,2020.1.2,Win32,60,3FHTJGYT8O301Z4EZ98EFEHH50YPGE,A3I40B0FATY8VH,3HMVI3QICKV0SI46YFOW911BWPSY1C,IIMH5,IIMH5,3HMVI3QICKV0SI46YFOW911BWPSY1C,3HMVI3QICKV0SI46YFOW911BWPSY1C,267715,267715,,,,,,,,,,
,,,,4,5.867365,0,17,17,301,1,a man walking in a crowd wearing a blue stripped shirt,a man walking in a crowd wearing a green stripped shirt,wolfe1,image-078,5,27,A3I40B0FATY8VH,2021-01-07_07h55.24.151,MetaAwareness,2020.1.2,Win32,60,3FHTJGYT8O301Z4EZ98EFEHH50YPGE,A3I40B0FATY8VH,3HMVI3QICKV0SI46YFOW911BWPSY1C,IIMH5,IIMH5,3HMVI3QICKV0SI46YFOW911BWPSY1C,3HMVI3QICKV0SI46YFOW911BWPSY1C,267715,267715,,,,,,,,,,
,,,,3,9.17306,0,18,18,206,1,"an open dining area with an area for children, there is a white egg casing","an open dining area with an area for children, there are yellow and blue egg casings",wolfe1,image-037,3,27,A3I40B0FATY8VH,2021-01-07_07h55.24.151,MetaAwareness,2020.1.2,Win32,60,3FHTJGYT8O301Z4EZ98EFEHH50YPGE,A3I40B0FATY8VH,3HMVI3QICKV0SI46YFOW911BWPSY1C,IIMH5,IIMH5,3HMVI3QICKV0SI46YFOW911BWPSY1C,3HMVI3QICKV0SI46YFOW911BWPSY1C,267715,267715,,,,,,,,,,
,,,,4,10.90124,0,19,19,404,1,six people one wearing blue pants at  some kind of stand that has a pretty painting on it,six people one wearing green pants at some kind of stand that has a pretty painting on it,wolfe1,image-097,2,27,A3I40B0FATY8VH,2021-01-07_07h55.24.151,MetaAwareness,2020.1.2,Win32,60,3FHTJGYT8O301Z4EZ98EFEHH50YPGE,A3I40B0FATY8VH,3HMVI3QICKV0SI46YFOW911BWPSY1C,IIMH5,IIMH5,3HMVI3QICKV0SI46YFOW911BWPSY1C,3HMVI3QICKV0SI46YFOW911BWPSY1C,267715,267715,,,,,,,,,,
,,,,4,4.34874,0,20,20,627,1,a deck patio with a blue house in the background,a deck patio with a pink house in the background,wolfe1,image-136,5,27,A3I40B0FATY8VH,2021-01-07_07h55.24.151,MetaAwareness,2020.1.2,Win32,60,3FHTJGYT8O301Z4EZ98EFEHH50YPGE,A3I40B0FATY8VH,3HMVI3QICKV0SI46YFOW911BWPSY1C,IIMH5,IIMH5,3HMVI3QICKV0SI46YFOW911BWPSY1C,3HMVI3QICKV0SI46YFOW911BWPSY1C,267715,267715,,,,,,,,,,
,,,,2,5.41218,0,21,21,20,1,"a person is sitting on a dock, next to a chain, fishing.",a person is sitting on a dock fishing,wolfe1,image-004,3,27,A3I40B0FATY8VH,2021-01-07_07h55.24.151,MetaAwareness,2020.1.2,Win32,60,3FHTJGYT8O301Z4EZ98EFEHH50YPGE,A3I40B0FATY8VH,3HMVI3QICKV0SI46YFOW911BWPSY1C,IIMH5,IIMH5,3HMVI3QICKV0SI46YFOW911BWPSY1C,3HMVI3QICKV0SI46YFOW911BWPSY1C,267715,267715,,,,,,,,,,
,,,,3,6.593395,0,22,22,494,1,"a city street lined with stores, one with pink dresses hanging over it","a city street lined with stores, one with black and yellow dresses hanging over it",wolfe1,image-113,5,27,A3I40B0FATY8VH,2021-01-07_07h55.24.151,MetaAwareness,2020.1.2,Win32,60,3FHTJGYT8O301Z4EZ98EFEHH50YPGE,A3I40B0FATY8VH,3HMVI3QICKV0SI46YFOW911BWPSY1C,IIMH5,IIMH5,3HMVI3QICKV0SI46YFOW911BWPSY1C,3HMVI3QICKV0SI46YFOW911BWPSY1C,267715,267715,,,,,,,,,,
,,,,4,10.458055,0,23,23,204,1,"a picnic table is inside an enclosure, there is a white food carton sitting in the middle of the table.","a picnic table is inside an enclosure, there is no white food carton sitting in the middle.",wolfe1,image-037,1,27,A3I40B0FATY8VH,2021-01-07_07h55.24.151,MetaAwareness,2020.1.2,Win32,60,3FHTJGYT8O301Z4EZ98EFEHH50YPGE,A3I40B0FATY8VH,3HMVI3QICKV0SI46YFOW911BWPSY1C,IIMH5,IIMH5,3HMVI3QICKV0SI46YFOW911BWPSY1C,3HMVI3QICKV0SI46YFOW911BWPSY1C,267715,267715,,,,,,,,,,
,,,,2,6.05142,0,24,24,614,1,the lady is wearing red,the lady is wearing blue,wolfe1,image-134,2,27,A3I40B0FATY8VH,2021-01-07_07h55.24.151,MetaAwareness,2020.1.2,Win32,60,3FHTJGYT8O301Z4EZ98EFEHH50YPGE,A3I40B0FATY8VH,3HMVI3QICKV0SI46YFOW911BWPSY1C,IIMH5,IIMH5,3HMVI3QICKV0SI46YFOW911BWPSY1C,3HMVI3QICKV0SI46YFOW911BWPSY1C,267715,267715,,,,,,,,,,
,,,,4,7.746995,0,25,25,458,1,a bowl of hand dipped candles two of which are blue,a bowl of hand dipped candles one of which is blue,wolfe1,image-107,4,27,A3I40B0FATY8VH,2021-01-07_07h55.24.151,MetaAwareness,2020.1.2,Win32,60,3FHTJGYT8O301Z4EZ98EFEHH50YPGE,A3I40B0FATY8VH,3HMVI3QICKV0SI46YFOW911BWPSY1C,IIMH5,IIMH5,3HMVI3QICKV0SI46YFOW911BWPSY1C,3HMVI3QICKV0SI46YFOW911BWPSY1C,267715,267715,,,,,,,,,,
,,,,4,7.131465,0,26,26,338,1,people at the beach and man in red hat,people at the beach and man in green hat,wolfe1,image-085,3,27,A3I40B0FATY8VH,2021-01-07_07h55.24.151,MetaAwareness,2020.1.2,Win32,60,3FHTJGYT8O301Z4EZ98EFEHH50YPGE,A3I40B0FATY8VH,3HMVI3QICKV0SI46YFOW911BWPSY1C,IIMH5,IIMH5,3HMVI3QICKV0SI46YFOW911BWPSY1C,3HMVI3QICKV0SI46YFOW911BWPSY1C,267715,267715,,,,,,,,,,
,,,,5,13.354435,0,27,27,211,1,two cars are shown on a street parked in front of a yellow house with a yellow sign while someone sweeps the sidewalks,two cars are shown on a street parked in front of a yellow house while someone sweeps the sidewalks,wolfe1,image-038,3,27,A3I40B0FATY8VH,2021-01-07_07h55.24.151,MetaAwareness,2020.1.2,Win32,60,3FHTJGYT8O301Z4EZ98EFEHH50YPGE,A3I40B0FATY8VH,3HMVI3QICKV0SI46YFOW911BWPSY1C,IIMH5,IIMH5,3HMVI3QICKV0SI46YFOW911BWPSY1C,3HMVI3QICKV0SI46YFOW911BWPSY1C,267715,267715,,,,,,,,,,
,,,,4,10.48103,0,28,28,557,1,"two people are talking next to a boat dock, with both posts at the dock slightly green with algae.","two people are talking next to a boat dock, with one post at the dock looking cleaner than the other one slightly green with algae.",wolfe1,image-124,7,27,A3I40B0FATY8VH,2021-01-07_07h55.24.151,MetaAwareness,2020.1.2,Win32,60,3FHTJGYT8O301Z4EZ98EFEHH50YPGE,A3I40B0FATY8VH,3HMVI3QICKV0SI46YFOW911BWPSY1C,IIMH5,IIMH5,3HMVI3QICKV0SI46YFOW911BWPSY1C,3HMVI3QICKV0SI46YFOW911BWPSY1C,267715,267715,,,,,,,,,,
,,,,4,8.284335,0,29,29,612,1,a fancy outside living room with a red surfboard hung on the wall.,a fancy outside sitting area with a green surf board hung on the wall.,wolfe1,image-133,8,27,A3I40B0FATY8VH,2021-01-07_07h55.24.151,MetaAwareness,2020.1.2,Win32,60,3FHTJGYT8O301Z4EZ98EFEHH50YPGE,A3I40B0FATY8VH,3HMVI3QICKV0SI46YFOW911BWPSY1C,IIMH5,IIMH5,3HMVI3QICKV0SI46YFOW911BWPSY1C,3HMVI3QICKV0SI46YFOW911BWPSY1C,267715,267715,,,,,,,,,,
,,,,,,,,,,,,,,,,27,A3I40B0FATY8VH,2021-01-07_07h55.24.151,MetaAwareness,2020.1.2,Win32,60,3FHTJGYT8O301Z4EZ98EFEHH50YPGE,A3I40B0FATY8VH,3HMVI3QICKV0SI46YFOW911BWPSY1C,IIMH5,IIMH5,3HMVI3QICKV0SI46YFOW911BWPSY1C,3HMVI3QICKV0SI46YFOW911BWPSY1C,267715,267715,6,8.962815,someone laying underneath a blue beach umbrella on a crowded beach,someone laying underneath a blue beach umbrella on a crowded beach,same,1,8.44209,members of a marching band crossing a track that all have feather plumes at the front of their hats,a cluttered and rustic looking cafe with 10 hanging lights,different