consent_response.keys,consent_response.rt,key_resp_2.keys,key_resp_2.rt,user_resp.keys,user_resp.rt,trials.thisRepN,trials.thisTrialN,trials.thisN,trials.thisIndex,trials.ran,image_1_text,image_2_text,database,image,number,age,worker_ID,date,expName,psychopyVersion,OS,frameRate,hitId,workerId,assignmentId,a,tp_a,b,tp_b,c,tp_c,catch_same_resp.keys,catch_same_resp.rt,image_1_text_catch_same,image_2_text_catch_same,image_catch_same,catch_different_resp.keys,catch_different_resp.rt,image_1_text_catch_different,image_2_text_catch_different,image_catch_different
space,400.59,space,0.163,5,28.956,0,0,0,192,1,a patio at the back of a house with a walkway of 6 stone slabs leading to a sitting area,a patio at the back of a house with a walkway of 5 stone slabs leading to a sitting area,wolfe1,image-034,3,45,AHJJUX96EATA7,2021-01-07_07h36.03.854,MetaAwareness,2020.1.2,Win32,60,3X2YVV51PV7THTBCTC160LL7W8K1WN,AHJJUX96EATA7,3VZLGYJEYMD8N9Z41UBMIHEE7YEZXZ,EGZV5,EGZV5,3VZLGYJEYMD8N9Z41UBMIHEE7YEZXZ,3VZLGYJEYMD8N9Z41UBMIHEE7YEZXZ,267715,267715,,,,,,,,,,
,,,,6,2.643,0,1,1,119,1,"a group of people are sitting on towels and blankets in the grass, waiting for something, with a pink and white striped blanket in the center of the image.","a group of people are sitting on towels and blankets in the grass, waiting for something, with there being no blanket in the center of the image.",wolfe1,image-020,4,45,AHJJUX96EATA7,2021-01-07_07h36.03.854,MetaAwareness,2020.1.2,Win32,60,3X2YVV51PV7THTBCTC160LL7W8K1WN,AHJJUX96EATA7,3VZLGYJEYMD8N9Z41UBMIHEE7YEZXZ,EGZV5,EGZV5,3VZLGYJEYMD8N9Z41UBMIHEE7YEZXZ,3VZLGYJEYMD8N9Z41UBMIHEE7YEZXZ,267715,267715,,,,,,,,,,
,,,,3,2.544,0,2,2,372,1,everyone are exercising in the photo and one lady wearing white color shoe,everyone are exercising in the photo and one lady wearing purple color shoe ,wolfe1,image-092,5,45,AHJJUX96EATA7,2021-01-07_07h36.03.854,MetaAwareness,2020.1.2,Win32,60,3X2YVV51PV7THTBCTC160LL7W8K1WN,AHJJUX96EATA7,3VZLGYJEYMD8N9Z41UBMIHEE7YEZXZ,EGZV5,EGZV5,3VZLGYJEYMD8N9Z41UBMIHEE7YEZXZ,3VZLGYJEYMD8N9Z41UBMIHEE7YEZXZ,267715,267715,,,,,,,,,,
,,,,2,2.116,0,3,3,476,1,a city street that has a variety of shops on it. there is a building with a red roof and writing in the background.,a city street that has a variety of shops on it. there is a building with a blue roof and writing in the background.,wolfe1,image-110,4,45,AHJJUX96EATA7,2021-01-07_07h36.03.854,MetaAwareness,2020.1.2,Win32,60,3X2YVV51PV7THTBCTC160LL7W8K1WN,AHJJUX96EATA7,3VZLGYJEYMD8N9Z41UBMIHEE7YEZXZ,EGZV5,EGZV5,3VZLGYJEYMD8N9Z41UBMIHEE7YEZXZ,3VZLGYJEYMD8N9Z41UBMIHEE7YEZXZ,267715,267715,,,,,,,,,,
,,,,4,4.911,0,4,4,556,1,a walk in the park on a gated path along the water with green posts sticking out of the water,a walk in the park on a gated path along the water with green and brown posts sticking out of the water,wolfe1,image-124,6,45,AHJJUX96EATA7,2021-01-07_07h36.03.854,MetaAwareness,2020.1.2,Win32,60,3X2YVV51PV7THTBCTC160LL7W8K1WN,AHJJUX96EATA7,3VZLGYJEYMD8N9Z41UBMIHEE7YEZXZ,EGZV5,EGZV5,3VZLGYJEYMD8N9Z41UBMIHEE7YEZXZ,3VZLGYJEYMD8N9Z41UBMIHEE7YEZXZ,267715,267715,,,,,,,,,,
,,,,6,4.866,0,5,5,80,1,people sitting on blankets on a lawn listening to a concert on a stage with a vacant blanket at the left,people sitting on blankets on a lawn listening to a concert on a stage with no blanket on the lawn to the left,wolfe1,image-014,4,45,AHJJUX96EATA7,2021-01-07_07h36.03.854,MetaAwareness,2020.1.2,Win32,60,3X2YVV51PV7THTBCTC160LL7W8K1WN,AHJJUX96EATA7,3VZLGYJEYMD8N9Z41UBMIHEE7YEZXZ,EGZV5,EGZV5,3VZLGYJEYMD8N9Z41UBMIHEE7YEZXZ,3VZLGYJEYMD8N9Z41UBMIHEE7YEZXZ,267715,267715,,,,,,,,,,
,,,,5,3.522,0,6,6,243,1,a decorated room with a vase on the right side on the floor,a decorated room with no small vase on the right side on the floor.,wolfe1,image-043,4,45,AHJJUX96EATA7,2021-01-07_07h36.03.854,MetaAwareness,2020.1.2,Win32,60,3X2YVV51PV7THTBCTC160LL7W8K1WN,AHJJUX96EATA7,3VZLGYJEYMD8N9Z41UBMIHEE7YEZXZ,EGZV5,EGZV5,3VZLGYJEYMD8N9Z41UBMIHEE7YEZXZ,3VZLGYJEYMD8N9Z41UBMIHEE7YEZXZ,267715,267715,,,,,,,,,,
,,,,4,5.331,0,7,7,335,1,a hiker on a grassy mountain reaching into their red bag.,a hiker on a grassy mountain reaching into their green bag.,wolfe1,image-084,7,45,AHJJUX96EATA7,2021-01-07_07h36.03.854,MetaAwareness,2020.1.2,Win32,60,3X2YVV51PV7THTBCTC160LL7W8K1WN,AHJJUX96EATA7,3VZLGYJEYMD8N9Z41UBMIHEE7YEZXZ,EGZV5,EGZV5,3VZLGYJEYMD8N9Z41UBMIHEE7YEZXZ,3VZLGYJEYMD8N9Z41UBMIHEE7YEZXZ,267715,267715,,,,,,,,,,
,,,,6,4.654,0,8,8,532,1,a backyard table setting with a torqoise chair next to a buddha head,a backyard table setting with a purple chair next to a buddha head,wolfe1,image-120,4,45,AHJJUX96EATA7,2021-01-07_07h36.03.854,MetaAwareness,2020.1.2,Win32,60,3X2YVV51PV7THTBCTC160LL7W8K1WN,AHJJUX96EATA7,3VZLGYJEYMD8N9Z41UBMIHEE7YEZXZ,EGZV5,EGZV5,3VZLGYJEYMD8N9Z41UBMIHEE7YEZXZ,3VZLGYJEYMD8N9Z41UBMIHEE7YEZXZ,267715,267715,,,,,,,,,,
,,,,5,6.781,0,9,9,74,1,men in white shirts playing instruments outside of a building with a no loitering sign on the wall,men in white shirts playing instruments outside of a building with no signs on the wall,wolfe1,image-013,2,45,AHJJUX96EATA7,2021-01-07_07h36.03.854,MetaAwareness,2020.1.2,Win32,60,3X2YVV51PV7THTBCTC160LL7W8K1WN,AHJJUX96EATA7,3VZLGYJEYMD8N9Z41UBMIHEE7YEZXZ,EGZV5,EGZV5,3VZLGYJEYMD8N9Z41UBMIHEE7YEZXZ,3VZLGYJEYMD8N9Z41UBMIHEE7YEZXZ,267715,267715,,,,,,,,,,
,,,,3,5.991,0,10,10,7,1,a yard sale in front of a brick house with clothing and a childs to and a blue dress,a yard sale in front of a brick house with clothing and a childs toy,wolfe1,image-002,2,45,AHJJUX96EATA7,2021-01-07_07h36.03.854,MetaAwareness,2020.1.2,Win32,60,3X2YVV51PV7THTBCTC160LL7W8K1WN,AHJJUX96EATA7,3VZLGYJEYMD8N9Z41UBMIHEE7YEZXZ,EGZV5,EGZV5,3VZLGYJEYMD8N9Z41UBMIHEE7YEZXZ,3VZLGYJEYMD8N9Z41UBMIHEE7YEZXZ,267715,267715,,,,,,,,,,
,,,,3,8.397,0,11,11,146,1,a street market has a lot of people and two towering trees in the background.,a street market has a lot of people and one towering tree in the background,wolfe1,image-025,5,45,AHJJUX96EATA7,2021-01-07_07h36.03.854,MetaAwareness,2020.1.2,Win32,60,3X2YVV51PV7THTBCTC160LL7W8K1WN,AHJJUX96EATA7,3VZLGYJEYMD8N9Z41UBMIHEE7YEZXZ,EGZV5,EGZV5,3VZLGYJEYMD8N9Z41UBMIHEE7YEZXZ,3VZLGYJEYMD8N9Z41UBMIHEE7YEZXZ,267715,267715,,,,,,,,,,
,,,,4,2.639,0,12,12,102,1,"three men watching a fourth man at a golf course, where the fourth man is standing in front of a small tee flag and getting ready to hit the ball","three men watching a fourth man at a golf course, where the fourth man is getting ready to hit the ball",wolfe1,image-017,8,45,AHJJUX96EATA7,2021-01-07_07h36.03.854,MetaAwareness,2020.1.2,Win32,60,3X2YVV51PV7THTBCTC160LL7W8K1WN,AHJJUX96EATA7,3VZLGYJEYMD8N9Z41UBMIHEE7YEZXZ,EGZV5,EGZV5,3VZLGYJEYMD8N9Z41UBMIHEE7YEZXZ,3VZLGYJEYMD8N9Z41UBMIHEE7YEZXZ,267715,267715,,,,,,,,,,
,,,,5,8.261,0,13,13,106,1,"there is a beach with people, tents, and kayaks all around. there is a blue chair facing the water.","there is a beach with people, tents, and kayaks all around. there is no blue chair facing the water.",wolfe1,image-018,3,45,AHJJUX96EATA7,2021-01-07_07h36.03.854,MetaAwareness,2020.1.2,Win32,60,3X2YVV51PV7THTBCTC160LL7W8K1WN,AHJJUX96EATA7,3VZLGYJEYMD8N9Z41UBMIHEE7YEZXZ,EGZV5,EGZV5,3VZLGYJEYMD8N9Z41UBMIHEE7YEZXZ,3VZLGYJEYMD8N9Z41UBMIHEE7YEZXZ,267715,267715,,,,,,,,,,
,,,,4,1.107,0,14,14,348,1,"a woman browses a table at a yard sale, ignoring the blue plastic toy to her right on the table.","a woman browses a table at a yard sale, ignoring the purple plastic toy to her right on the table.",wolfe1,image-087,4,45,AHJJUX96EATA7,2021-01-07_07h36.03.854,MetaAwareness,2020.1.2,Win32,60,3X2YVV51PV7THTBCTC160LL7W8K1WN,AHJJUX96EATA7,3VZLGYJEYMD8N9Z41UBMIHEE7YEZXZ,EGZV5,EGZV5,3VZLGYJEYMD8N9Z41UBMIHEE7YEZXZ,3VZLGYJEYMD8N9Z41UBMIHEE7YEZXZ,267715,267715,,,,,,,,,,
,,,,3,1.951,0,15,15,611,1,an outdoor lounge area with a red and black striped surfboard in the background,an outdoor lounge area with a yellow and green striped surfboard,wolfe1,image-133,7,45,AHJJUX96EATA7,2021-01-07_07h36.03.854,MetaAwareness,2020.1.2,Win32,60,3X2YVV51PV7THTBCTC160LL7W8K1WN,AHJJUX96EATA7,3VZLGYJEYMD8N9Z41UBMIHEE7YEZXZ,EGZV5,EGZV5,3VZLGYJEYMD8N9Z41UBMIHEE7YEZXZ,3VZLGYJEYMD8N9Z41UBMIHEE7YEZXZ,267715,267715,,,,,,,,,,
,,,,1,3.558,0,16,16,78,1,"there is a crowd enjoying a musical performance at an outdoor theathe, there are blankets spread on the ground to sit on.",there is a crowd enjoying a musical performance at an outdoor theater.,wolfe1,image-014,2,45,AHJJUX96EATA7,2021-01-07_07h36.03.854,MetaAwareness,2020.1.2,Win32,60,3X2YVV51PV7THTBCTC160LL7W8K1WN,AHJJUX96EATA7,3VZLGYJEYMD8N9Z41UBMIHEE7YEZXZ,EGZV5,EGZV5,3VZLGYJEYMD8N9Z41UBMIHEE7YEZXZ,3VZLGYJEYMD8N9Z41UBMIHEE7YEZXZ,267715,267715,,,,,,,,,,
,,,,2,1.307,0,17,17,262,1,"in front of the man with a black jacket on, there is a white object on the ground","in front of the man with a blck jacket on, there is nothing on the ground",wolfe1,image-046,8,45,AHJJUX96EATA7,2021-01-07_07h36.03.854,MetaAwareness,2020.1.2,Win32,60,3X2YVV51PV7THTBCTC160LL7W8K1WN,AHJJUX96EATA7,3VZLGYJEYMD8N9Z41UBMIHEE7YEZXZ,EGZV5,EGZV5,3VZLGYJEYMD8N9Z41UBMIHEE7YEZXZ,3VZLGYJEYMD8N9Z41UBMIHEE7YEZXZ,267715,267715,,,,,,,,,,
,,,,3,2.353,0,18,18,167,1,there is a somewhat empty sidewalk along a street with shops and a sandwhich board in front of the jewelry shop,there is a somewhat empty sidewalk along a street with shops and no sandwhich boards on the sidewalk,wolfe1,image-030,3,45,AHJJUX96EATA7,2021-01-07_07h36.03.854,MetaAwareness,2020.1.2,Win32,60,3X2YVV51PV7THTBCTC160LL7W8K1WN,AHJJUX96EATA7,3VZLGYJEYMD8N9Z41UBMIHEE7YEZXZ,EGZV5,EGZV5,3VZLGYJEYMD8N9Z41UBMIHEE7YEZXZ,3VZLGYJEYMD8N9Z41UBMIHEE7YEZXZ,267715,267715,,,,,,,,,,
,,,,4,1.564,0,19,19,323,1,students using computers with a red object in the background,students using computers with a yellow object in the nbackground,wolfe1,image-083,2,45,AHJJUX96EATA7,2021-01-07_07h36.03.854,MetaAwareness,2020.1.2,Win32,60,3X2YVV51PV7THTBCTC160LL7W8K1WN,AHJJUX96EATA7,3VZLGYJEYMD8N9Z41UBMIHEE7YEZXZ,EGZV5,EGZV5,3VZLGYJEYMD8N9Z41UBMIHEE7YEZXZ,3VZLGYJEYMD8N9Z41UBMIHEE7YEZXZ,267715,267715,,,,,,,,,,
,,,,3,3.03,0,20,20,308,1,people outdoors with green umbrella,people outdoors with red umbrella,wolfe1,image-080,1,45,AHJJUX96EATA7,2021-01-07_07h36.03.854,MetaAwareness,2020.1.2,Win32,60,3X2YVV51PV7THTBCTC160LL7W8K1WN,AHJJUX96EATA7,3VZLGYJEYMD8N9Z41UBMIHEE7YEZXZ,EGZV5,EGZV5,3VZLGYJEYMD8N9Z41UBMIHEE7YEZXZ,3VZLGYJEYMD8N9Z41UBMIHEE7YEZXZ,267715,267715,,,,,,,,,,
,,,,4,3.662,0,21,21,240,1,a waiting room with a few seats and a table decorated with a white vase,a waiting room with a few seats and a table,wolfe1,image-043,1,45,AHJJUX96EATA7,2021-01-07_07h36.03.854,MetaAwareness,2020.1.2,Win32,60,3X2YVV51PV7THTBCTC160LL7W8K1WN,AHJJUX96EATA7,3VZLGYJEYMD8N9Z41UBMIHEE7YEZXZ,EGZV5,EGZV5,3VZLGYJEYMD8N9Z41UBMIHEE7YEZXZ,3VZLGYJEYMD8N9Z41UBMIHEE7YEZXZ,267715,267715,,,,,,,,,,
,,,,3,1.613,0,22,22,277,1,a beach scene with a palm tree. one of the palm fronds is highlighted. ,a beach scene with a palm tree. one of the palm fronds is missing. ,wolfe1,image-049,4,45,AHJJUX96EATA7,2021-01-07_07h36.03.854,MetaAwareness,2020.1.2,Win32,60,3X2YVV51PV7THTBCTC160LL7W8K1WN,AHJJUX96EATA7,3VZLGYJEYMD8N9Z41UBMIHEE7YEZXZ,EGZV5,EGZV5,3VZLGYJEYMD8N9Z41UBMIHEE7YEZXZ,3VZLGYJEYMD8N9Z41UBMIHEE7YEZXZ,267715,267715,,,,,,,,,,
,,,,4,1.402,0,23,23,200,1,four sailboats in the water next to two jet skis approaching a speedboat.,four sailboats in the water next to two jet skis.,wolfe1,image-035,2,45,AHJJUX96EATA7,2021-01-07_07h36.03.854,MetaAwareness,2020.1.2,Win32,60,3X2YVV51PV7THTBCTC160LL7W8K1WN,AHJJUX96EATA7,3VZLGYJEYMD8N9Z41UBMIHEE7YEZXZ,EGZV5,EGZV5,3VZLGYJEYMD8N9Z41UBMIHEE7YEZXZ,3VZLGYJEYMD8N9Z41UBMIHEE7YEZXZ,267715,267715,,,,,,,,,,
,,,,5,1.509,0,24,24,2,1,salt and pepper shakers sit atop a wooden dining table of a restaurant outside on a beach overlooking the ocean,wooden dining tables sit atop a wooden floor outside on a beach overlooking the ocean; it is a restaurant with outdoor seating,wolfe1,image-001,3,45,AHJJUX96EATA7,2021-01-07_07h36.03.854,MetaAwareness,2020.1.2,Win32,60,3X2YVV51PV7THTBCTC160LL7W8K1WN,AHJJUX96EATA7,3VZLGYJEYMD8N9Z41UBMIHEE7YEZXZ,EGZV5,EGZV5,3VZLGYJEYMD8N9Z41UBMIHEE7YEZXZ,3VZLGYJEYMD8N9Z41UBMIHEE7YEZXZ,267715,267715,,,,,,,,,,
,,,,4,1.14,0,25,25,500,1,there is a large courtyard with people standing around smiling. there is a blue fence and a stone gate in the back,there is a large courtyard where people are standing around smiling. in the back there is a yellow fence and a stone gate.,wolfe1,image-114,4,45,AHJJUX96EATA7,2021-01-07_07h36.03.854,MetaAwareness,2020.1.2,Win32,60,3X2YVV51PV7THTBCTC160LL7W8K1WN,AHJJUX96EATA7,3VZLGYJEYMD8N9Z41UBMIHEE7YEZXZ,EGZV5,EGZV5,3VZLGYJEYMD8N9Z41UBMIHEE7YEZXZ,3VZLGYJEYMD8N9Z41UBMIHEE7YEZXZ,267715,267715,,,,,,,,,,
,,,,3,1.726,0,26,26,618,1,a family enjoying a camel ride where the second girl is wearing a green cap backwards.,a family enjoying a camel ride where the second girl is wearing a purple cap backwards. ,wolfe1,image-135,1,45,AHJJUX96EATA7,2021-01-07_07h36.03.854,MetaAwareness,2020.1.2,Win32,60,3X2YVV51PV7THTBCTC160LL7W8K1WN,AHJJUX96EATA7,3VZLGYJEYMD8N9Z41UBMIHEE7YEZXZ,EGZV5,EGZV5,3VZLGYJEYMD8N9Z41UBMIHEE7YEZXZ,3VZLGYJEYMD8N9Z41UBMIHEE7YEZXZ,267715,267715,,,,,,,,,,
,,,,4,1.797,0,27,27,595,1,a lady leading a workout class of all different ages of children and a little girl in a red skirt,a lady leading a workout class of all different ages of children and a little girl in a purple skirt,wolfe1,image-131,3,45,AHJJUX96EATA7,2021-01-07_07h36.03.854,MetaAwareness,2020.1.2,Win32,60,3X2YVV51PV7THTBCTC160LL7W8K1WN,AHJJUX96EATA7,3VZLGYJEYMD8N9Z41UBMIHEE7YEZXZ,EGZV5,EGZV5,3VZLGYJEYMD8N9Z41UBMIHEE7YEZXZ,3VZLGYJEYMD8N9Z41UBMIHEE7YEZXZ,267715,267715,,,,,,,,,,
,,,,6,2.485,0,28,28,593,1,the instructor shows the children dance moves. one of the children wears a pink skirt.,the instructor shows the children dance moves. one of the children wears a purple skirt.,wolfe1,image-131,1,45,AHJJUX96EATA7,2021-01-07_07h36.03.854,MetaAwareness,2020.1.2,Win32,60,3X2YVV51PV7THTBCTC160LL7W8K1WN,AHJJUX96EATA7,3VZLGYJEYMD8N9Z41UBMIHEE7YEZXZ,EGZV5,EGZV5,3VZLGYJEYMD8N9Z41UBMIHEE7YEZXZ,3VZLGYJEYMD8N9Z41UBMIHEE7YEZXZ,267715,267715,,,,,,,,,,
,,,,4,1.146,0,29,29,367,1,a lady wearing a red dress enjoys lunch with her friend on a plaza.,a woman wearing a purple dress eats lunch with one of her friends.,wolfe1,image-091,4,45,AHJJUX96EATA7,2021-01-07_07h36.03.854,MetaAwareness,2020.1.2,Win32,60,3X2YVV51PV7THTBCTC160LL7W8K1WN,AHJJUX96EATA7,3VZLGYJEYMD8N9Z41UBMIHEE7YEZXZ,EGZV5,EGZV5,3VZLGYJEYMD8N9Z41UBMIHEE7YEZXZ,3VZLGYJEYMD8N9Z41UBMIHEE7YEZXZ,267715,267715,,,,,,,,,,
,,,,,,,,,,,,,,,,45,AHJJUX96EATA7,2021-01-07_07h36.03.854,MetaAwareness,2020.1.2,Win32,60,3X2YVV51PV7THTBCTC160LL7W8K1WN,AHJJUX96EATA7,3VZLGYJEYMD8N9Z41UBMIHEE7YEZXZ,EGZV5,EGZV5,3VZLGYJEYMD8N9Z41UBMIHEE7YEZXZ,3VZLGYJEYMD8N9Z41UBMIHEE7YEZXZ,267715,267715,3,1.993,someone laying underneath a blue beach umbrella on a crowded beach,someone laying underneath a blue beach umbrella on a crowded beach,same,1,2.754,members of a marching band crossing a track that all have feather plumes at the front of their hats,a cluttered and rustic looking cafe with 10 hanging lights,different