consent_response.keys,consent_response.rt,key_resp_2.keys,key_resp_2.rt,user_resp.keys,user_resp.rt,trials.thisRepN,trials.thisTrialN,trials.thisN,trials.thisIndex,trials.ran,image_1_text,image_2_text,database,image,number,age,worker_ID,date,expName,psychopyVersion,OS,frameRate,hitId,workerId,assignmentId,a,tp_a,b,tp_b,c,tp_c,catch_same_resp.keys,catch_same_resp.rt,image_1_text_catch_same,image_2_text_catch_same,image_catch_same,catch_different_resp.keys,catch_different_resp.rt,image_1_text_catch_different,image_2_text_catch_different,image_catch_different
space,1.779405,space,10.318335,5,4.381445,0,0,0,528,1,a pond with a yellow sign.,a pond with a dark orange sign.,wolfe1,image-119,5,38,AKQAI78JTXXC9,2021-01-07_08h59.02.875,MetaAwareness,2020.1.2,Win32,60,3FHTJGYT8O301Z4EZ98EFEHH50YPGE,AKQAI78JTXXC9,3TVRFO09GLIOIKI0MTKDA23GSP3LXZ,9FVT5,9FVT5,3TVRFO09GLIOIKI0MTKDA23GSP3LXZ,3TVRFO09GLIOIKI0MTKDA23GSP3LXZ,267715,267715,,,,,,,,,,
,,,,4,8.264365,0,1,1,549,1,a group of colorful buildings one with a sign in the window that is red and blue and says succo,a group of colorful buildings one with a sign in the window that is red and says succo,wolfe1,image-123,8,38,AKQAI78JTXXC9,2021-01-07_08h59.02.875,MetaAwareness,2020.1.2,Win32,60,3FHTJGYT8O301Z4EZ98EFEHH50YPGE,AKQAI78JTXXC9,3TVRFO09GLIOIKI0MTKDA23GSP3LXZ,9FVT5,9FVT5,3TVRFO09GLIOIKI0MTKDA23GSP3LXZ,3TVRFO09GLIOIKI0MTKDA23GSP3LXZ,267715,267715,,,,,,,,,,
,,,,5,5.25163,0,2,2,454,1,a series of platforms with pillows. there is a yellow pillow on the top tier.,a series of platforms with pillows. there is a green pillow on the top tier.,wolfe1,image-106,5,38,AKQAI78JTXXC9,2021-01-07_08h59.02.875,MetaAwareness,2020.1.2,Win32,60,3FHTJGYT8O301Z4EZ98EFEHH50YPGE,AKQAI78JTXXC9,3TVRFO09GLIOIKI0MTKDA23GSP3LXZ,9FVT5,9FVT5,3TVRFO09GLIOIKI0MTKDA23GSP3LXZ,3TVRFO09GLIOIKI0MTKDA23GSP3LXZ,267715,267715,,,,,,,,,,
,,,,5,8.68961,0,3,3,61,1,a minimalist looking room with a mirror and chair next to a low table with three plants,a minimalist looking room with a mirror and a chair next to a low table with two plants,wolfe1,image-011,4,38,AKQAI78JTXXC9,2021-01-07_08h59.02.875,MetaAwareness,2020.1.2,Win32,60,3FHTJGYT8O301Z4EZ98EFEHH50YPGE,AKQAI78JTXXC9,3TVRFO09GLIOIKI0MTKDA23GSP3LXZ,9FVT5,9FVT5,3TVRFO09GLIOIKI0MTKDA23GSP3LXZ,3TVRFO09GLIOIKI0MTKDA23GSP3LXZ,267715,267715,,,,,,,,,,
,,,,5,5.95938,0,4,4,332,1,a group of young hikers in which one hiker is checking out something in his red backpack,a group of young ikers in whic one hiker is checking out something in his green backpack,wolfe1,image-084,4,38,AKQAI78JTXXC9,2021-01-07_08h59.02.875,MetaAwareness,2020.1.2,Win32,60,3FHTJGYT8O301Z4EZ98EFEHH50YPGE,AKQAI78JTXXC9,3TVRFO09GLIOIKI0MTKDA23GSP3LXZ,9FVT5,9FVT5,3TVRFO09GLIOIKI0MTKDA23GSP3LXZ,3TVRFO09GLIOIKI0MTKDA23GSP3LXZ,267715,267715,,,,,,,,,,
,,,,4,2.61304,0,5,5,338,1,people at the beach and man in red hat,people at the beach and man in green hat,wolfe1,image-085,3,38,AKQAI78JTXXC9,2021-01-07_08h59.02.875,MetaAwareness,2020.1.2,Win32,60,3FHTJGYT8O301Z4EZ98EFEHH50YPGE,AKQAI78JTXXC9,3TVRFO09GLIOIKI0MTKDA23GSP3LXZ,9FVT5,9FVT5,3TVRFO09GLIOIKI0MTKDA23GSP3LXZ,3TVRFO09GLIOIKI0MTKDA23GSP3LXZ,267715,267715,,,,,,,,,,
,,,,6,6.938745,0,6,6,540,1,a crowded outdoor concert with someone wearing a light colored backpack and someone standing in front of them with a pink umbrella. ,a crowded outdoor concdert with somone wearing a light colored backpack and someone standing in front of them with a blue umbrella. ,wolfe1,image-122,2,38,AKQAI78JTXXC9,2021-01-07_08h59.02.875,MetaAwareness,2020.1.2,Win32,60,3FHTJGYT8O301Z4EZ98EFEHH50YPGE,AKQAI78JTXXC9,3TVRFO09GLIOIKI0MTKDA23GSP3LXZ,9FVT5,9FVT5,3TVRFO09GLIOIKI0MTKDA23GSP3LXZ,3TVRFO09GLIOIKI0MTKDA23GSP3LXZ,267715,267715,,,,,,,,,,
,,,,4,6.132655,0,7,7,535,1,an old boat with red life vests on it.,an old boat with green life vests on it.,wolfe1,image-121,3,38,AKQAI78JTXXC9,2021-01-07_08h59.02.875,MetaAwareness,2020.1.2,Win32,60,3FHTJGYT8O301Z4EZ98EFEHH50YPGE,AKQAI78JTXXC9,3TVRFO09GLIOIKI0MTKDA23GSP3LXZ,9FVT5,9FVT5,3TVRFO09GLIOIKI0MTKDA23GSP3LXZ,3TVRFO09GLIOIKI0MTKDA23GSP3LXZ,267715,267715,,,,,,,,,,
,,,,4,6.21967,0,8,8,492,1,a clothing store with red clothing on the signage.,a clothing store with yellow clothing on the signage. ,wolfe1,image-113,3,38,AKQAI78JTXXC9,2021-01-07_08h59.02.875,MetaAwareness,2020.1.2,Win32,60,3FHTJGYT8O301Z4EZ98EFEHH50YPGE,AKQAI78JTXXC9,3TVRFO09GLIOIKI0MTKDA23GSP3LXZ,9FVT5,9FVT5,3TVRFO09GLIOIKI0MTKDA23GSP3LXZ,3TVRFO09GLIOIKI0MTKDA23GSP3LXZ,267715,267715,,,,,,,,,,
,,,,4,7.492265,0,9,9,205,1,6 various colored containers sitting on a picnic table in a green house.,5 various colored container sitting on a picnic table in a green house.,wolfe1,image-037,2,38,AKQAI78JTXXC9,2021-01-07_08h59.02.875,MetaAwareness,2020.1.2,Win32,60,3FHTJGYT8O301Z4EZ98EFEHH50YPGE,AKQAI78JTXXC9,3TVRFO09GLIOIKI0MTKDA23GSP3LXZ,9FVT5,9FVT5,3TVRFO09GLIOIKI0MTKDA23GSP3LXZ,3TVRFO09GLIOIKI0MTKDA23GSP3LXZ,267715,267715,,,,,,,,,,
,,,,4,6.217155,0,10,10,496,1,people walking infront of a store with pink decorations hanging off its roof.,people walking infront of a store with yellow decorations hanging off its roof.,wolfe1,image-113,7,38,AKQAI78JTXXC9,2021-01-07_08h59.02.875,MetaAwareness,2020.1.2,Win32,60,3FHTJGYT8O301Z4EZ98EFEHH50YPGE,AKQAI78JTXXC9,3TVRFO09GLIOIKI0MTKDA23GSP3LXZ,9FVT5,9FVT5,3TVRFO09GLIOIKI0MTKDA23GSP3LXZ,3TVRFO09GLIOIKI0MTKDA23GSP3LXZ,267715,267715,,,,,,,,,,
,,,,4,5.87127,0,11,11,508,1,a lookout building near an athletic field with red metal coverings over the windows.,a lookout building near an athletic field with green metal coverings over the windows.,wolfe1,image-116,3,38,AKQAI78JTXXC9,2021-01-07_08h59.02.875,MetaAwareness,2020.1.2,Win32,60,3FHTJGYT8O301Z4EZ98EFEHH50YPGE,AKQAI78JTXXC9,3TVRFO09GLIOIKI0MTKDA23GSP3LXZ,9FVT5,9FVT5,3TVRFO09GLIOIKI0MTKDA23GSP3LXZ,3TVRFO09GLIOIKI0MTKDA23GSP3LXZ,267715,267715,,,,,,,,,,
,,,,6,8.032965,0,12,12,355,1,"a group of young boys, maybe teens and one young brown boy is wearing a striped t-shirt with blue, white and gray stripes","a group of young, teen boys, 5 sitting together and one of them is wearing a striped t-shirt with purple, whie and gray colors",wolfe1,image-089,2,38,AKQAI78JTXXC9,2021-01-07_08h59.02.875,MetaAwareness,2020.1.2,Win32,60,3FHTJGYT8O301Z4EZ98EFEHH50YPGE,AKQAI78JTXXC9,3TVRFO09GLIOIKI0MTKDA23GSP3LXZ,9FVT5,9FVT5,3TVRFO09GLIOIKI0MTKDA23GSP3LXZ,3TVRFO09GLIOIKI0MTKDA23GSP3LXZ,267715,267715,,,,,,,,,,
,,,,5,6.05137,0,13,13,366,1,people sitting at table in front of an office building outside and a woman with long curly hair and a red dress,people sitting at tables in front of an office building outside and a woman with long curly hair and a purple dress,wolfe1,image-091,3,38,AKQAI78JTXXC9,2021-01-07_08h59.02.875,MetaAwareness,2020.1.2,Win32,60,3FHTJGYT8O301Z4EZ98EFEHH50YPGE,AKQAI78JTXXC9,3TVRFO09GLIOIKI0MTKDA23GSP3LXZ,9FVT5,9FVT5,3TVRFO09GLIOIKI0MTKDA23GSP3LXZ,3TVRFO09GLIOIKI0MTKDA23GSP3LXZ,267715,267715,,,,,,,,,,
,,,,4,5.252225,0,14,14,326,1,six students are in class and there is a red decoration over the right sholder of the second student. ,six students are in class and there is a yellow decoration over the right sholder of the second student,wolfe1,image-083,5,38,AKQAI78JTXXC9,2021-01-07_08h59.02.875,MetaAwareness,2020.1.2,Win32,60,3FHTJGYT8O301Z4EZ98EFEHH50YPGE,AKQAI78JTXXC9,3TVRFO09GLIOIKI0MTKDA23GSP3LXZ,9FVT5,9FVT5,3TVRFO09GLIOIKI0MTKDA23GSP3LXZ,3TVRFO09GLIOIKI0MTKDA23GSP3LXZ,267715,267715,,,,,,,,,,
,,,,4,5.195455,0,15,15,507,1,"a runner is being interviewed on a track, there is a building with red shutters in the background","a runner is being interviewed on a track, there is a building with blue shutters in the background",wolfe1,image-116,2,38,AKQAI78JTXXC9,2021-01-07_08h59.02.875,MetaAwareness,2020.1.2,Win32,60,3FHTJGYT8O301Z4EZ98EFEHH50YPGE,AKQAI78JTXXC9,3TVRFO09GLIOIKI0MTKDA23GSP3LXZ,9FVT5,9FVT5,3TVRFO09GLIOIKI0MTKDA23GSP3LXZ,3TVRFO09GLIOIKI0MTKDA23GSP3LXZ,267715,267715,,,,,,,,,,
,,,,4,4.96045,0,16,16,360,1,"a busy street with people walking, including a woman with a red shirt","a busy street with people walking, including a woman with a green shirt",wolfe1,image-090,1,38,AKQAI78JTXXC9,2021-01-07_08h59.02.875,MetaAwareness,2020.1.2,Win32,60,3FHTJGYT8O301Z4EZ98EFEHH50YPGE,AKQAI78JTXXC9,3TVRFO09GLIOIKI0MTKDA23GSP3LXZ,9FVT5,9FVT5,3TVRFO09GLIOIKI0MTKDA23GSP3LXZ,3TVRFO09GLIOIKI0MTKDA23GSP3LXZ,267715,267715,,,,,,,,,,
,,,,5,4.8283,0,17,17,349,1,a woman carries a red cooler jug with a group of many children and adults while outside.,a woman carried a pink cooler jug with a group of many children and adults while outside.,wolfe1,image-088,1,38,AKQAI78JTXXC9,2021-01-07_08h59.02.875,MetaAwareness,2020.1.2,Win32,60,3FHTJGYT8O301Z4EZ98EFEHH50YPGE,AKQAI78JTXXC9,3TVRFO09GLIOIKI0MTKDA23GSP3LXZ,9FVT5,9FVT5,3TVRFO09GLIOIKI0MTKDA23GSP3LXZ,3TVRFO09GLIOIKI0MTKDA23GSP3LXZ,267715,267715,,,,,,,,,,
,,,,4,3.71633,0,18,18,563,1,a man in a blue shirt plays volleyball with a group,a man in a green shirt plays volleyball with a group,wolfe1,image-126,2,38,AKQAI78JTXXC9,2021-01-07_08h59.02.875,MetaAwareness,2020.1.2,Win32,60,3FHTJGYT8O301Z4EZ98EFEHH50YPGE,AKQAI78JTXXC9,3TVRFO09GLIOIKI0MTKDA23GSP3LXZ,9FVT5,9FVT5,3TVRFO09GLIOIKI0MTKDA23GSP3LXZ,3TVRFO09GLIOIKI0MTKDA23GSP3LXZ,267715,267715,,,,,,,,,,
,,,,4,5.21037,0,19,19,311,1,people congurgating at a outdoor restarurant. there is a table with a green umbrella.,people congrugating at a outdoor restaurant. there is a table with a pink umbrella.,wolfe1,image-080,4,38,AKQAI78JTXXC9,2021-01-07_08h59.02.875,MetaAwareness,2020.1.2,Win32,60,3FHTJGYT8O301Z4EZ98EFEHH50YPGE,AKQAI78JTXXC9,3TVRFO09GLIOIKI0MTKDA23GSP3LXZ,9FVT5,9FVT5,3TVRFO09GLIOIKI0MTKDA23GSP3LXZ,3TVRFO09GLIOIKI0MTKDA23GSP3LXZ,267715,267715,,,,,,,,,,
,,,,6,7.50267,0,20,20,509,1,two women help a young man prepare for a running marathon with a small building showing in the background which has reddish windows,two women help a young man prepare for a running marathon with a small building showing in the background which has black windows,wolfe1,image-116,4,38,AKQAI78JTXXC9,2021-01-07_08h59.02.875,MetaAwareness,2020.1.2,Win32,60,3FHTJGYT8O301Z4EZ98EFEHH50YPGE,AKQAI78JTXXC9,3TVRFO09GLIOIKI0MTKDA23GSP3LXZ,9FVT5,9FVT5,3TVRFO09GLIOIKI0MTKDA23GSP3LXZ,3TVRFO09GLIOIKI0MTKDA23GSP3LXZ,267715,267715,,,,,,,,,,
,,,,6,8.50696,0,21,21,459,1,"a rock surface with many candles, with a brown dish holding many colorful candles on their sides with a green and blue candle on top","a rock surface with many candles, with a brown dish holding many colorful candles with a purple and green candle on top",wolfe1,image-107,5,38,AKQAI78JTXXC9,2021-01-07_08h59.02.875,MetaAwareness,2020.1.2,Win32,60,3FHTJGYT8O301Z4EZ98EFEHH50YPGE,AKQAI78JTXXC9,3TVRFO09GLIOIKI0MTKDA23GSP3LXZ,9FVT5,9FVT5,3TVRFO09GLIOIKI0MTKDA23GSP3LXZ,3TVRFO09GLIOIKI0MTKDA23GSP3LXZ,267715,267715,,,,,,,,,,
,,,,5,4.915815,0,22,22,546,1,a line of brightly colored buildings with cars in front of them.  the blue building has a blue sign in the window,a line of brightly colored buildings with cars in front of them.  the blue building has a red sign in the window,wolfe1,image-123,5,38,AKQAI78JTXXC9,2021-01-07_08h59.02.875,MetaAwareness,2020.1.2,Win32,60,3FHTJGYT8O301Z4EZ98EFEHH50YPGE,AKQAI78JTXXC9,3TVRFO09GLIOIKI0MTKDA23GSP3LXZ,9FVT5,9FVT5,3TVRFO09GLIOIKI0MTKDA23GSP3LXZ,3TVRFO09GLIOIKI0MTKDA23GSP3LXZ,267715,267715,,,,,,,,,,
,,,,4,12.019425,0,23,23,140,1,large car festival with multiple cars on display. the cars have their hoods and trucks open. one red car in particular has a red and white barrol in front of it. ,large car festival with mulitple cars on display. the cars have their hoods and trucks open.,wolfe1,image-024,3,38,AKQAI78JTXXC9,2021-01-07_08h59.02.875,MetaAwareness,2020.1.2,Win32,60,3FHTJGYT8O301Z4EZ98EFEHH50YPGE,AKQAI78JTXXC9,3TVRFO09GLIOIKI0MTKDA23GSP3LXZ,9FVT5,9FVT5,3TVRFO09GLIOIKI0MTKDA23GSP3LXZ,3TVRFO09GLIOIKI0MTKDA23GSP3LXZ,267715,267715,,,,,,,,,,
,,,,4,6.896585,0,24,24,361,1,a woman in pink is walking down a busy commercial street in front of a large crowd,a woman in green is walking down a busy commercial street in front of  large crowd,wolfe1,image-090,2,38,AKQAI78JTXXC9,2021-01-07_08h59.02.875,MetaAwareness,2020.1.2,Win32,60,3FHTJGYT8O301Z4EZ98EFEHH50YPGE,AKQAI78JTXXC9,3TVRFO09GLIOIKI0MTKDA23GSP3LXZ,9FVT5,9FVT5,3TVRFO09GLIOIKI0MTKDA23GSP3LXZ,3TVRFO09GLIOIKI0MTKDA23GSP3LXZ,267715,267715,,,,,,,,,,
,,,,5,3.75931,0,25,25,373,1,a woman in white sneakers exercises with other seniors,a woman in purple sneakers exercises with other seniors,wolfe1,image-092,6,38,AKQAI78JTXXC9,2021-01-07_08h59.02.875,MetaAwareness,2020.1.2,Win32,60,3FHTJGYT8O301Z4EZ98EFEHH50YPGE,AKQAI78JTXXC9,3TVRFO09GLIOIKI0MTKDA23GSP3LXZ,9FVT5,9FVT5,3TVRFO09GLIOIKI0MTKDA23GSP3LXZ,3TVRFO09GLIOIKI0MTKDA23GSP3LXZ,267715,267715,,,,,,,,,,
,,,,1,4.991045,0,26,26,194,1,the rock can help the path,there is a rock missing,wolfe1,image-034,5,38,AKQAI78JTXXC9,2021-01-07_08h59.02.875,MetaAwareness,2020.1.2,Win32,60,3FHTJGYT8O301Z4EZ98EFEHH50YPGE,AKQAI78JTXXC9,3TVRFO09GLIOIKI0MTKDA23GSP3LXZ,9FVT5,9FVT5,3TVRFO09GLIOIKI0MTKDA23GSP3LXZ,3TVRFO09GLIOIKI0MTKDA23GSP3LXZ,267715,267715,,,,,,,,,,
,,,,5,8.04047,0,27,27,125,1,"three women are aiming bows, preparing to fire. there is an extra quiver of arrors at the far end of the row.","three women are aiming bows, readying to fire their arrows.",wolfe1,image-021,3,38,AKQAI78JTXXC9,2021-01-07_08h59.02.875,MetaAwareness,2020.1.2,Win32,60,3FHTJGYT8O301Z4EZ98EFEHH50YPGE,AKQAI78JTXXC9,3TVRFO09GLIOIKI0MTKDA23GSP3LXZ,9FVT5,9FVT5,3TVRFO09GLIOIKI0MTKDA23GSP3LXZ,3TVRFO09GLIOIKI0MTKDA23GSP3LXZ,267715,267715,,,,,,,,,,
,,,,5,10.08734,0,28,28,164,1,"a university building with seven windows on the roof, a person walking a path, and many bikes in the foreground.","a university building with six windows on the roof, a person walking a path, and many bikes in the foreground.",wolfe1,image-029,4,38,AKQAI78JTXXC9,2021-01-07_08h59.02.875,MetaAwareness,2020.1.2,Win32,60,3FHTJGYT8O301Z4EZ98EFEHH50YPGE,AKQAI78JTXXC9,3TVRFO09GLIOIKI0MTKDA23GSP3LXZ,9FVT5,9FVT5,3TVRFO09GLIOIKI0MTKDA23GSP3LXZ,3TVRFO09GLIOIKI0MTKDA23GSP3LXZ,267715,267715,,,,,,,,,,
,,,,3,3.8571,0,29,29,212,1,a parking lot with a yellow sign.,a parking lot with no signs.,wolfe1,image-038,4,38,AKQAI78JTXXC9,2021-01-07_08h59.02.875,MetaAwareness,2020.1.2,Win32,60,3FHTJGYT8O301Z4EZ98EFEHH50YPGE,AKQAI78JTXXC9,3TVRFO09GLIOIKI0MTKDA23GSP3LXZ,9FVT5,9FVT5,3TVRFO09GLIOIKI0MTKDA23GSP3LXZ,3TVRFO09GLIOIKI0MTKDA23GSP3LXZ,267715,267715,,,,,,,,,,
,,,,,,,,,,,,,,,,38,AKQAI78JTXXC9,2021-01-07_08h59.02.875,MetaAwareness,2020.1.2,Win32,60,3FHTJGYT8O301Z4EZ98EFEHH50YPGE,AKQAI78JTXXC9,3TVRFO09GLIOIKI0MTKDA23GSP3LXZ,9FVT5,9FVT5,3TVRFO09GLIOIKI0MTKDA23GSP3LXZ,3TVRFO09GLIOIKI0MTKDA23GSP3LXZ,267715,267715,6,6.869865,someone laying underneath a blue beach umbrella on a crowded beach,someone laying underneath a blue beach umbrella on a crowded beach,same,1,5.53433,members of a marching band crossing a track that all have feather plumes at the front of their hats,a cluttered and rustic looking cafe with 10 hanging lights,different