"workerId","stim_set","image","trial_number","log_rt","likelihood_rating","change_type","database","box_xmin","box_ymin","box_xmax","box_ymax","box_area","box_proportion","box_percent","change_area","change_proportion","change_percent","change_box_proportion","change_box_percent","centroid_x","centroid_y","a","b","eccentricity","Easiest_Hardest"
"A10MSB9X1UFLJ5","rensink","Barns",21,0.832764304940531,5,"color","rensink",135,303.5,220,432.5,10965,0.0313914,3.13914,8901,0.0254824,2.54824,0.811765,81.1765,177,372.5,173,123,212.269,"Hardest"
"A10MSB9X1UFLJ5","rensink","Chopper",10,1.11733759509592,1,"disappear","rensink",-1.5,413,702.5,505,64768,0.185316,18.5316,40727,0.116529,11.6529,0.628814,62.8814,336.5,462,13,212,212.398,"Hardest"
"A10MSB9X1UFLJ5","rensink","Market",16,0.827046017004734,4,"color","rensink",19,261,89,457,13720,0.0392,3.92,10953,0.0312943,3.12943,0.798324,79.8324,55,355,295,105,313.129,"Hardest"
"A171RZ3O028XF6","rensink","Market",5,0.818753590497717,4,"color","rensink",19,261,89,457,13720,0.0392,3.92,10953,0.0312943,3.12943,0.798324,79.8324,55,355,295,105,313.129,"Hardest"
"A171RZ3O028XF6","rensink","OtherDiver",8,0.929112256654661,1,"movement","rensink",475,221.5,703,400.5,40812,0.116839,11.6839,34605,0.0990696,9.90696,0.847912,84.7912,595,311.5,245,62,252.723,"Hardest"
"A1G187YBG0DVMQ","rensink","Barns",11,0.815378484965918,4,"color","rensink",135,303.5,220,432.5,10965,0.0313914,3.13914,8901,0.0254824,2.54824,0.811765,81.1765,177,372.5,173,123,212.269,"Hardest"
"A1G187YBG0DVMQ","rensink","Castle",23,0.672559627763276,1,"movement","rensink",259.5,360,561.5,438,23556,0.0675925,6.75925,13846,0.0397303,3.97303,0.587791,58.7791,414.5,403,66,153,166.628,"Hardest"
"A1G187YBG0DVMQ","rensink","Market",13,0.818225893613955,3,"color","rensink",19,261,89,457,13720,0.0392,3.92,10953,0.0312943,3.12943,0.798324,79.8324,55,355,295,105,313.129,"Hardest"
"A1GKD3NG1NNHRP","rensink","Castle",31,1.0321350468799,4,"movement","rensink",259.5,360,561.5,438,23556,0.0675925,6.75925,13846,0.0397303,3.97303,0.587791,58.7791,414.5,403,66,153,166.628,"Hardest"
"A1NR3COO33J99C","rensink","Chopper",11,0.828981954007923,3,"disappear","rensink",-1.5,413,702.5,505,64768,0.185316,18.5316,40727,0.116529,11.6529,0.628814,62.8814,336.5,462,13,212,212.398,"Hardest"
"A1QC1K71RGKZBI","rensink","Chopper",28,0.99281852006668,1,"disappear","rensink",-1.5,413,702.5,505,64768,0.185316,18.5316,40727,0.116529,11.6529,0.628814,62.8814,336.5,462,13,212,212.398,"Hardest"
"A1QC1K71RGKZBI","rensink","OtherDiver",30,0.956888454650077,1,"movement","rensink",475,221.5,703,400.5,40812,0.116839,11.6839,34605,0.0990696,9.90696,0.847912,84.7912,595,311.5,245,62,252.723,"Hardest"
"A2GOS6NF74E2ST","rensink","Barns",7,1.16885090370955,5,"color","rensink",135,303.5,220,432.5,10965,0.0313914,3.13914,8901,0.0254824,2.54824,0.811765,81.1765,177,372.5,173,123,212.269,"Hardest"
"A2GOS6NF74E2ST","rensink","Castle",22,1.04410838744612,1,"movement","rensink",259.5,360,561.5,438,23556,0.0675925,6.75925,13846,0.0397303,3.97303,0.587791,58.7791,414.5,403,66,153,166.628,"Hardest"
"A2GOS6NF74E2ST","rensink","Chopper",30,0.953759691733229,1,"disappear","rensink",-1.5,413,702.5,505,64768,0.185316,18.5316,40727,0.116529,11.6529,0.628814,62.8814,336.5,462,13,212,212.398,"Hardest"
"A2GOS6NF74E2ST","rensink","Market",26,0.943543977153454,5,"color","rensink",19,261,89,457,13720,0.0392,3.92,10953,0.0312943,3.12943,0.798324,79.8324,55,355,295,105,313.129,"Hardest"
"A2JDYN6QM8M5UN","rensink","Chopper",24,1.03346396607741,4,"disappear","rensink",-1.5,413,702.5,505,64768,0.185316,18.5316,40727,0.116529,11.6529,0.628814,62.8814,336.5,462,13,212,212.398,"Hardest"
"A2V4DP31BEVABF","rensink","Barns",22,1.23696529910298,3,"color","rensink",135,303.5,220,432.5,10965,0.0313914,3.13914,8901,0.0254824,2.54824,0.811765,81.1765,177,372.5,173,123,212.269,"Hardest"
"A2V4DP31BEVABF","rensink","Castle",4,1.09940437234554,2,"movement","rensink",259.5,360,561.5,438,23556,0.0675925,6.75925,13846,0.0397303,3.97303,0.587791,58.7791,414.5,403,66,153,166.628,"Hardest"
"A2V4DP31BEVABF","rensink","Chopper",29,1.1003360759337,1,"disappear","rensink",-1.5,413,702.5,505,64768,0.185316,18.5316,40727,0.116529,11.6529,0.628814,62.8814,336.5,462,13,212,212.398,"Hardest"
"A2V4DP31BEVABF","rensink","Market",12,1.27989498001164,2,"color","rensink",19,261,89,457,13720,0.0392,3.92,10953,0.0312943,3.12943,0.798324,79.8324,55,355,295,105,313.129,"Hardest"
"A2V4DP31BEVABF","rensink","OtherDiver",19,1.28742099575983,2,"movement","rensink",475,221.5,703,400.5,40812,0.116839,11.6839,34605,0.0990696,9.90696,0.847912,84.7912,595,311.5,245,62,252.723,"Hardest"
"A2Y4UMAUYJM9GK","rensink","Barns",30,0.682866795662325,5,"color","rensink",135,303.5,220,432.5,10965,0.0313914,3.13914,8901,0.0254824,2.54824,0.811765,81.1765,177,372.5,173,123,212.269,"Hardest"
"A2Y4UMAUYJM9GK","rensink","Chopper",28,0.674861140737812,2,"disappear","rensink",-1.5,413,702.5,505,64768,0.185316,18.5316,40727,0.116529,11.6529,0.628814,62.8814,336.5,462,13,212,212.398,"Hardest"
"A33AZCOKCCTUXV","rensink","Barns",29,1.04999285692014,3,"color","rensink",135,303.5,220,432.5,10965,0.0313914,3.13914,8901,0.0254824,2.54824,0.811765,81.1765,177,372.5,173,123,212.269,"Hardest"
"A33AZCOKCCTUXV","rensink","Castle",16,0.950608224784231,2,"movement","rensink",259.5,360,561.5,438,23556,0.0675925,6.75925,13846,0.0397303,3.97303,0.587791,58.7791,414.5,403,66,153,166.628,"Hardest"
"A33AZCOKCCTUXV","rensink","OtherDiver",6,1.02242837118549,1,"movement","rensink",475,221.5,703,400.5,40812,0.116839,11.6839,34605,0.0990696,9.90696,0.847912,84.7912,595,311.5,245,62,252.723,"Hardest"
"A3RYI5HXC2MJLN","rensink","Barns",31,0.813247300897605,5,"color","rensink",135,303.5,220,432.5,10965,0.0313914,3.13914,8901,0.0254824,2.54824,0.811765,81.1765,177,372.5,173,123,212.269,"Hardest"
"A3RYI5HXC2MJLN","rensink","OtherDiver",22,0.940068013739353,1,"movement","rensink",475,221.5,703,400.5,40812,0.116839,11.6839,34605,0.0990696,9.90696,0.847912,84.7912,595,311.5,245,62,252.723,"Hardest"
"A4WBW7FVQASZE","rensink","Barns",20,0.682054777073807,3,"color","rensink",135,303.5,220,432.5,10965,0.0313914,3.13914,8901,0.0254824,2.54824,0.811765,81.1765,177,372.5,173,123,212.269,"Hardest"
"A4WBW7FVQASZE","rensink","Chopper",13,0.689131197234498,2,"disappear","rensink",-1.5,413,702.5,505,64768,0.185316,18.5316,40727,0.116529,11.6529,0.628814,62.8814,336.5,462,13,212,212.398,"Hardest"
"A4WBW7FVQASZE","rensink","Market",32,0.818819507547536,3,"color","rensink",19,261,89,457,13720,0.0392,3.92,10953,0.0312943,3.12943,0.798324,79.8324,55,355,295,105,313.129,"Hardest"
"A6HDSE80LQPR8","rensink","Castle",31,0.814846668604463,3,"movement","rensink",259.5,360,561.5,438,23556,0.0675925,6.75925,13846,0.0397303,3.97303,0.587791,58.7791,414.5,403,66,153,166.628,"Hardest"
"A6HDSE80LQPR8","rensink","Chopper",26,0.842047288509638,1,"disappear","rensink",-1.5,413,702.5,505,64768,0.185316,18.5316,40727,0.116529,11.6529,0.628814,62.8814,336.5,462,13,212,212.398,"Hardest"
"A6HDSE80LQPR8","rensink","OtherDiver",7,0.860098329698518,2,"movement","rensink",475,221.5,703,400.5,40812,0.116839,11.6839,34605,0.0990696,9.90696,0.847912,84.7912,595,311.5,245,62,252.723,"Hardest"
"ADAL2H41ZBWAK","rensink","Barns",11,1.08668009373462,3,"color","rensink",135,303.5,220,432.5,10965,0.0313914,3.13914,8901,0.0254824,2.54824,0.811765,81.1765,177,372.5,173,123,212.269,"Hardest"
"ADAL2H41ZBWAK","rensink","Market",8,1.12152701645538,3,"color","rensink",19,261,89,457,13720,0.0392,3.92,10953,0.0312943,3.12943,0.798324,79.8324,55,355,295,105,313.129,"Hardest"
"ADAL2H41ZBWAK","rensink","OtherDiver",28,1.13839744299055,1,"movement","rensink",475,221.5,703,400.5,40812,0.116839,11.6839,34605,0.0990696,9.90696,0.847912,84.7912,595,311.5,245,62,252.723,"Hardest"
"AGRKG3YT3KMD8","rensink","Castle",19,0.833529581758644,2,"movement","rensink",259.5,360,561.5,438,23556,0.0675925,6.75925,13846,0.0397303,3.97303,0.587791,58.7791,414.5,403,66,153,166.628,"Hardest"
"AKG7VBOY97HKA","rensink","Barns",19,1.3174364965351,5,"color","rensink",135,303.5,220,432.5,10965,0.0313914,3.13914,8901,0.0254824,2.54824,0.811765,81.1765,177,372.5,173,123,212.269,"Hardest"
"AKG7VBOY97HKA","rensink","Chopper",17,1.14497873802003,1,"disappear","rensink",-1.5,413,702.5,505,64768,0.185316,18.5316,40727,0.116529,11.6529,0.628814,62.8814,336.5,462,13,212,212.398,"Hardest"
"ALDQRWYZ8KQ9A","rensink","Castle",27,0.945025201242463,4,"movement","rensink",259.5,360,561.5,438,23556,0.0675925,6.75925,13846,0.0397303,3.97303,0.587791,58.7791,414.5,403,66,153,166.628,"Hardest"
"ALDQRWYZ8KQ9A","rensink","Chopper",15,1.37339019962747,3,"disappear","rensink",-1.5,413,702.5,505,64768,0.185316,18.5316,40727,0.116529,11.6529,0.628814,62.8814,336.5,462,13,212,212.398,"Hardest"
"ALDQRWYZ8KQ9A","rensink","Market",20,1.1857970474462,4,"color","rensink",19,261,89,457,13720,0.0392,3.92,10953,0.0312943,3.12943,0.798324,79.8324,55,355,295,105,313.129,"Hardest"
"ALDQRWYZ8KQ9A","rensink","OtherDiver",22,1.18078513497344,2,"movement","rensink",475,221.5,703,400.5,40812,0.116839,11.6839,34605,0.0990696,9.90696,0.847912,84.7912,595,311.5,245,62,252.723,"Hardest"
"AP4A0MZOKR52J","rensink","Barns",21,1.12257627505719,5,"color","rensink",135,303.5,220,432.5,10965,0.0313914,3.13914,8901,0.0254824,2.54824,0.811765,81.1765,177,372.5,173,123,212.269,"Hardest"
"AP4A0MZOKR52J","rensink","Castle",23,0.963410015680229,1,"movement","rensink",259.5,360,561.5,438,23556,0.0675925,6.75925,13846,0.0397303,3.97303,0.587791,58.7791,414.5,403,66,153,166.628,"Hardest"
"AP4A0MZOKR52J","rensink","Chopper",9,1.17626494211415,2,"disappear","rensink",-1.5,413,702.5,505,64768,0.185316,18.5316,40727,0.116529,11.6529,0.628814,62.8814,336.5,462,13,212,212.398,"Hardest"
"AP4A0MZOKR52J","rensink","Market",20,1.12956100230908,4,"color","rensink",19,261,89,457,13720,0.0392,3.92,10953,0.0312943,3.12943,0.798324,79.8324,55,355,295,105,313.129,"Hardest"
"AP4A0MZOKR52J","rensink","OtherDiver",28,0.946943270697825,2,"movement","rensink",475,221.5,703,400.5,40812,0.116839,11.6839,34605,0.0990696,9.90696,0.847912,84.7912,595,311.5,245,62,252.723,"Hardest"
"APO6KZZ79PO9Q","rensink","Chopper",32,0.952695599586917,1,"disappear","rensink",-1.5,413,702.5,505,64768,0.185316,18.5316,40727,0.116529,11.6529,0.628814,62.8814,336.5,462,13,212,212.398,"Hardest"
"APO6KZZ79PO9Q","rensink","OtherDiver",24,1.18565545892022,1,"movement","rensink",475,221.5,703,400.5,40812,0.116839,11.6839,34605,0.0990696,9.90696,0.847912,84.7912,595,311.5,245,62,252.723,"Hardest"
"ARI1EMAHUA9PO","rensink","Barns",23,0.99563519459755,4,"color","rensink",135,303.5,220,432.5,10965,0.0313914,3.13914,8901,0.0254824,2.54824,0.811765,81.1765,177,372.5,173,123,212.269,"Hardest"
"ARI1EMAHUA9PO","rensink","Castle",9,1.28467883124167,1,"movement","rensink",259.5,360,561.5,438,23556,0.0675925,6.75925,13846,0.0397303,3.97303,0.587791,58.7791,414.5,403,66,153,166.628,"Hardest"
"ARI1EMAHUA9PO","rensink","Market",27,1.33183204443625,3,"color","rensink",19,261,89,457,13720,0.0392,3.92,10953,0.0312943,3.12943,0.798324,79.8324,55,355,295,105,313.129,"Hardest"
"AU7A3QNJF3O00","rensink","Barns",5,0.828079590556746,5,"color","rensink",135,303.5,220,432.5,10965,0.0313914,3.13914,8901,0.0254824,2.54824,0.811765,81.1765,177,372.5,173,123,212.269,"Hardest"
"AU7A3QNJF3O00","rensink","Market",4,0.877831891492894,4,"color","rensink",19,261,89,457,13720,0.0392,3.92,10953,0.0312943,3.12943,0.798324,79.8324,55,355,295,105,313.129,"Hardest"
"AU7A3QNJF3O00","rensink","OtherDiver",13,0.82885315967664,3,"movement","rensink",475,221.5,703,400.5,40812,0.116839,11.6839,34605,0.0990696,9.90696,0.847912,84.7912,595,311.5,245,62,252.723,"Hardest"
"AZ69TBTDH7AZS","rensink","Chopper",14,0.951337518795918,5,"disappear","rensink",-1.5,413,702.5,505,64768,0.185316,18.5316,40727,0.116529,11.6529,0.628814,62.8814,336.5,462,13,212,212.398,"Hardest"
"AZ69TBTDH7AZS","rensink","Market",22,0.945862324489617,5,"color","rensink",19,261,89,457,13720,0.0392,3.92,10953,0.0312943,3.12943,0.798324,79.8324,55,355,295,105,313.129,"Hardest"
"A12HWPFXQPITHD","ma","4247084",29,0.828917561616686,1,"movement","ma",202.5,17,258.5,77,3360,0.010075,1.0075,2954,0.00885757,0.885757,0.879167,87.9167,230.5,44,103,206,230.315,"Hardest"
"A12HWPFXQPITHD","ma","70687495",22,0.824190940652583,5,"replacement","ma",374.5,257,433.5,335,4602,0.0137991,1.37991,3947,0.0118351,1.18351,0.857671,85.7671,404.5,295,71,45,84.0595,"Hardest"
"A18CTR5TVQEXQB","ma","12115280",32,0.818423855092079,4,"color","ma",385.5,204,425.5,241,1480,0.00443778,0.443778,980,0.00293853,0.293853,0.662162,66.2162,404.5,220,71,30,77.0779,"Hardest"
"A18CTR5TVQEXQB","ma","32289063",26,0.822691010776055,3,"movement","ma",306.5,285,360.5,336,2754,0.00825787,0.825787,2196,0.00658471,0.658471,0.797386,79.7386,333.5,310,0,60,60,"Hardest"
"A18CTR5TVQEXQB","ma","77574131",29,0.823474229170301,5,"color","ma",27.5,49,114.5,152,8961,0.0268696,2.68696,6635,0.0198951,1.98951,0.740431,74.0431,70.5,99,263,151,303.266,"Hardest"
"A18CTR5TVQEXQB","ma","83536470",8,0.842858762445294,5,"disappear","ma",187.5,193,216.5,212,551,0.00165217,0.165217,480,0.00143928,0.143928,0.871143,87.1143,202.5,202,131,48,139.517,"Hardest"
"A1969Q0R4Y0E3J","ma","4247084",6,1.1226745132062,4,"movement","ma",202.5,17,258.5,77,3360,0.010075,1.0075,2954,0.00885757,0.885757,0.879167,87.9167,230.5,44,103,206,230.315,"Hardest"
"A1969Q0R4Y0E3J","ma","12115280",20,1.29955087849902,5,"color","ma",385.5,204,425.5,241,1480,0.00443778,0.443778,980,0.00293853,0.293853,0.662162,66.2162,404.5,220,71,30,77.0779,"Hardest"
"A1969Q0R4Y0E3J","ma","32289063",5,1.1791207296093,1,"movement","ma",306.5,285,360.5,336,2754,0.00825787,0.825787,2196,0.00658471,0.658471,0.797386,79.7386,333.5,310,0,60,60,"Hardest"
"A1969Q0R4Y0E3J","ma","38546029",10,1.18107145782262,5,"disappear","ma",344.5,405,371.5,433,756,0.00226687,0.226687,627,0.00188006,0.188006,0.829365,82.9365,357.5,419,24,169,170.696,"Hardest"
"A1969Q0R4Y0E3J","ma","44993860",15,0.966892295867136,1,"movement","ma",454.5,251,603.5,398,21903,0.0656762,6.56762,16183,0.0485247,4.85247,0.738849,73.8849,529.5,322,196,72,208.806,"Hardest"
"A1969Q0R4Y0E3J","ma","46475259",17,1.18358299235102,3,"color","ma",384.5,433,430.5,497,2944,0.00882759,0.882759,2375,0.00712144,0.712144,0.806726,80.6726,406.5,464,73,214,226.108,"Hardest"
"A1969Q0R4Y0E3J","ma","48384711",29,1.29738841188063,4,"color","ma",335.5,401,476.5,459,8178,0.0245217,2.45217,7279,0.0218261,2.18261,0.890071,89.0071,406.5,429,73,179,193.313,"Hardest"
"A1CX684F5TEO5W","ma","38546029",23,0.939069749923424,2,"disappear","ma",344.5,405,371.5,433,756,0.00226687,0.226687,627,0.00188006,0.188006,0.829365,82.9365,357.5,419,24,169,170.696,"Hardest"
"A1CX684F5TEO5W","ma","44993860",9,0.829561056299393,2,"movement","ma",454.5,251,603.5,398,21903,0.0656762,6.56762,16183,0.0485247,4.85247,0.738849,73.8849,529.5,322,196,72,208.806,"Hardest"
"A1CX684F5TEO5W","ma","48384711",13,0.967547976218862,4,"color","ma",335.5,401,476.5,459,8178,0.0245217,2.45217,7279,0.0218261,2.18261,0.890071,89.0071,406.5,429,73,179,193.313,"Hardest"
"A1CX684F5TEO5W","ma","67862299",17,0.829239428141389,1,"disappear","ma",53.5,218,132.5,240,1738,0.00521139,0.521139,1326,0.00397601,0.397601,0.762946,76.2946,90.5,227,243,23,244.086,"Hardest"
"A1CX684F5TEO5W","ma","70687495",5,0.884342147647059,4,"replacement","ma",374.5,257,433.5,335,4602,0.0137991,1.37991,3947,0.0118351,1.18351,0.857671,85.7671,404.5,295,71,45,84.0595,"Hardest"
"A1CX684F5TEO5W","ma","72488522",25,0.818555779297803,2,"movement","ma",328.5,244,413.5,305,5185,0.0155472,1.55472,4254,0.0127556,1.27556,0.820444,82.0444,369.5,275,36,25,43.8292,"Hardest"
"A1KZ21TSAYUHO4","ma","8197559",18,0.961848059018324,2,"size","ma",253.5,373,370.5,388,1755,0.00526237,0.526237,1503,0.00450675,0.450675,0.85641,85.641,308.5,380,25,130,132.382,"Hardest"
"A1KZ21TSAYUHO4","ma","12115280",26,1.40647205046568,2,"color","ma",385.5,204,425.5,241,1480,0.00443778,0.443778,980,0.00293853,0.293853,0.662162,66.2162,404.5,220,71,30,77.0779,"Hardest"
"A1KZ21TSAYUHO4","ma","46475259",7,0.98344585734134,2,"color","ma",384.5,433,430.5,497,2944,0.00882759,0.882759,2375,0.00712144,0.712144,0.806726,80.6726,406.5,464,73,214,226.108,"Hardest"
"A1KZ21TSAYUHO4","ma","67862299",17,1.10778638431595,2,"disappear","ma",53.5,218,132.5,240,1738,0.00521139,0.521139,1326,0.00397601,0.397601,0.762946,76.2946,90.5,227,243,23,244.086,"Hardest"
"A1KZ21TSAYUHO4","ma","69128765",4,1.11846313977537,3,"disappear","ma",126.5,265,226.5,357,9200,0.0275862,2.75862,5503,0.0165007,1.65007,0.598152,59.8152,175,310,158.5,60,169.476,"Hardest"
"A1KZ21TSAYUHO4","ma","77345858",30,1.11267201711713,5,"replacement","ma",286.5,337,357.5,387,3550,0.0106447,1.06447,2910,0.00872564,0.872564,0.819718,81.9718,324.5,363,9,113,113.358,"Hardest"
"A1KZ21TSAYUHO4","ma","77574131",11,1.05254004593402,3,"color","ma",27.5,49,114.5,152,8961,0.0268696,2.68696,6635,0.0198951,1.98951,0.740431,74.0431,70.5,99,263,151,303.266,"Hardest"
"A1KZ21TSAYUHO4","ma","86520382",22,1.05876755537042,1,"disappear","ma",624.5,286,632.5,353,536,0.0016072,0.16072,507,0.00152024,0.152024,0.945896,94.5896,628.5,317,295,67,302.513,"Hardest"
"A1KZ21TSAYUHO4","ma","87983207",10,1.04789762351441,2,"color","ma",14.5,239,94.5,299,4800,0.0143928,1.43928,3628,0.0108786,1.08786,0.755833,75.5833,52.5,265,281,15,281.4,"Hardest"
"A1WH32GYQOHIRQ","ma","8197559",10,1.36707624226875,1,"size","ma",253.5,373,370.5,388,1755,0.00526237,0.526237,1503,0.00450675,0.450675,0.85641,85.641,308.5,380,25,130,132.382,"Hardest"
"A1WH32GYQOHIRQ","ma","32289063",12,1.10663278892012,1,"movement","ma",306.5,285,360.5,336,2754,0.00825787,0.825787,2196,0.00658471,0.658471,0.797386,79.7386,333.5,310,0,60,60,"Hardest"
"A1WH32GYQOHIRQ","ma","38546029",27,1.02571538390134,1,"disappear","ma",344.5,405,371.5,433,756,0.00226687,0.226687,627,0.00188006,0.188006,0.829365,82.9365,357.5,419,24,169,170.696,"Hardest"
"A1WH32GYQOHIRQ","ma","67862299",13,0.95501390303805,2,"disappear","ma",53.5,218,132.5,240,1738,0.00521139,0.521139,1326,0.00397601,0.397601,0.762946,76.2946,90.5,227,243,23,244.086,"Hardest"
"A1WH32GYQOHIRQ","ma","69128765",21,0.939119717648487,1,"disappear","ma",126.5,265,226.5,357,9200,0.0275862,2.75862,5503,0.0165007,1.65007,0.598152,59.8152,175,310,158.5,60,169.476,"Hardest"
"A1WH32GYQOHIRQ","ma","70687495",32,0.843045810534569,5,"replacement","ma",374.5,257,433.5,335,4602,0.0137991,1.37991,3947,0.0118351,1.18351,0.857671,85.7671,404.5,295,71,45,84.0595,"Hardest"
"A1WH32GYQOHIRQ","ma","77345858",8,1.02551067285258,4,"replacement","ma",286.5,337,357.5,387,3550,0.0106447,1.06447,2910,0.00872564,0.872564,0.819718,81.9718,324.5,363,9,113,113.358,"Hardest"
"A1XKL37QKFITT1","ma","4247084",19,0.829175073917088,1,"movement","ma",202.5,17,258.5,77,3360,0.010075,1.0075,2954,0.00885757,0.885757,0.879167,87.9167,230.5,44,103,206,230.315,"Hardest"
"A1XKL37QKFITT1","ma","8197559",14,0.836070808915142,1,"size","ma",253.5,373,370.5,388,1755,0.00526237,0.526237,1503,0.00450675,0.450675,0.85641,85.641,308.5,380,25,130,132.382,"Hardest"
"A1XKL37QKFITT1","ma","44993860",8,0.820070034312326,1,"movement","ma",454.5,251,603.5,398,21903,0.0656762,6.56762,16183,0.0485247,4.85247,0.738849,73.8849,529.5,322,196,72,208.806,"Hardest"
"A1XKL37QKFITT1","ma","72488522",9,0.83803008298532,1,"movement","ma",328.5,244,413.5,305,5185,0.0155472,1.55472,4254,0.0127556,1.27556,0.820444,82.0444,369.5,275,36,25,43.8292,"Hardest"
"A1ZE52NWZPN85P","ma","4247084",31,1.1092409685882,4,"movement","ma",202.5,17,258.5,77,3360,0.010075,1.0075,2954,0.00885757,0.885757,0.879167,87.9167,230.5,44,103,206,230.315,"Hardest"
"A1ZE52NWZPN85P","ma","12115280",17,0.837777769553733,5,"color","ma",385.5,204,425.5,241,1480,0.00443778,0.443778,980,0.00293853,0.293853,0.662162,66.2162,404.5,220,71,30,77.0779,"Hardest"
"A1ZE52NWZPN85P","ma","67862299",8,0.826722520168992,3,"disappear","ma",53.5,218,132.5,240,1738,0.00521139,0.521139,1326,0.00397601,0.397601,0.762946,76.2946,90.5,227,243,23,244.086,"Hardest"
"A1ZE52NWZPN85P","ma","72488522",7,0.828144107303786,4,"movement","ma",328.5,244,413.5,305,5185,0.0155472,1.55472,4254,0.0127556,1.27556,0.820444,82.0444,369.5,275,36,25,43.8292,"Hardest"
"A1ZE52NWZPN85P","ma","77574131",19,1.11617589110035,4,"color","ma",27.5,49,114.5,152,8961,0.0268696,2.68696,6635,0.0198951,1.98951,0.740431,74.0431,70.5,99,263,151,303.266,"Hardest"
"A1ZE52NWZPN85P","ma","83536470",4,1.17802678827043,3,"disappear","ma",187.5,193,216.5,212,551,0.00165217,0.165217,480,0.00143928,0.143928,0.871143,87.1143,202.5,202,131,48,139.517,"Hardest"
"A1ZE52NWZPN85P","ma","86520382",27,1.03112557573157,1,"disappear","ma",624.5,286,632.5,353,536,0.0016072,0.16072,507,0.00152024,0.152024,0.945896,94.5896,628.5,317,295,67,302.513,"Hardest"
"A272X64FOZFYLB","ma","12115280",24,0.937618179393824,1,"color","ma",385.5,204,425.5,241,1480,0.00443778,0.443778,980,0.00293853,0.293853,0.662162,66.2162,404.5,220,71,30,77.0779,"Hardest"
"A272X64FOZFYLB","ma","32289063",25,1.32880757016209,3,"movement","ma",306.5,285,360.5,336,2754,0.00825787,0.825787,2196,0.00658471,0.658471,0.797386,79.7386,333.5,310,0,60,60,"Hardest"
"A272X64FOZFYLB","ma","44993860",20,0.937969002951453,1,"movement","ma",454.5,251,603.5,398,21903,0.0656762,6.56762,16183,0.0485247,4.85247,0.738849,73.8849,529.5,322,196,72,208.806,"Hardest"
"A272X64FOZFYLB","ma","46475259",5,1.22780960407522,1,"color","ma",384.5,433,430.5,497,2944,0.00882759,0.882759,2375,0.00712144,0.712144,0.806726,80.6726,406.5,464,73,214,226.108,"Hardest"
"A272X64FOZFYLB","ma","48384711",15,1.12070551565827,5,"color","ma",335.5,401,476.5,459,8178,0.0245217,2.45217,7279,0.0218261,2.18261,0.890071,89.0071,406.5,429,73,179,193.313,"Hardest"
"A272X64FOZFYLB","ma","67862299",4,1.22901594276341,2,"disappear","ma",53.5,218,132.5,240,1738,0.00521139,0.521139,1326,0.00397601,0.397601,0.762946,76.2946,90.5,227,243,23,244.086,"Hardest"
"A272X64FOZFYLB","ma","70687495",12,0.926908101705436,3,"replacement","ma",374.5,257,433.5,335,4602,0.0137991,1.37991,3947,0.0118351,1.18351,0.857671,85.7671,404.5,295,71,45,84.0595,"Hardest"
"A272X64FOZFYLB","ma","72488522",21,0.93049056530627,1,"movement","ma",328.5,244,413.5,305,5185,0.0155472,1.55472,4254,0.0127556,1.27556,0.820444,82.0444,369.5,275,36,25,43.8292,"Hardest"
"A272X64FOZFYLB","ma","86520382",13,1.32399420218197,1,"disappear","ma",624.5,286,632.5,353,536,0.0016072,0.16072,507,0.00152024,0.152024,0.945896,94.5896,628.5,317,295,67,302.513,"Hardest"
"A272X64FOZFYLB","ma","97475929",19,0.82795052830263,2,"movement","ma",347.5,375,411.5,425,3200,0.0095952,0.95952,2785,0.00835082,0.835082,0.870313,87.0312,378.5,398,45,148,154.69,"Hardest"
"A27EV0216FCLJW","ma","4247084",19,0.813046965160108,2,"movement","ma",202.5,17,258.5,77,3360,0.010075,1.0075,2954,0.00885757,0.885757,0.879167,87.9167,230.5,44,103,206,230.315,"Hardest"
"A27EV0216FCLJW","ma","32289063",10,0.833911715071378,3,"movement","ma",306.5,285,360.5,336,2754,0.00825787,0.825787,2196,0.00658471,0.658471,0.797386,79.7386,333.5,310,0,60,60,"Hardest"
"A27EV0216FCLJW","ma","77345858",11,0.942702368888668,4,"replacement","ma",286.5,337,357.5,387,3550,0.0106447,1.06447,2910,0.00872564,0.872564,0.819718,81.9718,324.5,363,9,113,113.358,"Hardest"
"A27EV0216FCLJW","ma","87983207",3,1.14195119586275,4,"color","ma",14.5,239,94.5,299,4800,0.0143928,1.43928,3628,0.0108786,1.08786,0.755833,75.5833,52.5,265,281,15,281.4,"Hardest"
"A27EV0216FCLJW","ma","97475929",9,0.831549851995756,2,"movement","ma",347.5,375,411.5,425,3200,0.0095952,0.95952,2785,0.00835082,0.835082,0.870313,87.0312,378.5,398,45,148,154.69,"Hardest"
"A27MJOV91GA8R3","ma","4247084",4,1.12684544064918,2,"movement","ma",202.5,17,258.5,77,3360,0.010075,1.0075,2954,0.00885757,0.885757,0.879167,87.9167,230.5,44,103,206,230.315,"Hardest"
"A27MJOV91GA8R3","ma","44993860",10,0.948168361727132,1,"movement","ma",454.5,251,603.5,398,21903,0.0656762,6.56762,16183,0.0485247,4.85247,0.738849,73.8849,529.5,322,196,72,208.806,"Hardest"
"A27MJOV91GA8R3","ma","48384711",25,1.32452937721199,4,"color","ma",335.5,401,476.5,459,8178,0.0245217,2.45217,7279,0.0218261,2.18261,0.890071,89.0071,406.5,429,73,179,193.313,"Hardest"
"A27MJOV91GA8R3","ma","70687495",13,1.28945516567028,5,"replacement","ma",374.5,257,433.5,335,4602,0.0137991,1.37991,3947,0.0118351,1.18351,0.857671,85.7671,404.5,295,71,45,84.0595,"Hardest"
"A27MJOV91GA8R3","ma","87983207",23,1.27760921430409,2,"color","ma",14.5,239,94.5,299,4800,0.0143928,1.43928,3628,0.0108786,1.08786,0.755833,75.5833,52.5,265,281,15,281.4,"Hardest"
"A27MJOV91GA8R3","ma","97475929",32,1.03269932749262,2,"movement","ma",347.5,375,411.5,425,3200,0.0095952,0.95952,2785,0.00835082,0.835082,0.870313,87.0312,378.5,398,45,148,154.69,"Hardest"
"A2CHDWKAYZ3P3E","ma","32289063",21,0.808616035426992,3,"movement","ma",306.5,285,360.5,336,2754,0.00825787,0.825787,2196,0.00658471,0.658471,0.797386,79.7386,333.5,310,0,60,60,"Hardest"
"A2CHDWKAYZ3P3E","ma","46475259",27,0.812043897930227,2,"color","ma",384.5,433,430.5,497,2944,0.00882759,0.882759,2375,0.00712144,0.712144,0.806726,80.6726,406.5,464,73,214,226.108,"Hardest"
"A2CHDWKAYZ3P3E","ma","77345858",3,0.938419645793193,5,"replacement","ma",286.5,337,357.5,387,3550,0.0106447,1.06447,2910,0.00872564,0.872564,0.819718,81.9718,324.5,363,9,113,113.358,"Hardest"
"A2CHDWKAYZ3P3E","ma","97475929",28,0.808346035740395,2,"movement","ma",347.5,375,411.5,425,3200,0.0095952,0.95952,2785,0.00835082,0.835082,0.870313,87.0312,378.5,398,45,148,154.69,"Hardest"
"A2FOUSWQDYHIE0","ma","4247084",17,1.06468256622851,3,"movement","ma",202.5,17,258.5,77,3360,0.010075,1.0075,2954,0.00885757,0.885757,0.879167,87.9167,230.5,44,103,206,230.315,"Hardest"
"A2FOUSWQDYHIE0","ma","67862299",19,1.16852694619269,3,"disappear","ma",53.5,218,132.5,240,1738,0.00521139,0.521139,1326,0.00397601,0.397601,0.762946,76.2946,90.5,227,243,23,244.086,"Hardest"
"A2FOUSWQDYHIE0","ma","72488522",10,0.925260509519435,3,"movement","ma",328.5,244,413.5,305,5185,0.0155472,1.55472,4254,0.0127556,1.27556,0.820444,82.0444,369.5,275,36,25,43.8292,"Hardest"
"A2FOUSWQDYHIE0","ma","77345858",22,1.16761267272753,4,"replacement","ma",286.5,337,357.5,387,3550,0.0106447,1.06447,2910,0.00872564,0.872564,0.819718,81.9718,324.5,363,9,113,113.358,"Hardest"
"A2HAP8SUY3WYKR","ma","12115280",5,0.68859777508117,5,"color","ma",385.5,204,425.5,241,1480,0.00443778,0.443778,980,0.00293853,0.293853,0.662162,66.2162,404.5,220,71,30,77.0779,"Hardest"
"A2HAP8SUY3WYKR","ma","46475259",26,0.673297439759636,4,"color","ma",384.5,433,430.5,497,2944,0.00882759,0.882759,2375,0.00712144,0.712144,0.806726,80.6726,406.5,464,73,214,226.108,"Hardest"
"A2HAP8SUY3WYKR","ma","48384711",17,0.825750581348028,3,"color","ma",335.5,401,476.5,459,8178,0.0245217,2.45217,7279,0.0218261,2.18261,0.890071,89.0071,406.5,429,73,179,193.313,"Hardest"
"A2HAP8SUY3WYKR","ma","67862299",31,0.675136504467994,5,"disappear","ma",53.5,218,132.5,240,1738,0.00521139,0.521139,1326,0.00397601,0.397601,0.762946,76.2946,90.5,227,243,23,244.086,"Hardest"
"A2HAP8SUY3WYKR","ma","70687495",14,0.68930885912362,4,"replacement","ma",374.5,257,433.5,335,4602,0.0137991,1.37991,3947,0.0118351,1.18351,0.857671,85.7671,404.5,295,71,45,84.0595,"Hardest"
"A2HAP8SUY3WYKR","ma","72488522",23,0.674401812845282,5,"movement","ma",328.5,244,413.5,305,5185,0.0155472,1.55472,4254,0.0127556,1.27556,0.820444,82.0444,369.5,275,36,25,43.8292,"Hardest"
"A2HAP8SUY3WYKR","ma","77574131",32,0.71717102683231,5,"color","ma",27.5,49,114.5,152,8961,0.0268696,2.68696,6635,0.0198951,1.98951,0.740431,74.0431,70.5,99,263,151,303.266,"Hardest"
"A2S591ZMEWMA5C","ma","8197559",6,0.871689665685515,1,"size","ma",253.5,373,370.5,388,1755,0.00526237,0.526237,1503,0.00450675,0.450675,0.85641,85.641,308.5,380,25,130,132.382,"Hardest"
"A2S591ZMEWMA5C","ma","67862299",17,0.959136831170374,1,"disappear","ma",53.5,218,132.5,240,1738,0.00521139,0.521139,1326,0.00397601,0.397601,0.762946,76.2946,90.5,227,243,23,244.086,"Hardest"
"A2S591ZMEWMA5C","ma","70687495",9,0.811306840081336,1,"replacement","ma",374.5,257,433.5,335,4602,0.0137991,1.37991,3947,0.0118351,1.18351,0.857671,85.7671,404.5,295,71,45,84.0595,"Hardest"
"A2S591ZMEWMA5C","ma","72488522",32,0.93028664724552,1,"movement","ma",328.5,244,413.5,305,5185,0.0155472,1.55472,4254,0.0127556,1.27556,0.820444,82.0444,369.5,275,36,25,43.8292,"Hardest"
"A2S591ZMEWMA5C","ma","83536470",14,0.938219417812743,1,"disappear","ma",187.5,193,216.5,212,551,0.00165217,0.165217,480,0.00143928,0.143928,0.871143,87.1143,202.5,202,131,48,139.517,"Hardest"
"A2VR9O234UCT9T","ma","4247084",11,1.03116599966066,2,"movement","ma",202.5,17,258.5,77,3360,0.010075,1.0075,2954,0.00885757,0.885757,0.879167,87.9167,230.5,44,103,206,230.315,"Hardest"
"A2VR9O234UCT9T","ma","8197559",18,0.959613711071044,1,"size","ma",253.5,373,370.5,388,1755,0.00526237,0.526237,1503,0.00450675,0.450675,0.85641,85.641,308.5,380,25,130,132.382,"Hardest"
"A2VR9O234UCT9T","ma","32289063",15,0.95104594813582,3,"movement","ma",306.5,285,360.5,336,2754,0.00825787,0.825787,2196,0.00658471,0.658471,0.797386,79.7386,333.5,310,0,60,60,"Hardest"
"A2VR9O234UCT9T","ma","38546029",4,0.876852647601344,1,"disappear","ma",344.5,405,371.5,433,756,0.00226687,0.226687,627,0.00188006,0.188006,0.829365,82.9365,357.5,419,24,169,170.696,"Hardest"
"A2VR9O234UCT9T","ma","70687495",30,1.115510662385,2,"replacement","ma",374.5,257,433.5,335,4602,0.0137991,1.37991,3947,0.0118351,1.18351,0.857671,85.7671,404.5,295,71,45,84.0595,"Hardest"
"A3493E42N1JZVF","ma","12115280",32,1.0258381642297,3,"color","ma",385.5,204,425.5,241,1480,0.00443778,0.443778,980,0.00293853,0.293853,0.662162,66.2162,404.5,220,71,30,77.0779,"Hardest"
"A3493E42N1JZVF","ma","44993860",12,1.22829767647486,2,"movement","ma",454.5,251,603.5,398,21903,0.0656762,6.56762,16183,0.0485247,4.85247,0.738849,73.8849,529.5,322,196,72,208.806,"Hardest"
"A3493E42N1JZVF","ma","67862299",9,1.10523760074602,4,"disappear","ma",53.5,218,132.5,240,1738,0.00521139,0.521139,1326,0.00397601,0.397601,0.762946,76.2946,90.5,227,243,23,244.086,"Hardest"
"A3493E42N1JZVF","ma","72488522",7,0.934750874663579,4,"movement","ma",328.5,244,413.5,305,5185,0.0155472,1.55472,4254,0.0127556,1.27556,0.820444,82.0444,369.5,275,36,25,43.8292,"Hardest"
"A3493E42N1JZVF","ma","77345858",20,0.816440167956139,3,"replacement","ma",286.5,337,357.5,387,3550,0.0106447,1.06447,2910,0.00872564,0.872564,0.819718,81.9718,324.5,363,9,113,113.358,"Hardest"
"A3493E42N1JZVF","ma","77574131",14,1.02909956682354,4,"color","ma",27.5,49,114.5,152,8961,0.0268696,2.68696,6635,0.0198951,1.98951,0.740431,74.0431,70.5,99,263,151,303.266,"Hardest"
"A3493E42N1JZVF","ma","83536470",19,0.932524497050542,3,"disappear","ma",187.5,193,216.5,212,551,0.00165217,0.165217,480,0.00143928,0.143928,0.871143,87.1143,202.5,202,131,48,139.517,"Hardest"
"A3493E42N1JZVF","ma","86520382",22,1.10693845073818,2,"disappear","ma",624.5,286,632.5,353,536,0.0016072,0.16072,507,0.00152024,0.152024,0.945896,94.5896,628.5,317,295,67,302.513,"Hardest"
"A3493E42N1JZVF","ma","87983207",31,0.936362919597744,4,"color","ma",14.5,239,94.5,299,4800,0.0143928,1.43928,3628,0.0108786,1.08786,0.755833,75.5833,52.5,265,281,15,281.4,"Hardest"
"A37C9M7J88EWEB","ma","12115280",22,0.940466677663529,4,"color","ma",385.5,204,425.5,241,1480,0.00443778,0.443778,980,0.00293853,0.293853,0.662162,66.2162,404.5,220,71,30,77.0779,"Hardest"
"A37C9M7J88EWEB","ma","44993860",16,1.33603924537104,1,"movement","ma",454.5,251,603.5,398,21903,0.0656762,6.56762,16183,0.0485247,4.85247,0.738849,73.8849,529.5,322,196,72,208.806,"Hardest"
"A37C9M7J88EWEB","ma","70687495",31,0.992906818223313,2,"replacement","ma",374.5,257,433.5,335,4602,0.0137991,1.37991,3947,0.0118351,1.18351,0.857671,85.7671,404.5,295,71,45,84.0595,"Hardest"
"A37C9M7J88EWEB","ma","77574131",28,0.947531745695593,2,"color","ma",27.5,49,114.5,152,8961,0.0268696,2.68696,6635,0.0198951,1.98951,0.740431,74.0431,70.5,99,263,151,303.266,"Hardest"
"A397QMUM40C4SH","ma","38546029",30,0.660391098402467,1,"disappear","ma",344.5,405,371.5,433,756,0.00226687,0.226687,627,0.00188006,0.188006,0.829365,82.9365,357.5,419,24,169,170.696,"Hardest"
"A397QMUM40C4SH","ma","48384711",26,0.66228551572213,4,"color","ma",335.5,401,476.5,459,8178,0.0245217,2.45217,7279,0.0218261,2.18261,0.890071,89.0071,406.5,429,73,179,193.313,"Hardest"
"A397QMUM40C4SH","ma","67862299",12,0.814979683760757,2,"disappear","ma",53.5,218,132.5,240,1738,0.00521139,0.521139,1326,0.00397601,0.397601,0.762946,76.2946,90.5,227,243,23,244.086,"Hardest"
"A3CWEN6Y21V7TL","ma","38546029",11,1.45354766038075,4,"disappear","ma",344.5,405,371.5,433,756,0.00226687,0.226687,627,0.00188006,0.188006,0.829365,82.9365,357.5,419,24,169,170.696,"Hardest"
"A3CWEN6Y21V7TL","ma","44993860",24,1.1136760118971,5,"movement","ma",454.5,251,603.5,398,21903,0.0656762,6.56762,16183,0.0485247,4.85247,0.738849,73.8849,529.5,322,196,72,208.806,"Hardest"
"A3CWEN6Y21V7TL","ma","72488522",14,1.77389610145997,5,"movement","ma",328.5,244,413.5,305,5185,0.0155472,1.55472,4254,0.0127556,1.27556,0.820444,82.0444,369.5,275,36,25,43.8292,"Hardest"
"A3CWEN6Y21V7TL","ma","77345858",13,0.8252313231999,5,"replacement","ma",286.5,337,357.5,387,3550,0.0106447,1.06447,2910,0.00872564,0.872564,0.819718,81.9718,324.5,363,9,113,113.358,"Hardest"
"A3D2GO0IFRFN6R","ma","46475259",5,1.2331484676931,4,"color","ma",384.5,433,430.5,497,2944,0.00882759,0.882759,2375,0.00712144,0.712144,0.806726,80.6726,406.5,464,73,214,226.108,"Hardest"
"A3D2GO0IFRFN6R","ma","69128765",10,1.02718646183674,5,"disappear","ma",126.5,265,226.5,357,9200,0.0275862,2.75862,5503,0.0165007,1.65007,0.598152,59.8152,175,310,158.5,60,169.476,"Hardest"
"A3D2GO0IFRFN6R","ma","77345858",22,0.82210266864692,4,"replacement","ma",286.5,337,357.5,387,3550,0.0106447,1.06447,2910,0.00872564,0.872564,0.819718,81.9718,324.5,363,9,113,113.358,"Hardest"
"A3D2GO0IFRFN6R","ma","83536470",27,1.02452671438715,4,"disappear","ma",187.5,193,216.5,212,551,0.00165217,0.165217,480,0.00143928,0.143928,0.871143,87.1143,202.5,202,131,48,139.517,"Hardest"
"A3EHDY67QENKPT","ma","4247084",8,0.949536373376143,3,"movement","ma",202.5,17,258.5,77,3360,0.010075,1.0075,2954,0.00885757,0.885757,0.879167,87.9167,230.5,44,103,206,230.315,"Hardest"
"A3EHDY67QENKPT","ma","8197559",5,0.99638031323341,1,"size","ma",253.5,373,370.5,388,1755,0.00526237,0.526237,1503,0.00450675,0.450675,0.85641,85.641,308.5,380,25,130,132.382,"Hardest"
"A3EHDY67QENKPT","ma","48384711",29,0.859738566197147,4,"color","ma",335.5,401,476.5,459,8178,0.0245217,2.45217,7279,0.0218261,2.18261,0.890071,89.0071,406.5,429,73,179,193.313,"Hardest"
"A3EHDY67QENKPT","ma","77345858",24,1.12273999296236,1,"replacement","ma",286.5,337,357.5,387,3550,0.0106447,1.06447,2910,0.00872564,0.872564,0.819718,81.9718,324.5,363,9,113,113.358,"Hardest"
"A3EHDY67QENKPT","ma","81993755",9,0.98109342314593,2,"disappear","ma",406.5,306,432.5,325,494,0.00148126,0.148126,355,0.00106447,0.106447,0.718623,71.8623,419.5,315,86,65,107.801,"Hardest"
"A3EHDY67QENKPT","ma","87983207",14,0.943543977153454,3,"color","ma",14.5,239,94.5,299,4800,0.0143928,1.43928,3628,0.0108786,1.08786,0.755833,75.5833,52.5,265,281,15,281.4,"Hardest"
"A3FBC5W56LKQXL","ma","4247084",29,1.3118809530379,2,"movement","ma",202.5,17,258.5,77,3360,0.010075,1.0075,2954,0.00885757,0.885757,0.879167,87.9167,230.5,44,103,206,230.315,"Hardest"
"A3FBC5W56LKQXL","ma","46475259",10,1.28853985067046,1,"color","ma",384.5,433,430.5,497,2944,0.00882759,0.882759,2375,0.00712144,0.712144,0.806726,80.6726,406.5,464,73,214,226.108,"Hardest"
"A3FBC5W56LKQXL","ma","67862299",6,1.38664162613563,1,"disappear","ma",53.5,218,132.5,240,1738,0.00521139,0.521139,1326,0.00397601,0.397601,0.762946,76.2946,90.5,227,243,23,244.086,"Hardest"
"A3FBC5W56LKQXL","ma","72488522",28,0.994625053768605,2,"movement","ma",328.5,244,413.5,305,5185,0.0155472,1.55472,4254,0.0127556,1.27556,0.820444,82.0444,369.5,275,36,25,43.8292,"Hardest"
"A3FBC5W56LKQXL","ma","77345858",8,1.25642908230325,4,"replacement","ma",286.5,337,357.5,387,3550,0.0106447,1.06447,2910,0.00872564,0.872564,0.819718,81.9718,324.5,363,9,113,113.358,"Hardest"
"A3FBC5W56LKQXL","ma","86520382",23,1.39839144022948,1,"disappear","ma",624.5,286,632.5,353,536,0.0016072,0.16072,507,0.00152024,0.152024,0.945896,94.5896,628.5,317,295,67,302.513,"Hardest"
"A3FBC5W56LKQXL","ma","87983207",25,1.0857185951654,1,"color","ma",14.5,239,94.5,299,4800,0.0143928,1.43928,3628,0.0108786,1.08786,0.755833,75.5833,52.5,265,281,15,281.4,"Hardest"
"A3FBC5W56LKQXL","ma","97475929",11,1.05484277922868,2,"movement","ma",347.5,375,411.5,425,3200,0.0095952,0.95952,2785,0.00835082,0.835082,0.870313,87.0312,378.5,398,45,148,154.69,"Hardest"
"A3NDPPBACRIXKH","ma","4247084",4,0.9505595616118,2,"movement","ma",202.5,17,258.5,77,3360,0.010075,1.0075,2954,0.00885757,0.885757,0.879167,87.9167,230.5,44,103,206,230.315,"Hardest"
"A3NDPPBACRIXKH","ma","12115280",23,0.82936810798882,3,"color","ma",385.5,204,425.5,241,1480,0.00443778,0.443778,980,0.00293853,0.293853,0.662162,66.2162,404.5,220,71,30,77.0779,"Hardest"
"A3NDPPBACRIXKH","ma","38546029",31,0.817102404256923,3,"disappear","ma",344.5,405,371.5,433,756,0.00226687,0.226687,627,0.00188006,0.188006,0.829365,82.9365,357.5,419,24,169,170.696,"Hardest"
"A3NDPPBACRIXKH","ma","44993860",24,0.820726762823834,4,"movement","ma",454.5,251,603.5,398,21903,0.0656762,6.56762,16183,0.0485247,4.85247,0.738849,73.8849,529.5,322,196,72,208.806,"Hardest"
"A3NDPPBACRIXKH","ma","67862299",3,0.897901874268228,1,"disappear","ma",53.5,218,132.5,240,1738,0.00521139,0.521139,1326,0.00397601,0.397601,0.762946,76.2946,90.5,227,243,23,244.086,"Hardest"
"A3NDPPBACRIXKH","ma","87983207",12,0.821251431545941,3,"color","ma",14.5,239,94.5,299,4800,0.0143928,1.43928,3628,0.0108786,1.08786,0.755833,75.5833,52.5,265,281,15,281.4,"Hardest"
"AA8PZKO9XGCKO","ma","8197559",15,0.94344504902503,1,"size","ma",253.5,373,370.5,388,1755,0.00526237,0.526237,1503,0.00450675,0.450675,0.85641,85.641,308.5,380,25,130,132.382,"Hardest"
"AA8PZKO9XGCKO","ma","12115280",9,1.02189187391911,1,"color","ma",385.5,204,425.5,241,1480,0.00443778,0.443778,980,0.00293853,0.293853,0.662162,66.2162,404.5,220,71,30,77.0779,"Hardest"
"AA8PZKO9XGCKO","ma","38546029",3,0.9831299247347,3,"disappear","ma",344.5,405,371.5,433,756,0.00226687,0.226687,627,0.00188006,0.188006,0.829365,82.9365,357.5,419,24,169,170.696,"Hardest"
"AA8PZKO9XGCKO","ma","70687495",19,0.9509487143994,4,"replacement","ma",374.5,257,433.5,335,4602,0.0137991,1.37991,3947,0.0118351,1.18351,0.857671,85.7671,404.5,295,71,45,84.0595,"Hardest"
"AA8PZKO9XGCKO","ma","86520382",14,0.837903944592942,1,"disappear","ma",624.5,286,632.5,353,536,0.0016072,0.16072,507,0.00152024,0.152024,0.945896,94.5896,628.5,317,295,67,302.513,"Hardest"
"AC2YW45VFGRVR","ma","4247084",25,1.03039730085676,1,"movement","ma",202.5,17,258.5,77,3360,0.010075,1.0075,2954,0.00885757,0.885757,0.879167,87.9167,230.5,44,103,206,230.315,"Hardest"
"AC2YW45VFGRVR","ma","32289063",18,1.27898211686544,1,"movement","ma",306.5,285,360.5,336,2754,0.00825787,0.825787,2196,0.00658471,0.658471,0.797386,79.7386,333.5,310,0,60,60,"Hardest"
"AC2YW45VFGRVR","ma","72488522",10,0.829625353358049,2,"movement","ma",328.5,244,413.5,305,5185,0.0155472,1.55472,4254,0.0127556,1.27556,0.820444,82.0444,369.5,275,36,25,43.8292,"Hardest"
"AC2YW45VFGRVR","ma","77345858",24,0.826851947820644,2,"replacement","ma",286.5,337,357.5,387,3550,0.0106447,1.06447,2910,0.00872564,0.872564,0.819718,81.9718,324.5,363,9,113,113.358,"Hardest"
"AC2YW45VFGRVR","ma","77574131",19,1.5043757014788,2,"color","ma",27.5,49,114.5,152,8961,0.0268696,2.68696,6635,0.0198951,1.98951,0.740431,74.0431,70.5,99,263,151,303.266,"Hardest"
"AC2YW45VFGRVR","ma","81993755",31,1.44219746431021,1,"disappear","ma",406.5,306,432.5,325,494,0.00148126,0.148126,355,0.00106447,0.106447,0.718623,71.8623,419.5,315,86,65,107.801,"Hardest"
"AC2YW45VFGRVR","ma","83536470",26,0.942504106168081,1,"disappear","ma",187.5,193,216.5,212,551,0.00165217,0.165217,480,0.00143928,0.143928,0.871143,87.1143,202.5,202,131,48,139.517,"Hardest"
"AC2YW45VFGRVR","ma","97475929",7,1.17190189073172,3,"movement","ma",347.5,375,411.5,425,3200,0.0095952,0.95952,2785,0.00835082,0.835082,0.870313,87.0312,378.5,398,45,148,154.69,"Hardest"
"AL8KOIH1DJ7D9","ma","12115280",29,1.23050001184147,1,"color","ma",385.5,204,425.5,241,1480,0.00443778,0.443778,980,0.00293853,0.293853,0.662162,66.2162,404.5,220,71,30,77.0779,"Hardest"
"AL8KOIH1DJ7D9","ma","32289063",13,0.93033763573773,1,"movement","ma",306.5,285,360.5,336,2754,0.00825787,0.825787,2196,0.00658471,0.658471,0.797386,79.7386,333.5,310,0,60,60,"Hardest"
"AL8KOIH1DJ7D9","ma","44993860",23,0.823734988398731,1,"movement","ma",454.5,251,603.5,398,21903,0.0656762,6.56762,16183,0.0485247,4.85247,0.738849,73.8849,529.5,322,196,72,208.806,"Hardest"
"AL8KOIH1DJ7D9","ma","46475259",20,0.960280464436642,2,"color","ma",384.5,433,430.5,497,2944,0.00882759,0.882759,2375,0.00712144,0.712144,0.806726,80.6726,406.5,464,73,214,226.108,"Hardest"
"AL8KOIH1DJ7D9","ma","67862299",16,0.841359470454855,3,"disappear","ma",53.5,218,132.5,240,1738,0.00521139,0.521139,1326,0.00397601,0.397601,0.762946,76.2946,90.5,227,243,23,244.086,"Hardest"
"AL8KOIH1DJ7D9","ma","77345858",19,0.937818684698356,1,"replacement","ma",286.5,337,357.5,387,3550,0.0106447,1.06447,2910,0.00872564,0.872564,0.819718,81.9718,324.5,363,9,113,113.358,"Hardest"
"AL8KOIH1DJ7D9","ma","77574131",32,1.03702787975578,2,"color","ma",27.5,49,114.5,152,8961,0.0268696,2.68696,6635,0.0198951,1.98951,0.740431,74.0431,70.5,99,263,151,303.266,"Hardest"
"AL8KOIH1DJ7D9","ma","87983207",10,0.934346926738256,1,"color","ma",14.5,239,94.5,299,4800,0.0143928,1.43928,3628,0.0108786,1.08786,0.755833,75.5833,52.5,265,281,15,281.4,"Hardest"
"AOFDUROJ8XRZT","ma","4247084",32,0.9505595616118,4,"movement","ma",202.5,17,258.5,77,3360,0.010075,1.0075,2954,0.00885757,0.885757,0.879167,87.9167,230.5,44,103,206,230.315,"Hardest"
"AOFDUROJ8XRZT","ma","38546029",22,0.960423207077829,2,"disappear","ma",344.5,405,371.5,433,756,0.00226687,0.226687,627,0.00188006,0.188006,0.829365,82.9365,357.5,419,24,169,170.696,"Hardest"
"AOFDUROJ8XRZT","ma","70687495",11,1.1120685042682,2,"replacement","ma",374.5,257,433.5,335,4602,0.0137991,1.37991,3947,0.0118351,1.18351,0.857671,85.7671,404.5,295,71,45,84.0595,"Hardest"
"AOFDUROJ8XRZT","ma","72488522",26,1.03051876484354,3,"movement","ma",328.5,244,413.5,305,5185,0.0155472,1.55472,4254,0.0127556,1.27556,0.820444,82.0444,369.5,275,36,25,43.8292,"Hardest"
"AOFDUROJ8XRZT","ma","77345858",28,1.03406667859756,5,"replacement","ma",286.5,337,357.5,387,3550,0.0106447,1.06447,2910,0.00872564,0.872564,0.819718,81.9718,324.5,363,9,113,113.358,"Hardest"
"AOFDUROJ8XRZT","ma","83536470",12,0.949780208362,3,"disappear","ma",187.5,193,216.5,212,551,0.00165217,0.165217,480,0.00143928,0.143928,0.871143,87.1143,202.5,202,131,48,139.517,"Hardest"
"AOFDUROJ8XRZT","ma","97475929",29,0.947825684442451,3,"movement","ma",347.5,375,411.5,425,3200,0.0095952,0.95952,2785,0.00835082,0.835082,0.870313,87.0312,378.5,398,45,148,154.69,"Hardest"
"AVD6HMIO1HLFI","ma","4247084",14,0.655426587745919,2,"movement","ma",202.5,17,258.5,77,3360,0.010075,1.0075,2954,0.00885757,0.885757,0.879167,87.9167,230.5,44,103,206,230.315,"Hardest"
"AVD6HMIO1HLFI","ma","44993860",28,0.669223873930806,2,"movement","ma",454.5,251,603.5,398,21903,0.0656762,6.56762,16183,0.0485247,4.85247,0.738849,73.8849,529.5,322,196,72,208.806,"Hardest"
"AVD6HMIO1HLFI","ma","46475259",25,0.679155241283354,2,"color","ma",384.5,433,430.5,497,2944,0.00882759,0.882759,2375,0.00712144,0.712144,0.806726,80.6726,406.5,464,73,214,226.108,"Hardest"
"AVD6HMIO1HLFI","ma","77345858",21,0.656098202012832,4,"replacement","ma",286.5,337,357.5,387,3550,0.0106447,1.06447,2910,0.00872564,0.872564,0.819718,81.9718,324.5,363,9,113,113.358,"Hardest"
"A10AVWALIHR4UQ","wolfe1","image-005",18,0.679881942112862,3,"disappear","wolfe",254.5,254,398.5,314,8640,0.025907,2.5907,5673,0.0170105,1.70105,0.656597,65.6597,330.5,281.5,3,31.5,31.6425,"Hardest"
"A10AVWALIHR4UQ","wolfe1","image-013",32,0.683587317572767,3,"disappear","wolfe",68.5,39,86.5,71,576,0.00172714,0.172714,509,0.00152624,0.152624,0.883681,88.3681,77.5,54,256,196,322.416,"Hardest"
"A10AVWALIHR4UQ","wolfe1","image-016",29,0.681964458994683,1,"disappear","wolfe",398.5,318,422.5,327,216,0.000647676,0.0647676,157,0.000470765,0.0470765,0.726852,72.6852,409.5,322,76,72,104.69,"Hardest"
"A10AVWALIHR4UQ","wolfe1","image-021",10,0.942751920429814,4,"disappear","wolfe",352.5,200,386.5,321,4114,0.0123358,1.23358,3048,0.00913943,0.913943,0.740885,74.0885,371.5,264,38,14,40.4969,"Hardest"
"A10AVWALIHR4UQ","wolfe1","image-022",23,0.806112110169091,1,"disappear","wolfe",182.5,273,230.5,289,768,0.00230285,0.230285,581,0.00174213,0.174213,0.75651,75.651,206.5,281,127,31,130.729,"Hardest"
"A10AVWALIHR4UQ","wolfe1","image-026",26,0.804412059137714,1,"disappear","wolfe",147.5,292,175.5,313,588,0.00176312,0.176312,478,0.00143328,0.143328,0.812925,81.2925,161.5,301,172,51,179.402,"Hardest"
"A10AVWALIHR4UQ","wolfe1","image-046",16,0.805160901599434,1,"disappear","wolfe",52.5,476,86.5,501,850,0.00254873,0.254873,791,0.00237181,0.237181,0.930588,93.0588,68.5,488,265,238,356.187,"Hardest"
"A10AVWALIHR4UQ","wolfe1","image-049",8,0.684486292188734,3,"disappear","wolfe",70.5,8,152.5,121,9266,0.0277841,2.77841,4535,0.0135982,1.35982,0.489424,48.9424,113.5,60,220,190,290.689,"Hardest"
"A10AVWALIHR4UQ","wolfe1","image-081",24,0.809896246602439,3,"color","wolfe",366.5,356,497.5,399,5633,0.0168906,1.68906,1336,0.004006,0.4006,0.237174,23.7174,412.833,379,79.3333,129,151.442,"Hardest"
"A10AVWALIHR4UQ","wolfe1","image-083",31,0.679155241283354,4,"color","wolfe",207.5,225,258.5,273,2448,0.00734033,0.734033,1959,0.00587406,0.587406,0.800245,80.0245,232.5,248,101,2,101.02,"Hardest"
"A10AVWALIHR4UQ","wolfe1","image-086",22,0.943642882752129,2,"color","wolfe",441.5,71,458.5,89,306,0.000917541,0.0917541,177,0.000530735,0.0530735,0.578431,57.8431,450.5,79,117,171,207.196,"Hardest"
"A10AVWALIHR4UQ","wolfe1","image-088",4,0.815378484965918,4,"color","wolfe",423.5,342,467.5,394,2288,0.00686057,0.686057,1770,0.00530735,0.530735,0.773601,77.3601,444.5,369,111,119,162.733,"Hardest"
"A10AVWALIHR4UQ","wolfe1","image-096",9,0.808210972924222,2,"color","wolfe",299.5,361,332.5,390,957,0.00286957,0.286957,289,0.000866567,0.0866567,0.301985,30.1985,311.5,372,22,122,123.968,"Hardest"
"A10AVWALIHR4UQ","wolfe1","image-106",27,0.699317301021382,4,"color","wolfe",431.5,121,470.5,161,1560,0.00665245,0.665245,1236,0.00527079,0.527079,0.792308,79.2308,453.5,143,219,107,243.742,"Hardest"
"A10AVWALIHR4UQ","wolfe1","image-110",17,0.723701893991268,5,"color","wolfe",502.5,209,670.5,269,10080,0.0302249,3.02249,9163,0.0274753,2.74753,0.909028,90.9028,583.5,238,250,12,250.288,"Hardest"
"A10AVWALIHR4UQ","wolfe1","image-115",21,0.67797175281074,4,"color","wolfe",105.5,305,168.5,379,4662,0.013979,1.3979,3336,0.010003,1.0003,0.715573,71.5573,139.5,338,194,88,213.026,"Hardest"
"A10AVWALIHR4UQ","wolfe1","image-121",28,0.810770011234364,4,"color","wolfe",218.5,308,305.5,338,2610,0.00782609,0.782609,2173,0.00651574,0.651574,0.832567,83.2567,259.5,323,74,73,103.947,"Hardest"
"A10AVWALIHR4UQ","wolfe1","image-124",7,0.933335410077651,2,"color","wolfe",558.5,127,619.5,302,10675,0.032009,3.2009,9764,0.0292774,2.92774,0.91466,91.466,588.5,216,255,34,257.257,"Hardest"
"A10AVWALIHR4UQ","wolfe1","image-133",11,0.805364907466445,2,"color","wolfe",447.5,143,488.5,219,3116,0.00934333,0.934333,2364,0.00708846,0.708846,0.758665,75.8665,470.5,184,137,66,152.069,"Hardest"
"A15SJZQBR8I3B3","wolfe1","image-016",30,0.965906915495192,1,"disappear","wolfe",398.5,318,422.5,327,216,0.000647676,0.0647676,157,0.000470765,0.0470765,0.726852,72.6852,409.5,322,76,72,104.69,"Hardest"
"A15SJZQBR8I3B3","wolfe1","image-021",18,0.936564005135266,5,"disappear","wolfe",352.5,200,386.5,321,4114,0.0123358,1.23358,3048,0.00913943,0.913943,0.740885,74.0885,371.5,264,38,14,40.4969,"Hardest"
"A15SJZQBR8I3B3","wolfe1","image-032",6,1.03173153994583,4,"disappear","wolfe",553.5,441,632.5,501,4740,0.0142129,1.42129,3653,0.0109535,1.09535,0.770675,77.0675,590.5,476,257,226,342.235,"Hardest"
"A15SJZQBR8I3B3","wolfe1","image-045",10,1.09061070782841,4,"disappear","wolfe",299.5,393,325.5,411,468,0.0014033,0.14033,407,0.00122039,0.122039,0.869658,86.9658,311.5,401,22,151,152.594,"Hardest"
"A15SJZQBR8I3B3","wolfe1","image-049",28,1.35013167387254,4,"disappear","wolfe",70.5,8,152.5,121,9266,0.0277841,2.77841,4535,0.0135982,1.35982,0.489424,48.9424,113.5,60,220,190,290.689,"Hardest"
"A15SJZQBR8I3B3","wolfe1","image-081",21,1.26019068326996,5,"color","wolfe",366.5,356,497.5,399,5633,0.0168906,1.68906,1336,0.004006,0.4006,0.237174,23.7174,412.833,379,79.3333,129,151.442,"Hardest"
"A15SJZQBR8I3B3","wolfe1","image-085",31,0.943296614566655,2,"color","wolfe",46.5,179,89.5,210,1333,0.003997,0.3997,978,0.00293253,0.293253,0.733683,73.3683,66.5,195,267,55,272.606,"Hardest"
"A15SJZQBR8I3B3","wolfe1","image-090",25,0.938769822783117,4,"color","wolfe",77.5,319,118.5,385,2706,0.00811394,0.811394,2133,0.0063958,0.63958,0.788248,78.8248,97.5,351,236,101,256.704,"Hardest"
"A15SJZQBR8I3B3","wolfe1","image-092",9,1.15173748103852,2,"color","wolfe",49.5,336,176.5,392,7112,0.0213253,2.13253,1312,0.00393403,0.393403,0.184477,18.4477,115,361.5,218.5,111.5,245.305,"Hardest"
"A15SJZQBR8I3B3","wolfe1","image-096",16,0.983400738180538,1,"color","wolfe",299.5,361,332.5,390,957,0.00286957,0.286957,289,0.000866567,0.0866567,0.301985,30.1985,311.5,372,22,122,123.968,"Hardest"
"A15SJZQBR8I3B3","wolfe1","image-099",4,1.28037346615012,4,"color","wolfe",532.5,177,601.5,257,5520,0.0165517,1.65517,2963,0.00888456,0.888456,0.536775,53.6775,569.833,209.667,236.333,40.3333,239.75,"Hardest"
"A15SJZQBR8I3B3","wolfe1","image-100",13,0.941958416530814,5,"color","wolfe",582.5,288,641.5,353,3835,0.0114993,1.14993,3289,0.00986207,0.986207,0.857627,85.7627,613.5,321,280,71,288.862,"Hardest"
"A15SJZQBR8I3B3","wolfe1","image-101",24,0.883434293683009,5,"color","wolfe",576.5,319,610.5,363,1496,0.00448576,0.448576,1240,0.00371814,0.371814,0.828877,82.8877,594.5,340,261,90,276.082,"Hardest"
"A15SJZQBR8I3B3","wolfe1","image-108",17,1.01089331310438,1,"color","wolfe",239.5,160,304.5,193,2145,0.00643178,0.643178,1497,0.00448876,0.448876,0.697902,69.7902,271.5,175,62,75,97.3088,"Hardest"
"A15SJZQBR8I3B3","wolfe1","image-113",15,0.947678739936937,4,"color","wolfe",270.5,283,337.5,329,3082,0.00924138,0.924138,2350,0.00704648,0.704648,0.762492,76.2492,301.5,305,32,55,63.6318,"Hardest"
"A15SJZQBR8I3B3","wolfe1","image-115",11,0.936513742478893,4,"color","wolfe",105.5,305,168.5,379,4662,0.013979,1.3979,3336,0.010003,1.0003,0.715573,71.5573,139.5,338,194,88,213.026,"Hardest"
"A15SJZQBR8I3B3","wolfe1","image-122",29,0.843357378437956,2,"color","wolfe",186.5,380,252.5,446,4356,0.0130615,1.30615,2376,0.00712444,0.712444,0.545455,54.5455,215.5,407,118,157,196.4,"Hardest"
"A15SJZQBR8I3B3","wolfe1","image-126",23,1.20779588520471,2,"color","wolfe",609.5,266,647.5,337,2698,0.00808996,0.808996,1804,0.0054093,0.54093,0.668643,66.8643,626.5,296,293,46,296.589,"Hardest"
"A15T9HDPHV3X7Q","wolfe1","image-007",30,1.03594977953667,3,"disappear","wolfe",119.5,210,289.5,265,9350,0.028036,2.8036,4518,0.0135472,1.35472,0.483209,48.3209,236.833,226,96.6667,24,99.6014,"Hardest"
"A15T9HDPHV3X7Q","wolfe1","image-029",22,1.02345823764368,3,"disappear","wolfe",280.5,105,314.5,137,1088,0.00326237,0.326237,916,0.00274663,0.274663,0.841912,84.1912,297.5,122,36,128,132.966,"Hardest"
"A15T9HDPHV3X7Q","wolfe1","image-031",17,1.28010011005492,2,"disappear","wolfe",160.5,248,191.5,276,868,0.0026027,0.26027,618,0.00185307,0.185307,0.711982,71.1982,175.5,263,158,13,158.534,"Hardest"
"A15T9HDPHV3X7Q","wolfe1","image-032",18,0.93444794894897,4,"disappear","wolfe",553.5,441,632.5,501,4740,0.0142129,1.42129,3653,0.0109535,1.09535,0.770675,77.0675,590.5,476,257,226,342.235,"Hardest"
"A15T9HDPHV3X7Q","wolfe1","image-037",11,0.945960703577569,4,"disappear","wolfe",176.5,341,261.5,385,3740,0.0112144,1.12144,2871,0.0086087,0.86087,0.767647,76.7647,219.5,365,114,115,161.929,"Hardest"
"A15T9HDPHV3X7Q","wolfe1","image-041",21,1.02284061087653,5,"disappear","wolfe",52.5,368,102.5,417,2450,0.00734633,0.734633,1909,0.00572414,0.572414,0.779184,77.9184,75.5,390,258,140,293.537,"Hardest"
"A15T9HDPHV3X7Q","wolfe1","image-042",28,1.02205702060116,2,"disappear","wolfe",204.5,62,218.5,103,574,0.00172114,0.172114,464,0.0013913,0.13913,0.808362,80.8362,211.5,83,122,167,206.816,"Hardest"
"A15T9HDPHV3X7Q","wolfe1","image-044",24,1.02172666441378,4,"disappear","wolfe",84.5,329,124.5,347,720,0.00215892,0.215892,533,0.0015982,0.15982,0.740278,74.0278,105.5,338,228,88,244.393,"Hardest"
"A15T9HDPHV3X7Q","wolfe1","image-106",16,0.990116766067904,2,"color","wolfe",431.5,121,470.5,161,1560,0.00665245,0.665245,1236,0.00527079,0.527079,0.792308,79.2308,453.5,143,219,107,243.742,"Hardest"
"A15T9HDPHV3X7Q","wolfe1","image-130",29,0.930999941956152,2,"color","wolfe",595.5,355,650.5,385,1650,0.00494753,0.494753,1335,0.004003,0.4003,0.809091,80.9091,621.5,371,288,121,312.386,"Hardest"
"A15T9HDPHV3X7Q","wolfe1","image-134",31,1.23842249588548,3,"color","wolfe",527.5,310,575.5,369,2832,0.00849175,0.849175,2057,0.00616792,0.616792,0.726342,72.6342,551.5,335,218,85,233.985,"Hardest"
"A1BIJGB7XA0GME","wolfe1","image-001",14,0.99334803992326,5,"disappear","wolfe",122.5,335,164.5,365,1260,0.00377811,0.377811,899,0.00269565,0.269565,0.713492,71.3492,142.5,350,191,100,215.595,"Hardest"
"A1BIJGB7XA0GME","wolfe1","image-024",5,1.5695143595107,1,"disappear","wolfe",346.5,418,374.5,462,1232,0.00369415,0.369415,753,0.00225787,0.225787,0.611201,61.1201,361,438.5,27.5,188.5,190.495,"Hardest"
"A1BIJGB7XA0GME","wolfe1","image-035",8,1.00307259596767,3,"disappear","wolfe",53.5,174,78.5,187,325,0.000974513,0.0974513,234,0.000701649,0.0701649,0.72,72,64.5,180,269,70,277.959,"Hardest"
"A1BIJGB7XA0GME","wolfe1","image-037",21,0.96736073996595,3,"disappear","wolfe",176.5,341,261.5,385,3740,0.0112144,1.12144,2871,0.0086087,0.86087,0.767647,76.7647,219.5,365,114,115,161.929,"Hardest"
"A1BIJGB7XA0GME","wolfe1","image-039",23,0.966798546383361,1,"disappear","wolfe",550.5,184,569.5,205,399,0.0011964,0.11964,372,0.00111544,0.111544,0.932331,93.2331,559.5,194,226,56,232.835,"Hardest"
"A1BIJGB7XA0GME","wolfe1","image-042",26,1.12772015289232,1,"disappear","wolfe",204.5,62,218.5,103,574,0.00172114,0.172114,464,0.0013913,0.13913,0.808362,80.8362,211.5,83,122,167,206.816,"Hardest"
"A1BIJGB7XA0GME","wolfe1","image-045",9,1.09947345601417,5,"disappear","wolfe",299.5,393,325.5,411,468,0.0014033,0.14033,407,0.00122039,0.122039,0.869658,86.9658,311.5,401,22,151,152.594,"Hardest"
"A1BIJGB7XA0GME","wolfe1","image-080",29,1.42918684490471,5,"color","wolfe",-1.5,163,73.5,213,3750,0.0112444,1.12444,2548,0.00764018,0.764018,0.679467,67.9467,27.5,190,306,60,311.827,"Hardest"
"A1BIJGB7XA0GME","wolfe1","image-087",25,1.33591903099071,3,"color","wolfe",187.5,256,239.5,290,1768,0.00530135,0.530135,1439,0.00431484,0.431484,0.813914,81.3914,210.5,273,123,23,125.132,"Hardest"
"A1BIJGB7XA0GME","wolfe1","image-088",31,0.83695673705955,1,"color","wolfe",423.5,342,467.5,394,2288,0.00686057,0.686057,1770,0.00530735,0.530735,0.773601,77.3601,444.5,369,111,119,162.733,"Hardest"
"A1BIJGB7XA0GME","wolfe1","image-100",12,0.974971994298069,5,"color","wolfe",582.5,288,641.5,353,3835,0.0114993,1.14993,3289,0.00986207,0.986207,0.857627,85.7627,613.5,321,280,71,288.862,"Hardest"
"A1BIJGB7XA0GME","wolfe1","image-103",20,1.38343833525666,1,"color","wolfe",131.5,312,168.5,388,2812,0.00843178,0.843178,1272,0.00381409,0.381409,0.452347,45.2347,146.833,339.667,186.667,89.6667,207.086,"Hardest"
"A1BIJGB7XA0GME","wolfe1","image-132",13,0.975937042483111,3,"color","wolfe",601.5,273,657.5,317,2464,0.00738831,0.738831,1744,0.00522939,0.522939,0.707792,70.7792,631.5,293,298,43,301.086,"Hardest"
"A1BIJGB7XA0GME","wolfe1","image-135",19,1.29484083643889,5,"color","wolfe",400.5,161,450.5,193,1600,0.0047976,0.47976,1257,0.00376912,0.376912,0.785625,78.5625,424.5,179,91,71,115.421,"Hardest"
"A1BWS5AD2T4NIR","wolfe1","image-008",19,0.940715656906663,4,"disappear","wolfe",513.5,81,569.5,150,3864,0.0115862,1.15862,2750,0.00824588,0.824588,0.711698,71.1698,543.5,116,210,134,249.11,"Hardest"
"A1BWS5AD2T4NIR","wolfe1","image-022",4,1.40742489879441,3,"disappear","wolfe",182.5,273,230.5,289,768,0.00230285,0.230285,581,0.00174213,0.174213,0.75651,75.651,206.5,281,127,31,130.729,"Hardest"
"A1BWS5AD2T4NIR","wolfe1","image-029",8,0.934144811792477,4,"disappear","wolfe",280.5,105,314.5,137,1088,0.00326237,0.326237,916,0.00274663,0.274663,0.841912,84.1912,297.5,122,36,128,132.966,"Hardest"
"A1BWS5AD2T4NIR","wolfe1","image-038",16,0.947139517642829,3,"disappear","wolfe",543.5,303,592.5,330,1323,0.00396702,0.396702,986,0.00295652,0.295652,0.745276,74.5276,565.5,316,232,66,241.205,"Hardest"
"A1BWS5AD2T4NIR","wolfe1","image-041",29,0.93049056530627,5,"disappear","wolfe",52.5,368,102.5,417,2450,0.00734633,0.734633,1909,0.00572414,0.572414,0.779184,77.9184,75.5,390,258,140,293.537,"Hardest"
"A1BWS5AD2T4NIR","wolfe1","image-042",22,1.53298356486296,4,"disappear","wolfe",204.5,62,218.5,103,574,0.00172114,0.172114,464,0.0013913,0.13913,0.808362,80.8362,211.5,83,122,167,206.816,"Hardest"
"A1BWS5AD2T4NIR","wolfe1","image-044",28,0.932118472029122,4,"disappear","wolfe",84.5,329,124.5,347,720,0.00215892,0.215892,533,0.0015982,0.15982,0.740278,74.0278,105.5,338,228,88,244.393,"Hardest"
"A1BWS5AD2T4NIR","wolfe1","image-048",11,1.22980978295254,4,"disappear","wolfe",423.5,29,469.5,69,1840,0.00551724,0.551724,1406,0.00421589,0.421589,0.76413,76.413,446.5,48,113,202,231.458,"Hardest"
"A1BWS5AD2T4NIR","wolfe1","image-083",12,1.50486487900771,4,"color","wolfe",207.5,225,258.5,273,2448,0.00734033,0.734033,1959,0.00587406,0.587406,0.800245,80.0245,232.5,248,101,2,101.02,"Hardest"
"A1BWS5AD2T4NIR","wolfe1","image-092",31,0.931356150467928,2,"color","wolfe",49.5,336,176.5,392,7112,0.0213253,2.13253,1312,0.00393403,0.393403,0.184477,18.4477,115,361.5,218.5,111.5,245.305,"Hardest"
"A1BWS5AD2T4NIR","wolfe1","image-093",24,0.841547165256553,3,"color","wolfe",221.5,200,256.5,248,1680,0.00503748,0.503748,1107,0.00331934,0.331934,0.658929,65.8929,237.5,224,96,26,99.4585,"Hardest"
"A1BWS5AD2T4NIR","wolfe1","image-097",15,0.932879457823799,2,"color","wolfe",94.5,358,138.5,418,2640,0.00791604,0.791604,2095,0.00628186,0.628186,0.793561,79.3561,115.5,388,218,138,258.008,"Hardest"
"A1BWS5AD2T4NIR","wolfe1","image-105",30,0.948608549876436,4,"color","wolfe",439.5,175,518.5,265,7110,0.0213193,2.13193,5171,0.0155052,1.55052,0.727286,72.7286,474.5,219,141,31,144.368,"Hardest"
"A1BWS5AD2T4NIR","wolfe1","image-106",18,1.03072112936046,4,"color","wolfe",431.5,121,470.5,161,1560,0.00665245,0.665245,1236,0.00527079,0.527079,0.792308,79.2308,453.5,143,219,107,243.742,"Hardest"
"A1BWS5AD2T4NIR","wolfe1","image-113",9,1.75492904554497,4,"color","wolfe",270.5,283,337.5,329,3082,0.00924138,0.924138,2350,0.00704648,0.704648,0.762492,76.2492,301.5,305,32,55,63.6318,"Hardest"
"A1BWS5AD2T4NIR","wolfe1","image-124",14,1.72405456886824,3,"color","wolfe",558.5,127,619.5,302,10675,0.032009,3.2009,9764,0.0292774,2.92774,0.91466,91.466,588.5,216,255,34,257.257,"Hardest"
"A1BWS5AD2T4NIR","wolfe1","image-125",6,1.68635916176102,4,"color","wolfe",81.5,348,130.5,401,2597,0.00778711,0.778711,1911,0.00573013,0.573013,0.735849,73.5849,104.5,373,229,123,259.942,"Hardest"
"A1CINWYLYY8SGL","wolfe1","image-003",14,0.786893325261316,4,"disappear","wolfe",-0.5,0,142.5,93,13299,0.0398771,3.98771,11671,0.0349955,3.49955,0.877585,87.7585,66.5,42,267,208,338.457,"Hardest"
"A1CINWYLYY8SGL","wolfe1","image-004",13,0.791339703965139,5,"disappear","wolfe",102.5,393,242.5,439,6440,0.0193103,1.93103,4455,0.0133583,1.33583,0.69177,69.177,171.5,414,162,164,230.521,"Hardest"
"A1CINWYLYY8SGL","wolfe1","image-016",6,0.733839000697149,1,"disappear","wolfe",398.5,318,422.5,327,216,0.000647676,0.0647676,157,0.000470765,0.0470765,0.726852,72.6852,409.5,322,76,72,104.69,"Hardest"
"A1CINWYLYY8SGL","wolfe1","image-046",8,1.01535975540921,3,"disappear","wolfe",52.5,476,86.5,501,850,0.00254873,0.254873,791,0.00237181,0.237181,0.930588,93.0588,68.5,488,265,238,356.187,"Hardest"
"A1CINWYLYY8SGL","wolfe1","image-047",26,1.12956100230908,2,"disappear","wolfe",147.5,318,165.5,341,414,0.00124138,0.124138,334,0.0010015,0.10015,0.806763,80.6763,155.5,329,178,79,194.743,"Hardest"
"A1CINWYLYY8SGL","wolfe1","image-077",22,0.701999474889637,4,"color","wolfe",356.5,304,400.5,369,2860,0.00857571,0.857571,2036,0.00610495,0.610495,0.711888,71.1888,380.5,333,47,83,95.3834,"Hardest"
"A1CINWYLYY8SGL","wolfe1","image-079",5,0.996161293368007,1,"color","wolfe",154.5,169,175.5,203,714,0.00214093,0.214093,335,0.0010045,0.10045,0.469188,46.9188,161.833,188,171.667,62,182.52,"Hardest"
"A1CINWYLYY8SGL","wolfe1","image-083",18,0.816042340921997,4,"color","wolfe",207.5,225,258.5,273,2448,0.00734033,0.734033,1959,0.00587406,0.587406,0.800245,80.0245,232.5,248,101,2,101.02,"Hardest"
"A1CINWYLYY8SGL","wolfe1","image-089",15,1.10913964390402,5,"color","wolfe",337.5,263,434.5,423,15520,0.0465367,4.65367,7248,0.0217331,2.17331,0.46701,46.701,388.5,339,55,89,104.623,"Hardest"
"A1CINWYLYY8SGL","wolfe1","image-100",27,0.934649922900711,3,"color","wolfe",582.5,288,641.5,353,3835,0.0114993,1.14993,3289,0.00986207,0.986207,0.857627,85.7627,613.5,321,280,71,288.862,"Hardest"
"A1CINWYLYY8SGL","wolfe1","image-110",25,0.962037686565013,4,"color","wolfe",502.5,209,670.5,269,10080,0.0302249,3.02249,9163,0.0274753,2.74753,0.909028,90.9028,583.5,238,250,12,250.288,"Hardest"
"A1CINWYLYY8SGL","wolfe1","image-121",12,1.13030159734184,2,"color","wolfe",218.5,308,305.5,338,2610,0.00782609,0.782609,2173,0.00651574,0.651574,0.832567,83.2567,259.5,323,74,73,103.947,"Hardest"
"A1CINWYLYY8SGL","wolfe1","image-125",16,0.819543935541869,3,"color","wolfe",81.5,348,130.5,401,2597,0.00778711,0.778711,1911,0.00573013,0.573013,0.735849,73.5849,104.5,373,229,123,259.942,"Hardest"
"A1FKRZKU1H9YFC","wolfe1","image-003",14,0.929980590515515,4,"disappear","wolfe",-0.5,0,142.5,93,13299,0.0398771,3.98771,11671,0.0349955,3.49955,0.877585,87.7585,66.5,42,267,208,338.457,"Hardest"
"A1FKRZKU1H9YFC","wolfe1","image-004",23,0.931712067056756,5,"disappear","wolfe",102.5,393,242.5,439,6440,0.0193103,1.93103,4455,0.0133583,1.33583,0.69177,69.177,171.5,414,162,164,230.521,"Hardest"
"A1FKRZKU1H9YFC","wolfe1","image-005",24,0.934801341746537,4,"disappear","wolfe",254.5,254,398.5,314,8640,0.025907,2.5907,5673,0.0170105,1.70105,0.656597,65.6597,330.5,281.5,3,31.5,31.6425,"Hardest"
"A1FKRZKU1H9YFC","wolfe1","image-007",29,1.10876791767808,3,"disappear","wolfe",119.5,210,289.5,265,9350,0.028036,2.8036,4518,0.0135472,1.35472,0.483209,48.3209,236.833,226,96.6667,24,99.6014,"Hardest"
"A1FKRZKU1H9YFC","wolfe1","image-013",22,1.02726804246662,4,"disappear","wolfe",68.5,39,86.5,71,576,0.00172714,0.172714,509,0.00152624,0.152624,0.883681,88.3681,77.5,54,256,196,322.416,"Hardest"
"A1FKRZKU1H9YFC","wolfe1","image-031",19,0.94299959336604,4,"disappear","wolfe",160.5,248,191.5,276,868,0.0026027,0.26027,618,0.00185307,0.185307,0.711982,71.1982,175.5,263,158,13,158.534,"Hardest"
"A1FKRZKU1H9YFC","wolfe1","image-038",28,0.946894195102327,4,"disappear","wolfe",543.5,303,592.5,330,1323,0.00396702,0.396702,986,0.00295652,0.295652,0.745276,74.5276,565.5,316,232,66,241.205,"Hardest"
"A1FKRZKU1H9YFC","wolfe1","image-045",15,1.32888903983956,5,"disappear","wolfe",299.5,393,325.5,411,468,0.0014033,0.14033,407,0.00122039,0.122039,0.869658,86.9658,311.5,401,22,151,152.594,"Hardest"
"A1FKRZKU1H9YFC","wolfe1","image-085",17,1.03197368909172,4,"color","wolfe",46.5,179,89.5,210,1333,0.003997,0.3997,978,0.00293253,0.293253,0.733683,73.3683,66.5,195,267,55,272.606,"Hardest"
"A1FKRZKU1H9YFC","wolfe1","image-093",21,1.10578259781444,4,"color","wolfe",221.5,200,256.5,248,1680,0.00503748,0.503748,1107,0.00331934,0.331934,0.658929,65.8929,237.5,224,96,26,99.4585,"Hardest"
"A1FKRZKU1H9YFC","wolfe1","image-094",11,0.862369937122882,4,"color","wolfe",224,201,249,228,675,0.0027,0.27,453,0.001812,0.1812,0.671111,67.1111,236,213,14,37,39.5601,"Hardest"
"A1FKRZKU1H9YFC","wolfe1","image-097",18,1.24174565257064,4,"color","wolfe",94.5,358,138.5,418,2640,0.00791604,0.791604,2095,0.00628186,0.628186,0.793561,79.3561,115.5,388,218,138,258.008,"Hardest"
"A1FKRZKU1H9YFC","wolfe1","image-098",20,1.03076159095102,4,"color","wolfe",246.5,396,285.5,445,1911,0.00561233,0.561233,1506,0.00442291,0.442291,0.788069,78.8069,264.5,420,76,170,186.215,"Hardest"
"A1FKRZKU1H9YFC","wolfe1","image-107",25,1.03261876085072,5,"color","wolfe",206.5,253,273.5,328,5025,0.0150675,1.50675,3059,0.00917241,0.917241,0.608756,60.8756,239.5,288,94,38,101.39,"Hardest"
"A1FKRZKU1H9YFC","wolfe1","image-108",27,1.32925546437964,2,"color","wolfe",239.5,160,304.5,193,2145,0.00643178,0.643178,1497,0.00448876,0.448876,0.697902,69.7902,271.5,175,62,75,97.3088,"Hardest"
"A1FKRZKU1H9YFC","wolfe1","image-112",31,1.36664705139085,5,"color","wolfe",404.5,196,464.5,270,4440,0.0133133,1.33133,3326,0.00997301,0.997301,0.749099,74.9099,434.5,232,101,18,102.591,"Hardest"
"A1H2UHJ78F185L","wolfe1","image-004",21,1.03402652377511,3,"disappear","wolfe",102.5,393,242.5,439,6440,0.0193103,1.93103,4455,0.0133583,1.33583,0.69177,69.177,171.5,414,162,164,230.521,"Hardest"
"A1H2UHJ78F185L","wolfe1","image-007",31,0.959899587865944,2,"disappear","wolfe",119.5,210,289.5,265,9350,0.028036,2.8036,4518,0.0135472,1.35472,0.483209,48.3209,236.833,226,96.6667,24,99.6014,"Hardest"
"A1H2UHJ78F185L","wolfe1","image-026",11,0.942504106168081,1,"disappear","wolfe",147.5,292,175.5,313,588,0.00176312,0.176312,478,0.00143328,0.143328,0.812925,81.2925,161.5,301,172,51,179.402,"Hardest"
"A1H2UHJ78F185L","wolfe1","image-046",12,1.36934575513467,1,"disappear","wolfe",52.5,476,86.5,501,850,0.00254873,0.254873,791,0.00237181,0.237181,0.930588,93.0588,68.5,488,265,238,356.187,"Hardest"
"A1H2UHJ78F185L","wolfe1","image-049",8,1.28760020635995,3,"disappear","wolfe",70.5,8,152.5,121,9266,0.0277841,2.77841,4535,0.0135982,1.35982,0.489424,48.9424,113.5,60,220,190,290.689,"Hardest"
"A1H2UHJ78F185L","wolfe1","image-080",20,0.837651557846392,4,"color","wolfe",-1.5,163,73.5,213,3750,0.0112444,1.12444,2548,0.00764018,0.764018,0.679467,67.9467,27.5,190,306,60,311.827,"Hardest"
"A1H2UHJ78F185L","wolfe1","image-087",23,0.937868796563859,2,"color","wolfe",187.5,256,239.5,290,1768,0.00530135,0.530135,1439,0.00431484,0.431484,0.813914,81.3914,210.5,273,123,23,125.132,"Hardest"
"A1H2UHJ78F185L","wolfe1","image-088",26,1.28641155589598,3,"color","wolfe",423.5,342,467.5,394,2288,0.00686057,0.686057,1770,0.00530735,0.530735,0.773601,77.3601,444.5,369,111,119,162.733,"Hardest"
"A1H2UHJ78F185L","wolfe1","image-089",22,0.939668983522327,4,"color","wolfe",337.5,263,434.5,423,15520,0.0465367,4.65367,7248,0.0217331,2.17331,0.46701,46.701,388.5,339,55,89,104.623,"Hardest"
"A1H2UHJ78F185L","wolfe1","image-105",17,0.948315140689348,2,"color","wolfe",439.5,175,518.5,265,7110,0.0213193,2.13193,5171,0.0155052,1.55052,0.727286,72.7286,474.5,219,141,31,144.368,"Hardest"
"A1H2UHJ78F185L","wolfe1","image-115",9,1.18150058846776,3,"color","wolfe",105.5,305,168.5,379,4662,0.013979,1.3979,3336,0.010003,1.0003,0.715573,71.5573,139.5,338,194,88,213.026,"Hardest"
"A1H2UHJ78F185L","wolfe1","image-121",18,1.18261434773635,2,"color","wolfe",218.5,308,305.5,338,2610,0.00782609,0.782609,2173,0.00651574,0.651574,0.832567,83.2567,259.5,323,74,73,103.947,"Hardest"
"A1H2UHJ78F185L","wolfe1","image-135",3,0.870579460552685,4,"color","wolfe",400.5,161,450.5,193,1600,0.0047976,0.47976,1257,0.00376912,0.376912,0.785625,78.5625,424.5,179,91,71,115.421,"Hardest"
"A1OM5NWYYYJKQW","wolfe1","image-004",6,0.848497018090367,2,"disappear","wolfe",102.5,393,242.5,439,6440,0.0193103,1.93103,4455,0.0133583,1.33583,0.69177,69.177,171.5,414,162,164,230.521,"Hardest"
"A1OM5NWYYYJKQW","wolfe1","image-009",17,0.951143160107553,2,"disappear","wolfe",335.5,202,376.5,241,1599,0.0047946,0.47946,1214,0.00364018,0.364018,0.759225,75.9225,354.5,223,21,27,34.2053,"Hardest"
"A1OM5NWYYYJKQW","wolfe1","image-024",26,0.839792184445329,2,"disappear","wolfe",346.5,418,374.5,462,1232,0.00369415,0.369415,753,0.00225787,0.225787,0.611201,61.1201,361,438.5,27.5,188.5,190.495,"Hardest"
"A1OM5NWYYYJKQW","wolfe1","image-037",19,0.832955750604598,2,"disappear","wolfe",176.5,341,261.5,385,3740,0.0112144,1.12144,2871,0.0086087,0.86087,0.767647,76.7647,219.5,365,114,115,161.929,"Hardest"
"A1OM5NWYYYJKQW","wolfe1","image-041",28,0.958802703399502,2,"disappear","wolfe",52.5,368,102.5,417,2450,0.00734633,0.734633,1909,0.00572414,0.572414,0.779184,77.9184,75.5,390,258,140,293.537,"Hardest"
"A1OM5NWYYYJKQW","wolfe1","image-047",24,0.946845113960623,2,"disappear","wolfe",147.5,318,165.5,341,414,0.00124138,0.124138,334,0.0010015,0.10015,0.806763,80.6763,155.5,329,178,79,194.743,"Hardest"
"A1OM5NWYYYJKQW","wolfe1","image-077",32,0.831357785442068,2,"color","wolfe",356.5,304,400.5,369,2860,0.00857571,0.857571,2036,0.00610495,0.610495,0.711888,71.1888,380.5,333,47,83,95.3834,"Hardest"
"A1OM5NWYYYJKQW","wolfe1","image-080",29,0.950656882504511,2,"color","wolfe",-1.5,163,73.5,213,3750,0.0112444,1.12444,2548,0.00764018,0.764018,0.679467,67.9467,27.5,190,306,60,311.827,"Hardest"
"A1OM5NWYYYJKQW","wolfe1","image-083",12,0.83695673705955,2,"color","wolfe",207.5,225,258.5,273,2448,0.00734033,0.734033,1959,0.00587406,0.587406,0.800245,80.0245,232.5,248,101,2,101.02,"Hardest"
"A1OM5NWYYYJKQW","wolfe1","image-093",25,1.07199240712418,1,"color","wolfe",221.5,200,256.5,248,1680,0.00503748,0.503748,1107,0.00331934,0.331934,0.658929,65.8929,237.5,224,96,26,99.4585,"Hardest"
"A1OM5NWYYYJKQW","wolfe1","image-098",18,1.60524038209921,1,"color","wolfe",246.5,396,285.5,445,1911,0.00561233,0.561233,1506,0.00442291,0.442291,0.788069,78.8069,264.5,420,76,170,186.215,"Hardest"
"A1OM5NWYYYJKQW","wolfe1","image-115",31,0.835436894801858,2,"color","wolfe",105.5,305,168.5,379,4662,0.013979,1.3979,3336,0.010003,1.0003,0.715573,71.5573,139.5,338,194,88,213.026,"Hardest"
"A1OM5NWYYYJKQW","wolfe1","image-124",14,0.841109084468154,1,"color","wolfe",558.5,127,619.5,302,10675,0.032009,3.2009,9764,0.0292774,2.92774,0.91466,91.466,588.5,216,255,34,257.257,"Hardest"
"A1OM5NWYYYJKQW","wolfe1","image-127",9,0.836577274840649,1,"color","wolfe",541.5,224,615.5,291,4958,0.0131687,1.31687,2453,0.00651527,0.651527,0.494756,49.4756,578.5,259,202,9,202.2,"Hardest"
"A1OM5NWYYYJKQW","wolfe1","image-131",30,1.74405033645038,1,"color","wolfe",335,147,389,187,2160,0.00618911,0.618911,1690,0.00484241,0.484241,0.782407,78.2407,359,168,10,82,82.6075,"Hardest"
"A1OM5NWYYYJKQW","wolfe1","image-132",15,0.837967018368655,1,"color","wolfe",601.5,273,657.5,317,2464,0.00738831,0.738831,1744,0.00522939,0.522939,0.707792,70.7792,631.5,293,298,43,301.086,"Hardest"
"A1QKIA8XRNEXIG","wolfe1","image-009",20,1.23335152765327,4,"disappear","wolfe",335.5,202,376.5,241,1599,0.0047946,0.47946,1214,0.00364018,0.364018,0.759225,75.9225,354.5,223,21,27,34.2053,"Hardest"
"A1QKIA8XRNEXIG","wolfe1","image-015",15,1.16758314796584,5,"disappear","wolfe",104.5,249,164.5,303,3240,0.00971514,0.971514,2239,0.00671364,0.671364,0.691049,69.1049,138.5,277,195,27,196.86,"Hardest"
"A1QKIA8XRNEXIG","wolfe1","image-021",14,1.10119698586535,5,"disappear","wolfe",352.5,200,386.5,321,4114,0.0123358,1.23358,3048,0.00913943,0.913943,0.740885,74.0885,371.5,264,38,14,40.4969,"Hardest"
"A1QKIA8XRNEXIG","wolfe1","image-022",10,0.943346098356591,4,"disappear","wolfe",182.5,273,230.5,289,768,0.00230285,0.230285,581,0.00174213,0.174213,0.75651,75.651,206.5,281,127,31,130.729,"Hardest"
"A1QKIA8XRNEXIG","wolfe1","image-031",22,1.02624718147777,2,"disappear","wolfe",160.5,248,191.5,276,868,0.0026027,0.26027,618,0.00185307,0.185307,0.711982,71.1982,175.5,263,158,13,158.534,"Hardest"
"A1QKIA8XRNEXIG","wolfe1","image-041",17,0.847264101770764,5,"disappear","wolfe",52.5,368,102.5,417,2450,0.00734633,0.734633,1909,0.00572414,0.572414,0.779184,77.9184,75.5,390,258,140,293.537,"Hardest"
"A1QKIA8XRNEXIG","wolfe1","image-049",6,1.23937456678208,5,"disappear","wolfe",70.5,8,152.5,121,9266,0.0277841,2.77841,4535,0.0135982,1.35982,0.489424,48.9424,113.5,60,220,190,290.689,"Hardest"
"A1QKIA8XRNEXIG","wolfe1","image-089",11,1.10540798580918,1,"color","wolfe",337.5,263,434.5,423,15520,0.0465367,4.65367,7248,0.0217331,2.17331,0.46701,46.701,388.5,339,55,89,104.623,"Hardest"
"A1QKIA8XRNEXIG","wolfe1","image-091",13,1.463594402187,2,"color","wolfe",433.5,329,482.5,396,3283,0.00984408,0.984408,2254,0.00675862,0.675862,0.686567,68.6567,456.5,368,123,118,170.449,"Hardest"
"A1QKIA8XRNEXIG","wolfe1","image-092",8,0.927421695050419,4,"color","wolfe",49.5,336,176.5,392,7112,0.0213253,2.13253,1312,0.00393403,0.393403,0.184477,18.4477,115,361.5,218.5,111.5,245.305,"Hardest"
"A1QKIA8XRNEXIG","wolfe1","image-094",31,0.825361195952633,5,"color","wolfe",224,201,249,228,675,0.0027,0.27,453,0.001812,0.1812,0.671111,67.1111,236,213,14,37,39.5601,"Hardest"
"A1QKIA8XRNEXIG","wolfe1","image-097",18,1.10974723771323,1,"color","wolfe",94.5,358,138.5,418,2640,0.00791604,0.791604,2095,0.00628186,0.628186,0.793561,79.3561,115.5,388,218,138,258.008,"Hardest"
"A1QKIA8XRNEXIG","wolfe1","image-100",27,0.823734988398731,1,"color","wolfe",582.5,288,641.5,353,3835,0.0114993,1.14993,3289,0.00986207,0.986207,0.857627,85.7627,613.5,321,280,71,288.862,"Hardest"
"A1QKIA8XRNEXIG","wolfe1","image-103",21,0.936463474004747,1,"color","wolfe",131.5,312,168.5,388,2812,0.00843178,0.843178,1272,0.00381409,0.381409,0.452347,45.2347,146.833,339.667,186.667,89.6667,207.086,"Hardest"
"A1QKIA8XRNEXIG","wolfe1","image-106",4,1.1191568746903,1,"color","wolfe",431.5,121,470.5,161,1560,0.00665245,0.665245,1236,0.00527079,0.527079,0.792308,79.2308,453.5,143,219,107,243.742,"Hardest"
"A1QKIA8XRNEXIG","wolfe1","image-108",26,1.17274883898274,1,"color","wolfe",239.5,160,304.5,193,2145,0.00643178,0.643178,1497,0.00448876,0.448876,0.697902,69.7902,271.5,175,62,75,97.3088,"Hardest"
"A1QKIA8XRNEXIG","wolfe1","image-110",29,1.50428051960728,2,"color","wolfe",502.5,209,670.5,269,10080,0.0302249,3.02249,9163,0.0274753,2.74753,0.909028,90.9028,583.5,238,250,12,250.288,"Hardest"
"A1QKIA8XRNEXIG","wolfe1","image-113",30,0.830139387425343,2,"color","wolfe",270.5,283,337.5,329,3082,0.00924138,0.924138,2350,0.00704648,0.704648,0.762492,76.2492,301.5,305,32,55,63.6318,"Hardest"
"A1QKIA8XRNEXIG","wolfe1","image-123",12,1.02464983117944,1,"color","wolfe",56.5,348,87.5,373,775,0.00232384,0.232384,619,0.00185607,0.185607,0.79871,79.871,71.5,359,262,109,283.769,"Hardest"
"A1QKIA8XRNEXIG","wolfe1","image-127",7,1.3691230495282,5,"color","wolfe",541.5,224,615.5,291,4958,0.0131687,1.31687,2453,0.00651527,0.651527,0.494756,49.4756,578.5,259,202,9,202.2,"Hardest"
"A1QKIA8XRNEXIG","wolfe1","image-131",25,0.826398782187618,2,"color","wolfe",335,147,389,187,2160,0.00618911,0.618911,1690,0.00484241,0.484241,0.782407,78.2407,359,168,10,82,82.6075,"Hardest"
"A1QKIA8XRNEXIG","wolfe1","image-132",19,1.02349938154801,4,"color","wolfe",601.5,273,657.5,317,2464,0.00738831,0.738831,1744,0.00522939,0.522939,0.707792,70.7792,631.5,293,298,43,301.086,"Hardest"
"A1QKIA8XRNEXIG","wolfe1","image-135",3,1.36797058104339,4,"color","wolfe",400.5,161,450.5,193,1600,0.0047976,0.47976,1257,0.00376912,0.376912,0.785625,78.5625,424.5,179,91,71,115.421,"Hardest"
"A1RKGN3VY39TM1","wolfe1","image-007",27,0.932524497050542,4,"disappear","wolfe",119.5,210,289.5,265,9350,0.028036,2.8036,4518,0.0135472,1.35472,0.483209,48.3209,236.833,226,96.6667,24,99.6014,"Hardest"
"A1RKGN3VY39TM1","wolfe1","image-026",32,0.831677849191467,1,"disappear","wolfe",147.5,292,175.5,313,588,0.00176312,0.176312,478,0.00143328,0.143328,0.812925,81.2925,161.5,301,172,51,179.402,"Hardest"
"A1RKGN3VY39TM1","wolfe1","image-077",8,0.846708145456007,2,"color","wolfe",356.5,304,400.5,369,2860,0.00857571,0.857571,2036,0.00610495,0.610495,0.711888,71.1888,380.5,333,47,83,95.3834,"Hardest"
"A1RKGN3VY39TM1","wolfe1","image-100",22,1.10571451057092,2,"color","wolfe",582.5,288,641.5,353,3835,0.0114993,1.14993,3289,0.00986207,0.986207,0.857627,85.7627,613.5,321,280,71,288.862,"Hardest"
"A1RKGN3VY39TM1","wolfe1","image-123",26,1.1120685042682,1,"color","wolfe",56.5,348,87.5,373,775,0.00232384,0.232384,619,0.00185607,0.185607,0.79871,79.871,71.5,359,262,109,283.769,"Hardest"
"A1RKGN3VY39TM1","wolfe1","image-128",21,1.1092747382303,1,"color","wolfe",444.5,425,473.5,481,1624,0.00486957,0.486957,1138,0.00341229,0.341229,0.700739,70.0739,457.5,453,124,203,237.876,"Hardest"
"A1RKGN3VY39TM1","wolfe1","image-133",23,0.822560336942692,2,"color","wolfe",447.5,143,488.5,219,3116,0.00934333,0.934333,2364,0.00708846,0.708846,0.758665,75.8665,470.5,184,137,66,152.069,"Hardest"
"A1T2598R44X648","wolfe1","image-005",5,1.17484449365546,4,"disappear","wolfe",254.5,254,398.5,314,8640,0.025907,2.5907,5673,0.0170105,1.70105,0.656597,65.6597,330.5,281.5,3,31.5,31.6425,"Hardest"
"A1T2598R44X648","wolfe1","image-007",12,1.02440356268297,5,"disappear","wolfe",119.5,210,289.5,265,9350,0.028036,2.8036,4518,0.0135472,1.35472,0.483209,48.3209,236.833,226,96.6667,24,99.6014,"Hardest"
"A1T2598R44X648","wolfe1","image-008",30,0.936714758211204,4,"disappear","wolfe",513.5,81,569.5,150,3864,0.0115862,1.15862,2750,0.00824588,0.824588,0.711698,71.1698,543.5,116,210,134,249.11,"Hardest"
"A1T2598R44X648","wolfe1","image-009",31,0.947139517642829,5,"disappear","wolfe",335.5,202,376.5,241,1599,0.0047946,0.47946,1214,0.00364018,0.364018,0.759225,75.9225,354.5,223,21,27,34.2053,"Hardest"
"A1T2598R44X648","wolfe1","image-015",6,0.945567053442388,4,"disappear","wolfe",104.5,249,164.5,303,3240,0.00971514,0.971514,2239,0.00671364,0.671364,0.691049,69.1049,138.5,277,195,27,196.86,"Hardest"
"A1T2598R44X648","wolfe1","image-021",8,0.93816934639032,4,"disappear","wolfe",352.5,200,386.5,321,4114,0.0123358,1.23358,3048,0.00913943,0.913943,0.740885,74.0885,371.5,264,38,14,40.4969,"Hardest"
"A1T2598R44X648","wolfe1","image-027",32,0.944877305963695,1,"disappear","wolfe",308.5,369,342.5,381,408,0.00122339,0.122339,289,0.000866567,0.0866567,0.708333,70.8333,324.5,375,9,125,125.324,"Hardest"
"A1T2598R44X648","wolfe1","image-029",17,1.04579223272956,4,"disappear","wolfe",280.5,105,314.5,137,1088,0.00326237,0.326237,916,0.00274663,0.274663,0.841912,84.1912,297.5,122,36,128,132.966,"Hardest"
"A1T2598R44X648","wolfe1","image-083",28,0.88309335857569,4,"color","wolfe",207.5,225,258.5,273,2448,0.00734033,0.734033,1959,0.00587406,0.587406,0.800245,80.0245,232.5,248,101,2,101.02,"Hardest"
"A1T2598R44X648","wolfe1","image-090",13,1.30869244220126,4,"color","wolfe",77.5,319,118.5,385,2706,0.00811394,0.811394,2133,0.0063958,0.63958,0.788248,78.8248,97.5,351,236,101,256.704,"Hardest"
"A1T2598R44X648","wolfe1","image-092",14,0.975523712960331,4,"color","wolfe",49.5,336,176.5,392,7112,0.0213253,2.13253,1312,0.00393403,0.393403,0.184477,18.4477,115,361.5,218.5,111.5,245.305,"Hardest"
"A1T2598R44X648","wolfe1","image-094",18,1.66860021516326,1,"color","wolfe",224,201,249,228,675,0.0027,0.27,453,0.001812,0.1812,0.671111,67.1111,236,213,14,37,39.5601,"Hardest"
"A1T2598R44X648","wolfe1","image-096",20,0.877831891492894,1,"color","wolfe",299.5,361,332.5,390,957,0.00286957,0.286957,289,0.000866567,0.0866567,0.301985,30.1985,311.5,372,22,122,123.968,"Hardest"
"A1T2598R44X648","wolfe1","image-099",16,1.23904909314019,4,"color","wolfe",532.5,177,601.5,257,5520,0.0165517,1.65517,2963,0.00888456,0.888456,0.536775,53.6775,569.833,209.667,236.333,40.3333,239.75,"Hardest"
"A1T2598R44X648","wolfe1","image-105",23,0.995898323646437,4,"color","wolfe",439.5,175,518.5,265,7110,0.0213193,2.13193,5171,0.0155052,1.55052,0.727286,72.7286,474.5,219,141,31,144.368,"Hardest"
"A1T2598R44X648","wolfe1","image-116",10,1.58006922272504,4,"color","wolfe",414.5,81,487.5,101,1460,0.00437781,0.437781,862,0.00258471,0.258471,0.590411,59.0411,460.5,90,127,160,204.277,"Hardest"
"A1T2598R44X648","wolfe1","image-118",9,0.972665592266111,2,"color","wolfe",605.5,287,626.5,322,735,0.0022039,0.22039,657,0.00197001,0.197001,0.893878,89.3878,615.5,304,282,54,287.124,"Hardest"
"A1T2598R44X648","wolfe1","image-123",26,0.974695871909683,2,"color","wolfe",56.5,348,87.5,373,775,0.00232384,0.232384,619,0.00185607,0.185607,0.79871,79.871,71.5,359,262,109,283.769,"Hardest"
"A1T2598R44X648","wolfe1","image-125",19,1.74204134518486,4,"color","wolfe",81.5,348,130.5,401,2597,0.00778711,0.778711,1911,0.00573013,0.573013,0.735849,73.5849,104.5,373,229,123,259.942,"Hardest"
"A1T2598R44X648","wolfe1","image-129",29,1.5035728004579,2,"color","wolfe",159.5,384,225.5,494,7260,0.0217691,2.17691,4784,0.0143448,1.43448,0.658953,65.8953,188.5,444,145,194,242.2,"Hardest"
"A1T2598R44X648","wolfe1","image-131",21,1.16932168368184,4,"color","wolfe",335,147,389,187,2160,0.00618911,0.618911,1690,0.00484241,0.484241,0.782407,78.2407,359,168,10,82,82.6075,"Hardest"
"A1T7EB1WEDCMXV","wolfe1","image-003",24,0.931864513492032,4,"disappear","wolfe",-0.5,0,142.5,93,13299,0.0398771,3.98771,11671,0.0349955,3.49955,0.877585,87.7585,66.5,42,267,208,338.457,"Hardest"
"A1T7EB1WEDCMXV","wolfe1","image-031",23,0.934346926738256,1,"disappear","wolfe",160.5,248,191.5,276,868,0.0026027,0.26027,618,0.00185307,0.185307,0.711982,71.1982,175.5,263,158,13,158.534,"Hardest"
"A1T7EB1WEDCMXV","wolfe1","image-040",7,0.94507448847873,2,"disappear","wolfe",106.5,109,136.5,154,1350,0.00404798,0.404798,1015,0.00304348,0.304348,0.751852,75.1852,120.5,130,213,120,244.477,"Hardest"
"A1T7EB1WEDCMXV","wolfe1","image-041",6,0.951774508081725,1,"disappear","wolfe",52.5,368,102.5,417,2450,0.00734633,0.734633,1909,0.00572414,0.572414,0.779184,77.9184,75.5,390,258,140,293.537,"Hardest"
"A1T7EB1WEDCMXV","wolfe1","image-077",21,1.41059166988312,5,"color","wolfe",356.5,304,400.5,369,2860,0.00857571,0.857571,2036,0.00610495,0.610495,0.711888,71.1888,380.5,333,47,83,95.3834,"Hardest"
"A1T7EB1WEDCMXV","wolfe1","image-085",26,0.822952240547482,2,"color","wolfe",46.5,179,89.5,210,1333,0.003997,0.3997,978,0.00293253,0.293253,0.733683,73.3683,66.5,195,267,55,272.606,"Hardest"
"A1T7EB1WEDCMXV","wolfe1","image-086",25,0.933841462898721,1,"color","wolfe",441.5,71,458.5,89,306,0.000917541,0.0917541,177,0.000530735,0.0530735,0.578431,57.8431,450.5,79,117,171,207.196,"Hardest"
"A1T7EB1WEDCMXV","wolfe1","image-094",11,0.82098917641605,4,"color","wolfe",224,201,249,228,675,0.0027,0.27,453,0.001812,0.1812,0.671111,67.1111,236,213,14,37,39.5601,"Hardest"
"A1T7EB1WEDCMXV","wolfe1","image-097",4,1.3651883681271,3,"color","wolfe",94.5,358,138.5,418,2640,0.00791604,0.791604,2095,0.00628186,0.628186,0.793561,79.3561,115.5,388,218,138,258.008,"Hardest"
"A1T7EB1WEDCMXV","wolfe1","image-100",30,0.942355349707677,1,"color","wolfe",582.5,288,641.5,353,3835,0.0114993,1.14993,3289,0.00986207,0.986207,0.857627,85.7627,613.5,321,280,71,288.862,"Hardest"
"A1T7EB1WEDCMXV","wolfe1","image-101",16,1.01928249576173,2,"color","wolfe",576.5,319,610.5,363,1496,0.00448576,0.448576,1240,0.00371814,0.371814,0.828877,82.8877,594.5,340,261,90,276.082,"Hardest"
"A1T7EB1WEDCMXV","wolfe1","image-103",17,1.16849748352303,1,"color","wolfe",131.5,312,168.5,388,2812,0.00843178,0.843178,1272,0.00381409,0.381409,0.452347,45.2347,146.833,339.667,186.667,89.6667,207.086,"Hardest"
"A1T7EB1WEDCMXV","wolfe1","image-106",22,1.04575314759414,1,"color","wolfe",431.5,121,470.5,161,1560,0.00665245,0.665245,1236,0.00527079,0.527079,0.792308,79.2308,453.5,143,219,107,243.742,"Hardest"
"A1T7EB1WEDCMXV","wolfe1","image-107",20,0.817102404256923,1,"color","wolfe",206.5,253,273.5,328,5025,0.0150675,1.50675,3059,0.00917241,0.917241,0.608756,60.8756,239.5,288,94,38,101.39,"Hardest"
"A1T7EB1WEDCMXV","wolfe1","image-110",32,0.926290986884863,5,"color","wolfe",502.5,209,670.5,269,10080,0.0302249,3.02249,9163,0.0274753,2.74753,0.909028,90.9028,583.5,238,250,12,250.288,"Hardest"
"A1T7EB1WEDCMXV","wolfe1","image-115",12,0.929725378378005,4,"color","wolfe",105.5,305,168.5,379,4662,0.013979,1.3979,3336,0.010003,1.0003,0.715573,71.5573,139.5,338,194,88,213.026,"Hardest"
"A1T7EB1WEDCMXV","wolfe1","image-116",3,1.47307802984424,2,"color","wolfe",414.5,81,487.5,101,1460,0.00437781,0.437781,862,0.00258471,0.258471,0.590411,59.0411,460.5,90,127,160,204.277,"Hardest"
"A1T7EB1WEDCMXV","wolfe1","image-122",29,1.17002689815112,1,"color","wolfe",186.5,380,252.5,446,4356,0.0130615,1.30615,2376,0.00712444,0.712444,0.545455,54.5455,215.5,407,118,157,196.4,"Hardest"
"A1T7EB1WEDCMXV","wolfe1","image-123",28,0.935910136430507,1,"color","wolfe",56.5,348,87.5,373,775,0.00232384,0.232384,619,0.00185607,0.185607,0.79871,79.871,71.5,359,262,109,283.769,"Hardest"
"A1T7EB1WEDCMXV","wolfe1","image-128",9,1.1002671293576,2,"color","wolfe",444.5,425,473.5,481,1624,0.00486957,0.486957,1138,0.00341229,0.341229,0.700739,70.0739,457.5,453,124,203,237.876,"Hardest"
"A1T7EB1WEDCMXV","wolfe1","image-131",31,0.828531006645101,1,"color","wolfe",335,147,389,187,2160,0.00618911,0.618911,1690,0.00484241,0.484241,0.782407,78.2407,359,168,10,82,82.6075,"Hardest"
"A1ZVC2VT88SYEP","wolfe1","image-001",23,1.11501107130045,2,"disappear","wolfe",122.5,335,164.5,365,1260,0.00377811,0.377811,899,0.00269565,0.269565,0.713492,71.3492,142.5,350,191,100,215.595,"Hardest"
"A1ZVC2VT88SYEP","wolfe1","image-009",8,1.18287096398891,4,"disappear","wolfe",335.5,202,376.5,241,1599,0.0047946,0.47946,1214,0.00364018,0.364018,0.759225,75.9225,354.5,223,21,27,34.2053,"Hardest"
"A1ZVC2VT88SYEP","wolfe1","image-013",6,1.4095442810964,4,"disappear","wolfe",68.5,39,86.5,71,576,0.00172714,0.172714,509,0.00152624,0.152624,0.883681,88.3681,77.5,54,256,196,322.416,"Hardest"
"A1ZVC2VT88SYEP","wolfe1","image-024",20,1.51117454878893,4,"disappear","wolfe",346.5,418,374.5,462,1232,0.00369415,0.369415,753,0.00225787,0.225787,0.611201,61.1201,361,438.5,27.5,188.5,190.495,"Hardest"
"A1ZVC2VT88SYEP","wolfe1","image-031",3,0.874481817699467,2,"disappear","wolfe",160.5,248,191.5,276,868,0.0026027,0.26027,618,0.00185307,0.185307,0.711982,71.1982,175.5,263,158,13,158.534,"Hardest"
"A1ZVC2VT88SYEP","wolfe1","image-042",28,0.965295795811656,3,"disappear","wolfe",204.5,62,218.5,103,574,0.00172114,0.172114,464,0.0013913,0.13913,0.808362,80.8362,211.5,83,122,167,206.816,"Hardest"
"A1ZVC2VT88SYEP","wolfe1","image-045",10,0.950364854376123,4,"disappear","wolfe",299.5,393,325.5,411,468,0.0014033,0.14033,407,0.00122039,0.122039,0.869658,86.9658,311.5,401,22,151,152.594,"Hardest"
"A1ZVC2VT88SYEP","wolfe1","image-047",12,1.23588179862964,3,"disappear","wolfe",147.5,318,165.5,341,414,0.00124138,0.124138,334,0.0010015,0.10015,0.806763,80.6763,155.5,329,178,79,194.743,"Hardest"
"A1ZVC2VT88SYEP","wolfe1","image-048",14,1.03282014943856,4,"disappear","wolfe",423.5,29,469.5,69,1840,0.00551724,0.551724,1406,0.00421589,0.421589,0.76413,76.413,446.5,48,113,202,231.458,"Hardest"
"A1ZVC2VT88SYEP","wolfe1","image-077",24,0.838974954955468,4,"color","wolfe",356.5,304,400.5,369,2860,0.00857571,0.857571,2036,0.00610495,0.610495,0.711888,71.1888,380.5,333,47,83,95.3834,"Hardest"
"A1ZVC2VT88SYEP","wolfe1","image-086",5,1.3714373174041,1,"color","wolfe",441.5,71,458.5,89,306,0.000917541,0.0917541,177,0.000530735,0.0530735,0.578431,57.8431,450.5,79,117,171,207.196,"Hardest"
"A1ZVC2VT88SYEP","wolfe1","image-097",31,1.23809630768141,4,"color","wolfe",94.5,358,138.5,418,2640,0.00791604,0.791604,2095,0.00628186,0.628186,0.793561,79.3561,115.5,388,218,138,258.008,"Hardest"
"A1ZVC2VT88SYEP","wolfe1","image-098",30,1.62681239317979,4,"color","wolfe",246.5,396,285.5,445,1911,0.00561233,0.561233,1506,0.00442291,0.442291,0.788069,78.8069,264.5,420,76,170,186.215,"Hardest"
"A1ZVC2VT88SYEP","wolfe1","image-108",9,1.37836155679297,4,"color","wolfe",239.5,160,304.5,193,2145,0.00643178,0.643178,1497,0.00448876,0.448876,0.697902,69.7902,271.5,175,62,75,97.3088,"Hardest"
"A1ZVC2VT88SYEP","wolfe1","image-128",32,0.956600588213177,4,"color","wolfe",444.5,425,473.5,481,1624,0.00486957,0.486957,1138,0.00341229,0.341229,0.700739,70.0739,457.5,453,124,203,237.876,"Hardest"
"A1ZVC2VT88SYEP","wolfe1","image-134",19,1.62871580520501,4,"color","wolfe",527.5,310,575.5,369,2832,0.00849175,0.849175,2057,0.00616792,0.616792,0.726342,72.6342,551.5,335,218,85,233.985,"Hardest"
"A21SIPO89DP66I","wolfe1","image-001",15,0.933234128714808,1,"disappear","wolfe",122.5,335,164.5,365,1260,0.00377811,0.377811,899,0.00269565,0.269565,0.713492,71.3492,142.5,350,191,100,215.595,"Hardest"
"A21SIPO89DP66I","wolfe1","image-003",4,1.11882666293329,3,"disappear","wolfe",-0.5,0,142.5,93,13299,0.0398771,3.98771,11671,0.0349955,3.49955,0.877585,87.7585,66.5,42,267,208,338.457,"Hardest"
"A21SIPO89DP66I","wolfe1","image-008",30,0.939119717648487,3,"disappear","wolfe",513.5,81,569.5,150,3864,0.0115862,1.15862,2750,0.00824588,0.824588,0.711698,71.1698,543.5,116,210,134,249.11,"Hardest"
"A21SIPO89DP66I","wolfe1","image-042",24,1.53270343237013,1,"disappear","wolfe",204.5,62,218.5,103,574,0.00172114,0.172114,464,0.0013913,0.13913,0.808362,80.8362,211.5,83,122,167,206.816,"Hardest"
"A21SIPO89DP66I","wolfe1","image-047",13,0.811909980420099,2,"disappear","wolfe",147.5,318,165.5,341,414,0.00124138,0.124138,334,0.0010015,0.10015,0.806763,80.6763,155.5,329,178,79,194.743,"Hardest"
"A21SIPO89DP66I","wolfe1","image-049",26,0.950267468013588,2,"disappear","wolfe",70.5,8,152.5,121,9266,0.0277841,2.77841,4535,0.0135982,1.35982,0.489424,48.9424,113.5,60,220,190,290.689,"Hardest"
"A21SIPO89DP66I","wolfe1","image-077",6,0.931864513492032,3,"color","wolfe",356.5,304,400.5,369,2860,0.00857571,0.857571,2036,0.00610495,0.610495,0.711888,71.1888,380.5,333,47,83,95.3834,"Hardest"
"A21SIPO89DP66I","wolfe1","image-083",25,1.11700599663597,2,"color","wolfe",207.5,225,258.5,273,2448,0.00734033,0.734033,1959,0.00587406,0.587406,0.800245,80.0245,232.5,248,101,2,101.02,"Hardest"
"A21SIPO89DP66I","wolfe1","image-087",9,1.02464983117944,4,"color","wolfe",187.5,256,239.5,290,1768,0.00530135,0.530135,1439,0.00431484,0.431484,0.813914,81.3914,210.5,273,123,23,125.132,"Hardest"
"A21SIPO89DP66I","wolfe1","image-088",10,0.937568038600383,1,"color","wolfe",423.5,342,467.5,394,2288,0.00686057,0.686057,1770,0.00530735,0.530735,0.773601,77.3601,444.5,369,111,119,162.733,"Hardest"
"A21SIPO89DP66I","wolfe1","image-089",27,1.11487774989284,4,"color","wolfe",337.5,263,434.5,423,15520,0.0465367,4.65367,7248,0.0217331,2.17331,0.46701,46.701,388.5,339,55,89,104.623,"Hardest"
"A21SIPO89DP66I","wolfe1","image-092",22,0.819609732751585,1,"color","wolfe",49.5,336,176.5,392,7112,0.0213253,2.13253,1312,0.00393403,0.393403,0.184477,18.4477,115,361.5,218.5,111.5,245.305,"Hardest"
"A21SIPO89DP66I","wolfe1","image-097",18,1.10516942799933,2,"color","wolfe",94.5,358,138.5,418,2640,0.00791604,0.791604,2095,0.00628186,0.628186,0.793561,79.3561,115.5,388,218,138,258.008,"Hardest"
"A21SIPO89DP66I","wolfe1","image-099",21,1.02877452650009,1,"color","wolfe",532.5,177,601.5,257,5520,0.0165517,1.65517,2963,0.00888456,0.888456,0.536775,53.6775,569.833,209.667,236.333,40.3333,239.75,"Hardest"
"A21SIPO89DP66I","wolfe1","image-104",20,1.37247012284187,1,"color","wolfe",-0.5,159,76.5,296,10549,0.0316312,3.16312,7492,0.0224648,2.24648,0.710209,71.0209,37.5,229,296,21,296.744,"Hardest"
"A21SIPO89DP66I","wolfe1","image-121",12,0.939818662821379,1,"color","wolfe",218.5,308,305.5,338,2610,0.00782609,0.782609,2173,0.00651574,0.651574,0.832567,83.2567,259.5,323,74,73,103.947,"Hardest"
"A21SIPO89DP66I","wolfe1","image-130",23,1.17178494055412,2,"color","wolfe",595.5,355,650.5,385,1650,0.00494753,0.494753,1335,0.004003,0.4003,0.809091,80.9091,621.5,371,288,121,312.386,"Hardest"
"A21SIPO89DP66I","wolfe1","image-132",29,0.958324931644053,1,"color","wolfe",601.5,273,657.5,317,2464,0.00738831,0.738831,1744,0.00522939,0.522939,0.707792,70.7792,631.5,293,298,43,301.086,"Hardest"
"A21SIPO89DP66I","wolfe1","image-135",3,1.11955279766712,1,"color","wolfe",400.5,161,450.5,193,1600,0.0047976,0.47976,1257,0.00376912,0.376912,0.785625,78.5625,424.5,179,91,71,115.421,"Hardest"
"A25PQTWHOMESAT","wolfe1","image-001",21,0.954580162743757,3,"disappear","wolfe",122.5,335,164.5,365,1260,0.00377811,0.377811,899,0.00269565,0.269565,0.713492,71.3492,142.5,350,191,100,215.595,"Hardest"
"A25PQTWHOMESAT","wolfe1","image-004",9,1.11317430463436,5,"disappear","wolfe",102.5,393,242.5,439,6440,0.0193103,1.93103,4455,0.0133583,1.33583,0.69177,69.177,171.5,414,162,164,230.521,"Hardest"
"A25PQTWHOMESAT","wolfe1","image-009",16,1.03654905447915,3,"disappear","wolfe",335.5,202,376.5,241,1599,0.0047946,0.47946,1214,0.00364018,0.364018,0.759225,75.9225,354.5,223,21,27,34.2053,"Hardest"
"A25PQTWHOMESAT","wolfe1","image-015",17,0.984437294796076,3,"disappear","wolfe",104.5,249,164.5,303,3240,0.00971514,0.971514,2239,0.00671364,0.671364,0.691049,69.1049,138.5,277,195,27,196.86,"Hardest"
"A25PQTWHOMESAT","wolfe1","image-016",23,1.4383049645321,1,"disappear","wolfe",398.5,318,422.5,327,216,0.000647676,0.0647676,157,0.000470765,0.0470765,0.726852,72.6852,409.5,322,76,72,104.69,"Hardest"
"A25PQTWHOMESAT","wolfe1","image-037",4,1.64575621360384,2,"disappear","wolfe",176.5,341,261.5,385,3740,0.0112144,1.12144,2871,0.0086087,0.86087,0.767647,76.7647,219.5,365,114,115,161.929,"Hardest"
"A25PQTWHOMESAT","wolfe1","image-040",12,1.23103609914657,3,"disappear","wolfe",106.5,109,136.5,154,1350,0.00404798,0.404798,1015,0.00304348,0.304348,0.751852,75.1852,120.5,130,213,120,244.477,"Hardest"
"A25PQTWHOMESAT","wolfe1","image-045",14,0.823343790820649,4,"disappear","wolfe",299.5,393,325.5,411,468,0.0014033,0.14033,407,0.00122039,0.122039,0.869658,86.9658,311.5,401,22,151,152.594,"Hardest"
"A25PQTWHOMESAT","wolfe1","image-047",8,0.831357785442068,1,"disappear","wolfe",147.5,318,165.5,341,414,0.00124138,0.124138,334,0.0010015,0.10015,0.806763,80.6763,155.5,329,178,79,194.743,"Hardest"
"A25PQTWHOMESAT","wolfe1","image-083",6,1.67096907469322,4,"color","wolfe",207.5,225,258.5,273,2448,0.00734033,0.734033,1959,0.00587406,0.587406,0.800245,80.0245,232.5,248,101,2,101.02,"Hardest"
"A25PQTWHOMESAT","wolfe1","image-085",11,1.17632282103499,1,"color","wolfe",46.5,179,89.5,210,1333,0.003997,0.3997,978,0.00293253,0.293253,0.733683,73.3683,66.5,195,267,55,272.606,"Hardest"
"A25PQTWHOMESAT","wolfe1","image-089",28,1.03120641982746,3,"color","wolfe",337.5,263,434.5,423,15520,0.0465367,4.65367,7248,0.0217331,2.17331,0.46701,46.701,388.5,339,55,89,104.623,"Hardest"
"A25PQTWHOMESAT","wolfe1","image-090",26,1.27953006497544,2,"color","wolfe",77.5,319,118.5,385,2706,0.00811394,0.811394,2133,0.0063958,0.63958,0.788248,78.8248,97.5,351,236,101,256.704,"Hardest"
"A25PQTWHOMESAT","wolfe1","image-092",27,1.10785414753686,2,"color","wolfe",49.5,336,176.5,392,7112,0.0213253,2.13253,1312,0.00393403,0.393403,0.184477,18.4477,115,361.5,218.5,111.5,245.305,"Hardest"
"A25PQTWHOMESAT","wolfe1","image-093",15,1.70614574112114,1,"color","wolfe",221.5,200,256.5,248,1680,0.00503748,0.503748,1107,0.00331934,0.331934,0.658929,65.8929,237.5,224,96,26,99.4585,"Hardest"
"A25PQTWHOMESAT","wolfe1","image-096",7,1.70647027488737,1,"color","wolfe",299.5,361,332.5,390,957,0.00286957,0.286957,289,0.000866567,0.0866567,0.301985,30.1985,311.5,372,22,122,123.968,"Hardest"
"A25PQTWHOMESAT","wolfe1","image-104",20,1.06167861524534,5,"color","wolfe",-0.5,159,76.5,296,10549,0.0316312,3.16312,7492,0.0224648,2.24648,0.710209,71.0209,37.5,229,296,21,296.744,"Hardest"
"A25PQTWHOMESAT","wolfe1","image-115",31,0.941362335711761,3,"color","wolfe",105.5,305,168.5,379,4662,0.013979,1.3979,3336,0.010003,1.0003,0.715573,71.5573,139.5,338,194,88,213.026,"Hardest"
"A2615YW1YERQBO","wolfe1","image-077",7,0.818819507547536,3,"color","wolfe",356.5,304,400.5,369,2860,0.00857571,0.857571,2036,0.00610495,0.610495,0.711888,71.1888,380.5,333,47,83,95.3834,"Hardest"
"A2615YW1YERQBO","wolfe1","image-094",26,0.833147111912785,2,"color","wolfe",224,201,249,228,675,0.0027,0.27,453,0.001812,0.1812,0.671111,67.1111,236,213,14,37,39.5601,"Hardest"
"A2615YW1YERQBO","wolfe1","image-098",31,0.956648579205203,2,"color","wolfe",246.5,396,285.5,445,1911,0.00561233,0.561233,1506,0.00442291,0.442291,0.788069,78.8069,264.5,420,76,170,186.215,"Hardest"
"A2615YW1YERQBO","wolfe1","image-121",22,0.82795052830263,2,"color","wolfe",218.5,308,305.5,338,2610,0.00782609,0.782609,2173,0.00651574,0.651574,0.832567,83.2567,259.5,323,74,73,103.947,"Hardest"
"A2615YW1YERQBO","wolfe1","image-121",22,0.82795052830263,3,"color","wolfe",218.5,308,305.5,338,2610,0.00782609,0.782609,2173,0.00651574,0.651574,0.832567,83.2567,259.5,323,74,73,103.947,"Hardest"
"A2615YW1YERQBO","wolfe1","image-122",20,0.845594093160024,2,"color","wolfe",186.5,380,252.5,446,4356,0.0130615,1.30615,2376,0.00712444,0.712444,0.545455,54.5455,215.5,407,118,157,196.4,"Hardest"
"A2615YW1YERQBO","wolfe1","image-133",16,0.834547857680949,2,"color","wolfe",447.5,143,488.5,219,3116,0.00934333,0.934333,2364,0.00708846,0.708846,0.758665,75.8665,470.5,184,137,66,152.069,"Hardest"
"A2615YW1YERQBO","wolfe1","image-133",16,0.834547857680949,3,"color","wolfe",447.5,143,488.5,219,3116,0.00934333,0.934333,2364,0.00708846,0.708846,0.758665,75.8665,470.5,184,137,66,152.069,"Hardest"
"A2615YW1YERQBO","wolfe1","image-135",12,0.838597252816656,3,"color","wolfe",400.5,161,450.5,193,1600,0.0047976,0.47976,1257,0.00376912,0.376912,0.785625,78.5625,424.5,179,91,71,115.421,"Hardest"
"A282NN2RO8XZP6","wolfe1","image-001",5,1.18517371235734,1,"disappear","wolfe",122.5,335,164.5,365,1260,0.00377811,0.377811,899,0.00269565,0.269565,0.713492,71.3492,142.5,350,191,100,215.595,"Hardest"
"A282NN2RO8XZP6","wolfe1","image-005",11,1.76343548133428,2,"disappear","wolfe",254.5,254,398.5,314,8640,0.025907,2.5907,5673,0.0170105,1.70105,0.656597,65.6597,330.5,281.5,3,31.5,31.6425,"Hardest"
"A282NN2RO8XZP6","wolfe1","image-008",29,0.932828766900847,4,"disappear","wolfe",513.5,81,569.5,150,3864,0.0115862,1.15862,2750,0.00824588,0.824588,0.711698,71.1698,543.5,116,210,134,249.11,"Hardest"
"A282NN2RO8XZP6","wolfe1","image-009",4,1.03490907336775,2,"disappear","wolfe",335.5,202,376.5,241,1599,0.0047946,0.47946,1214,0.00364018,0.364018,0.759225,75.9225,354.5,223,21,27,34.2053,"Hardest"
"A282NN2RO8XZP6","wolfe1","image-021",27,1.18403807862689,3,"disappear","wolfe",352.5,200,386.5,321,4114,0.0123358,1.23358,3048,0.00913943,0.913943,0.740885,74.0885,371.5,264,38,14,40.4969,"Hardest"
"A282NN2RO8XZP6","wolfe1","image-022",31,1.436925571228,1,"disappear","wolfe",182.5,273,230.5,289,768,0.00230285,0.230285,581,0.00174213,0.174213,0.75651,75.651,206.5,281,127,31,130.729,"Hardest"
"A282NN2RO8XZP6","wolfe1","image-031",16,1.17822851093577,1,"disappear","wolfe",160.5,248,191.5,276,868,0.0026027,0.26027,618,0.00185307,0.185307,0.711982,71.1982,175.5,263,158,13,158.534,"Hardest"
"A282NN2RO8XZP6","wolfe1","image-044",19,1.23626007100083,3,"disappear","wolfe",84.5,329,124.5,347,720,0.00215892,0.215892,533,0.0015982,0.15982,0.740278,74.0278,105.5,338,228,88,244.393,"Hardest"
"A282NN2RO8XZP6","wolfe1","image-049",18,1.32312829312512,3,"disappear","wolfe",70.5,8,152.5,121,9266,0.0277841,2.77841,4535,0.0135982,1.35982,0.489424,48.9424,113.5,60,220,190,290.689,"Hardest"
"A282NN2RO8XZP6","wolfe1","image-080",26,1.13036593726521,4,"color","wolfe",-1.5,163,73.5,213,3750,0.0112444,1.12444,2548,0.00764018,0.764018,0.679467,67.9467,27.5,190,306,60,311.827,"Hardest"
"A282NN2RO8XZP6","wolfe1","image-093",23,0.838156184752148,1,"color","wolfe",221.5,200,256.5,248,1680,0.00503748,0.503748,1107,0.00331934,0.331934,0.658929,65.8929,237.5,224,96,26,99.4585,"Hardest"
"A282NN2RO8XZP6","wolfe1","image-101",32,1.60202741802031,3,"color","wolfe",576.5,319,610.5,363,1496,0.00448576,0.448576,1240,0.00371814,0.371814,0.828877,82.8877,594.5,340,261,90,276.082,"Hardest"
"A282NN2RO8XZP6","wolfe1","image-103",7,1.39051119835142,1,"color","wolfe",131.5,312,168.5,388,2812,0.00843178,0.843178,1272,0.00381409,0.381409,0.452347,45.2347,146.833,339.667,186.667,89.6667,207.086,"Hardest"
"A282NN2RO8XZP6","wolfe1","image-104",21,1.23019337886905,3,"color","wolfe",-0.5,159,76.5,296,10549,0.0316312,3.16312,7492,0.0224648,2.24648,0.710209,71.0209,37.5,229,296,21,296.744,"Hardest"
