"workerId","stim_set","image","trial_number","log_rt","likelihood_rating","change_type","database","box_xmin","box_ymin","box_xmax","box_ymax","box_area","box_proportion","box_percent","change_area","change_proportion","change_percent","change_box_proportion","change_box_percent","centroid_x","centroid_y","a","b","eccentricity"
"A10MSB9X1UFLJ5","rensink","Amish",29,0.835436894801858,4,"color","rensink",208,176.5,303,256.5,7600,0.0217578,2.17578,5423,0.0155253,1.55253,0.713553,71.3553,253,219.5,97,30,101.533
"A10MSB9X1UFLJ5","rensink","Army",15,0.949877704036875,4,"disappear","rensink",544,177,703,265,13992,0.0399771,3.99771,10722,0.0306343,3.06343,0.766295,76.6295,628,218,278,32,279.836
"A10MSB9X1UFLJ5","rensink","Barns",21,0.832764304940531,5,"color","rensink",135,303.5,220,432.5,10965,0.0313914,3.13914,8901,0.0254824,2.54824,0.811765,81.1765,177,372.5,173,123,212.269
"A10MSB9X1UFLJ5","rensink","BarnTrack",6,0.835690571492426,4,"color","rensink",94.5,407,576.5,505,47236,0.135153,13.5153,28831,0.0824921,8.24921,0.610361,61.0361,283.5,469,66,219,228.729
"A10MSB9X1UFLJ5","rensink","Barrels",9,0.858296524533885,4,"color","rensink",478,448,703,503,12375,0.0353571,3.53571,9209,0.0263114,2.63114,0.744162,74.4162,610,479,260,229,346.469
"A10MSB9X1UFLJ5","rensink","Beach",3,0.842047288509638,5,"color","rensink",400,328.5,592,463.5,25920,0.0739093,7.39093,17854,0.0509096,5.09096,0.688812,68.8812,495,394.5,145,144,204.355
"A10MSB9X1UFLJ5","rensink","Birds",31,0.94551782207784,1,"movement","rensink",-0.5,-2.5,703.5,98.5,71104,0.20246,20.246,52348,0.149054,14.9054,0.736217,73.6217,331.5,39.5,19,211,211.854
"A10MSB9X1UFLJ5","rensink","Cactus",17,0.825685708021758,5,"disappear","rensink",27.5,168.5,189.5,289.5,19602,0.0559739,5.59739,14115,0.0403057,4.03057,0.72008,72.008,103.5,228.5,246,22,246.982
"A10MSB9X1UFLJ5","rensink","Camel",5,0.850217241798389,4,"disappear","rensink",639.5,192,702.5,281,5607,0.0160429,1.60429,4998,0.0143004,1.43004,0.891386,89.1386,672.5,234,323,16,323.396
"A10MSB9X1UFLJ5","rensink","Chopper",10,1.11733759509592,1,"disappear","rensink",-1.5,413,702.5,505,64768,0.185316,18.5316,40727,0.116529,11.6529,0.628814,62.8814,336.5,462,13,212,212.398
"A10MSB9X1UFLJ5","rensink","Cockpit",22,0.947727726963316,5,"movement","rensink",271.5,69,568.5,225,46332,0.132188,13.2188,35802,0.102146,10.2146,0.772727,77.2727,421.5,141,71,109,130.085
"A10MSB9X1UFLJ5","rensink","Description",11,1.17403071803803,3,"color","rensink",552,9,702,257,37200,0.10659,10.659,24386,0.0698739,6.98739,0.655538,65.5538,634,117,285,133,314.506
"A10MSB9X1UFLJ5","rensink","Dinner",23,0.835753967519383,3,"movement","rensink",262,211,396,382,22914,0.0654686,6.54686,19346,0.0552743,5.52743,0.844287,84.4287,332,290,18,40,43.8634
"A10MSB9X1UFLJ5","rensink","Eating",24,0.950413539369381,4,"movement","rensink",-1,153,703,356,142912,0.40832,40.832,48226,0.137789,13.7789,0.337452,33.7452,350,212,0,38,38
"A10MSB9X1UFLJ5","rensink","FarmByPond",19,0.985246790802862,2,"movement","rensink",-1.5,323.5,358.5,502.5,64440,0.184747,18.4747,55725,0.159762,15.9762,0.864758,86.4758,164.5,413.5,185,164,247.227
"A10MSB9X1UFLJ5","rensink","Fishing",25,0.83695673705955,2,"movement","rensink",87,248,419,418,56440,0.161257,16.1257,36891,0.105403,10.5403,0.653632,65.3632,232,343,118,93,150.243
"A10MSB9X1UFLJ5","rensink","Floatplane",28,0.844601419626347,4,"color","rensink",77,241,488,385,59184,0.169097,16.9097,11329,0.0323686,3.23686,0.19142,19.142,273.5,326.25,76.5,76.25,108.011
"A10MSB9X1UFLJ5","rensink","Horizon",32,1.03031630598859,4,"movement","rensink",202,41,455,97,14168,0.04048,4.048,12230,0.0349429,3.49429,0.863213,86.3213,328,69,22,181,182.332
"A10MSB9X1UFLJ5","rensink","Ice",30,0.949926443667912,4,"disappear","rensink",1,223.5,153,273.5,7600,0.0216709,2.16709,5449,0.0155375,1.55375,0.716974,71.6974,79,248.5,271,2,271.007
"A10MSB9X1UFLJ5","rensink","Kayak",12,0.836134149465375,5,"color","rensink",207,241,402,397,30420,0.0869143,8.69143,20746,0.0592743,5.92743,0.681986,68.1986,296,322,54,72,90
"A10MSB9X1UFLJ5","rensink","Kids",14,0.85394144588049,4,"color","rensink",12.5,153,215.5,462,62727,0.179476,17.9476,42832,0.122552,12.2552,0.682832,68.2832,104.5,332,245,82,258.358
"A10MSB9X1UFLJ5","rensink","Lake",7,0.832189461068513,5,"disappear","rensink",433.5,201,559.5,412,26586,0.0758516,7.58516,19929,0.0568588,5.68588,0.749605,74.9605,484.5,308,134,58,146.014
"A10MSB9X1UFLJ5","rensink","Market",16,0.827046017004734,4,"color","rensink",19,261,89,457,13720,0.0392,3.92,10953,0.0312943,3.12943,0.798324,79.8324,55,355,295,105,313.129
"A10MSB9X1UFLJ5","rensink","NotreDame",26,0.833019547076531,2,"movement","rensink",182.5,8.5,490.5,252.5,75152,0.215458,21.5458,64577,0.18514,18.514,0.859285,85.9285,332.5,131.5,17,118,119.218
"A10MSB9X1UFLJ5","rensink","Nurses",20,0.850155922422092,5,"color","rensink",486.5,-1,702.5,393,85104,0.243502,24.3502,58420,0.167153,16.7153,0.686454,68.6454,618.5,158,269,92,284.297
"A10MSB9X1UFLJ5","rensink","Obelisk",27,1.12004719435304,5,"disappear","rensink",519,194,684,313,19635,0.0561,5.61,16595,0.0474143,4.74143,0.845174,84.5174,602,253,252,3,252.018
"A10MSB9X1UFLJ5","rensink","Station",4,1.03205437547967,3,"disappear","rensink",536,201,656,257,6720,0.0192,1.92,5127,0.0146486,1.46486,0.762946,76.2946,593,225,243,25,244.283
"A10MSB9X1UFLJ5","rensink","Window",13,1.00212284622516,4,"disappear","rensink",-1,335.5,161,472.5,22194,0.0632849,6.32849,17022,0.0485372,4.85372,0.766964,76.6964,68,404.5,282,154,321.31
"A171RZ3O028XF6","rensink","Army",23,0.889917683436206,2,"disappear","rensink",544,177,703,265,13992,0.0399771,3.99771,10722,0.0306343,3.06343,0.766295,76.6295,628,218,278,32,279.836
"A171RZ3O028XF6","rensink","Barrels",29,0.816970037757299,4,"color","rensink",478,448,703,503,12375,0.0353571,3.53571,9209,0.0263114,2.63114,0.744162,74.4162,610,479,260,229,346.469
"A171RZ3O028XF6","rensink","Boat",31,0.836324115706752,1,"movement","rensink",-1,200.5,421,337.5,57814,0.164853,16.4853,49840,0.142116,14.2116,0.862075,86.2075,196,273.5,154,23,155.708
"A171RZ3O028XF6","rensink","Cockpit",28,0.832445041174111,1,"movement","rensink",271.5,69,568.5,225,46332,0.132188,13.2188,35802,0.102146,10.2146,0.772727,77.2727,421.5,141,71,109,130.085
"A171RZ3O028XF6","rensink","Description",9,0.81431420020746,1,"color","rensink",552,9,702,257,37200,0.10659,10.659,24386,0.0698739,6.98739,0.655538,65.5538,634,117,285,133,314.506
"A171RZ3O028XF6","rensink","Dinner",16,0.888684846659699,1,"movement","rensink",262,211,396,382,22914,0.0654686,6.54686,19346,0.0552743,5.52743,0.844287,84.4287,332,290,18,40,43.8634
"A171RZ3O028XF6","rensink","Diver",30,0.816174990428802,5,"color","rensink",68,279.5,248,452.5,31140,0.0891497,8.91497,17605,0.0504008,5.04008,0.56535,56.535,154,364.5,196,115,227.247
"A171RZ3O028XF6","rensink","Egypt",25,0.822233480238844,1,"movement","rensink",312.5,65,455.5,425,51480,0.147719,14.7719,39393,0.113036,11.3036,0.76521,76.521,382.5,240,34,10,35.4401
"A171RZ3O028XF6","rensink","FarmByPond",14,0.8885725968576,1,"movement","rensink",-1.5,323.5,358.5,502.5,64440,0.184747,18.4747,55725,0.159762,15.9762,0.864758,86.4758,164.5,413.5,185,164,247.227
"A171RZ3O028XF6","rensink","Farmer",27,0.820661134643595,5,"color","rensink",247,145,362,257,12880,0.0368,3.68,8751,0.0250029,2.50029,0.679425,67.9425,296,196,54,54,76.3675
"A171RZ3O028XF6","rensink","Floatplane",24,0.824581376233483,5,"color","rensink",77,241,488,385,59184,0.169097,16.9097,11329,0.0323686,3.23686,0.19142,19.142,273.5,326.25,76.5,76.25,108.011
"A171RZ3O028XF6","rensink","Harbor",15,0.828531006645101,4,"color","rensink",320,265,534,362,20758,0.0594785,5.94785,10086,0.0288997,2.88997,0.485885,48.5885,416,320,67,70,96.8969
"A171RZ3O028XF6","rensink","Horizon",26,0.816837630902035,3,"movement","rensink",202,41,455,97,14168,0.04048,4.048,12230,0.0349429,3.49429,0.863213,86.3213,328,69,22,181,182.332
"A171RZ3O028XF6","rensink","Kayaker",17,0.848620117434134,2,"disappear","rensink",366.5,68,463.5,217,14453,0.0412354,4.12354,10059,0.028699,2.8699,0.69598,69.598,418.5,135,68,115,133.6
"A171RZ3O028XF6","rensink","Kids",22,0.819148942807134,2,"color","rensink",12.5,153,215.5,462,62727,0.179476,17.9476,42832,0.122552,12.2552,0.682832,68.2832,104.5,332,245,82,258.358
"A171RZ3O028XF6","rensink","Lake",12,0.826657791875869,4,"disappear","rensink",433.5,201,559.5,412,26586,0.0758516,7.58516,19929,0.0568588,5.68588,0.749605,74.9605,484.5,308,134,58,146.014
"A171RZ3O028XF6","rensink","Market",5,0.818753590497717,4,"color","rensink",19,261,89,457,13720,0.0392,3.92,10953,0.0312943,3.12943,0.798324,79.8324,55,355,295,105,313.129
"A171RZ3O028XF6","rensink","NotreDame",11,0.873087985590286,1,"movement","rensink",182.5,8.5,490.5,252.5,75152,0.215458,21.5458,64577,0.18514,18.514,0.859285,85.9285,332.5,131.5,17,118,119.218
"A171RZ3O028XF6","rensink","Obelisk",32,0.937417581477138,4,"disappear","rensink",519,194,684,313,19635,0.0561,5.61,16595,0.0474143,4.74143,0.845174,84.5174,602,253,252,3,252.018
"A171RZ3O028XF6","rensink","OtherDiver",8,0.929112256654661,1,"movement","rensink",475,221.5,703,400.5,40812,0.116839,11.6839,34605,0.0990696,9.90696,0.847912,84.7912,595,311.5,245,62,252.723
"A171RZ3O028XF6","rensink","Pilots",7,0.934043719035525,4,"color","rensink",584,176,703,281,12495,0.0357,3.57,9678,0.0276514,2.76514,0.77455,77.455,650,230,300,20,300.666
"A171RZ3O028XF6","rensink","Seal",20,0.940914737580285,4,"movement","rensink",288,200.5,463,281.5,14175,0.0404192,4.04192,10386,0.0296151,2.96151,0.732698,73.2698,376,240.5,26,10,27.8568
"A171RZ3O028XF6","rensink","Station",19,0.841171694499532,2,"disappear","rensink",536,201,656,257,6720,0.0192,1.92,5127,0.0146486,1.46486,0.762946,76.2946,593,225,243,25,244.283
"A171RZ3O028XF6","rensink","SummerLake",13,0.868820706197517,4,"disappear","rensink",439.5,287,634.5,358,13845,0.0396137,3.96137,9010,0.0257797,2.57797,0.650776,65.0776,540.5,319,191,69,203.081
"A171RZ3O028XF6","rensink","Turtle",3,0.809896246602439,5,"color","rensink",-0.5,-3,655.5,108,72816,0.207749,20.7749,49078,0.140023,14.0023,0.674,67.4,435.5,31.5,85,218.5,234.451
"A171RZ3O028XF6","rensink","Window",21,0.817961804531994,3,"disappear","rensink",-1,335.5,161,472.5,22194,0.0632849,6.32849,17022,0.0485372,4.85372,0.766964,76.6964,68,404.5,282,154,321.31
"A1G187YBG0DVMQ","rensink","Amish",6,0.722716167488495,4,"color","rensink",208,176.5,303,256.5,7600,0.0217578,2.17578,5423,0.0155253,1.55253,0.713553,71.3553,253,219.5,97,30,101.533
"A1G187YBG0DVMQ","rensink","Army",27,0.813580988568192,2,"disappear","rensink",544,177,703,265,13992,0.0399771,3.99771,10722,0.0306343,3.06343,0.766295,76.6295,628,218,278,32,279.836
"A1G187YBG0DVMQ","rensink","Barns",11,0.815378484965918,4,"color","rensink",135,303.5,220,432.5,10965,0.0313914,3.13914,8901,0.0254824,2.54824,0.811765,81.1765,177,372.5,173,123,212.269
"A1G187YBG0DVMQ","rensink","BarnTrack",9,0.700703717145019,3,"color","rensink",94.5,407,576.5,505,47236,0.135153,13.5153,28831,0.0824921,8.24921,0.610361,61.0361,283.5,469,66,219,228.729
"A1G187YBG0DVMQ","rensink","Beach",16,0.818357877958355,4,"color","rensink",400,328.5,592,463.5,25920,0.0739093,7.39093,17854,0.0509096,5.09096,0.688812,68.8812,495,394.5,145,144,204.355
"A1G187YBG0DVMQ","rensink","Camel",8,0.72956972630197,2,"disappear","rensink",639.5,192,702.5,281,5607,0.0160429,1.60429,4998,0.0143004,1.43004,0.891386,89.1386,672.5,234,323,16,323.396
"A1G187YBG0DVMQ","rensink","Castle",23,0.672559627763276,1,"movement","rensink",259.5,360,561.5,438,23556,0.0675925,6.75925,13846,0.0397303,3.97303,0.587791,58.7791,414.5,403,66,153,166.628
"A1G187YBG0DVMQ","rensink","Cockpit",14,0.935960468989166,3,"movement","rensink",271.5,69,568.5,225,46332,0.132188,13.2188,35802,0.102146,10.2146,0.772727,77.2727,421.5,141,71,109,130.085
"A1G187YBG0DVMQ","rensink","Eating",17,0.719662683018047,1,"movement","rensink",-1,153,703,356,142912,0.40832,40.832,48226,0.137789,13.7789,0.337452,33.7452,350,212,0,38,38
"A1G187YBG0DVMQ","rensink","Egypt",21,0.673665876245702,2,"movement","rensink",312.5,65,455.5,425,51480,0.147719,14.7719,39393,0.113036,11.3036,0.76521,76.521,382.5,240,34,10,35.4401
"A1G187YBG0DVMQ","rensink","Farmer",31,0.675136504467994,2,"color","rensink",247,145,362,257,12880,0.0368,3.68,8751,0.0250029,2.50029,0.679425,67.9425,296,196,54,54,76.3675
"A1G187YBG0DVMQ","rensink","Fountain",5,0.760347078529906,3,"movement","rensink",376,49,520,200,21744,0.0621257,6.21257,16415,0.0469,4.69,0.754921,75.4921,445,134,95,116,149.937
"A1G187YBG0DVMQ","rensink","Harbor",4,0.884851982745998,5,"color","rensink",320,265,534,362,20758,0.0594785,5.94785,10086,0.0288997,2.88997,0.485885,48.5885,416,320,67,70,96.8969
"A1G187YBG0DVMQ","rensink","Horizon",22,0.675136504467994,2,"movement","rensink",202,41,455,97,14168,0.04048,4.048,12230,0.0349429,3.49429,0.863213,86.3213,328,69,22,181,182.332
"A1G187YBG0DVMQ","rensink","Ice",19,0.814647069451856,4,"disappear","rensink",1,223.5,153,273.5,7600,0.0216709,2.16709,5449,0.0155375,1.55375,0.716974,71.6974,79,248.5,271,2,271.007
"A1G187YBG0DVMQ","rensink","Kayaker",32,0.672190251188252,4,"disappear","rensink",366.5,68,463.5,217,14453,0.0412354,4.12354,10059,0.028699,2.8699,0.69598,69.598,418.5,135,68,115,133.6
"A1G187YBG0DVMQ","rensink","Market",13,0.818225893613955,3,"color","rensink",19,261,89,457,13720,0.0392,3.92,10953,0.0312943,3.12943,0.798324,79.8324,55,355,295,105,313.129
"A1G187YBG0DVMQ","rensink","Marling",7,0.754654069255432,4,"disappear","rensink",199,377,331,502,16500,0.0471429,4.71429,13466,0.0384743,3.84743,0.816121,81.6121,265,443,85,193,210.889
"A1G187YBG0DVMQ","rensink","Mosque",18,0.828917561616686,4,"disappear","rensink",319.5,72.5,391.5,289.5,15624,0.0444873,4.44873,12875,0.0366599,3.66599,0.824053,82.4053,354.5,176.5,4,74,74.108
"A1G187YBG0DVMQ","rensink","NotreDame",24,0.675961549642169,1,"movement","rensink",182.5,8.5,490.5,252.5,75152,0.215458,21.5458,64577,0.18514,18.514,0.859285,85.9285,332.5,131.5,17,118,119.218
"A1G187YBG0DVMQ","rensink","Nurses",30,0.732715340349993,4,"color","rensink",486.5,-1,702.5,393,85104,0.243502,24.3502,58420,0.167153,16.7153,0.686454,68.6454,618.5,158,269,92,284.297
"A1G187YBG0DVMQ","rensink","Pilots",29,0.776773802412107,3,"color","rensink",584,176,703,281,12495,0.0357,3.57,9678,0.0276514,2.76514,0.77455,77.455,650,230,300,20,300.666
"A1G187YBG0DVMQ","rensink","Seal",15,0.686010291315286,2,"movement","rensink",288,200.5,463,281.5,14175,0.0404192,4.04192,10386,0.0296151,2.96151,0.732698,73.2698,376,240.5,26,10,27.8568
"A1G187YBG0DVMQ","rensink","Soldiers",20,0.811909980420099,3,"disappear","rensink",117,128,222,249,12705,0.0363,3.63,7819,0.02234,2.234,0.615427,61.5427,164,188,186,62,196.061
"A1G187YBG0DVMQ","rensink","Station",26,0.673205281779045,1,"disappear","rensink",536,201,656,257,6720,0.0192,1.92,5127,0.0146486,1.46486,0.762946,76.2946,593,225,243,25,244.283
"A1G187YBG0DVMQ","rensink","Turtle",10,0.811306840081336,3,"color","rensink",-0.5,-3,655.5,108,72816,0.207749,20.7749,49078,0.140023,14.0023,0.674,67.4,435.5,31.5,85,218.5,234.451
"A1G187YBG0DVMQ","rensink","Window",25,0.822298871262366,2,"disappear","rensink",-1,335.5,161,472.5,22194,0.0632849,6.32849,17022,0.0485372,4.85372,0.766964,76.6964,68,404.5,282,154,321.31
"A1G187YBG0DVMQ","rensink","Wine",28,0.67052415778208,3,"disappear","rensink",361,169,681,384,68800,0.196571,19.6571,53416,0.152617,15.2617,0.776395,77.6395,517,283,167,33,170.229
"A1GKD3NG1NNHRP","rensink","Amish",8,0.845594093160024,4,"color","rensink",208,176.5,303,256.5,7600,0.0217578,2.17578,5423,0.0155253,1.55253,0.713553,71.3553,253,219.5,97,30,101.533
"A1GKD3NG1NNHRP","rensink","Army",14,0.973497308732063,4,"disappear","rensink",544,177,703,265,13992,0.0399771,3.99771,10722,0.0306343,3.06343,0.766295,76.6295,628,218,278,32,279.836
"A1GKD3NG1NNHRP","rensink","BarnTrack",20,0.942504106168081,2,"color","rensink",94.5,407,576.5,505,47236,0.135153,13.5153,28831,0.0824921,8.24921,0.610361,61.0361,283.5,469,66,219,228.729
"A1GKD3NG1NNHRP","rensink","Beach",6,0.850462432761517,3,"color","rensink",400,328.5,592,463.5,25920,0.0739093,7.39093,17854,0.0509096,5.09096,0.688812,68.8812,495,394.5,145,144,204.355
"A1GKD3NG1NNHRP","rensink","Boat",19,0.974235277443026,2,"movement","rensink",-1,200.5,421,337.5,57814,0.164853,16.4853,49840,0.142116,14.2116,0.862075,86.2075,196,273.5,154,23,155.708
"A1GKD3NG1NNHRP","rensink","Camel",4,1.11257148986498,4,"disappear","rensink",639.5,192,702.5,281,5607,0.0160429,1.60429,4998,0.0143004,1.43004,0.891386,89.1386,672.5,234,323,16,323.396
"A1GKD3NG1NNHRP","rensink","Castle",31,1.0321350468799,4,"movement","rensink",259.5,360,561.5,438,23556,0.0675925,6.75925,13846,0.0397303,3.97303,0.587791,58.7791,414.5,403,66,153,166.628
"A1GKD3NG1NNHRP","rensink","Cockpit",21,0.878061981290013,4,"movement","rensink",271.5,69,568.5,225,46332,0.132188,13.2188,35802,0.102146,10.2146,0.772727,77.2727,421.5,141,71,109,130.085
"A1GKD3NG1NNHRP","rensink","Description",22,1.10829435094009,3,"color","rensink",552,9,702,257,37200,0.10659,10.659,24386,0.0698739,6.98739,0.655538,65.5538,634,117,285,133,314.506
"A1GKD3NG1NNHRP","rensink","Dinner",12,1.02428037604708,4,"movement","rensink",262,211,396,382,22914,0.0654686,6.54686,19346,0.0552743,5.52743,0.844287,84.4287,332,290,18,40,43.8634
"A1GKD3NG1NNHRP","rensink","Diver",24,1.14188854970586,4,"color","rensink",68,279.5,248,452.5,31140,0.0891497,8.91497,17605,0.0504008,5.04008,0.56535,56.535,154,364.5,196,115,227.247
"A1GKD3NG1NNHRP","rensink","FarmByPond",13,0.863560764526243,4,"movement","rensink",-1.5,323.5,358.5,502.5,64440,0.184747,18.4747,55725,0.159762,15.9762,0.864758,86.4758,164.5,413.5,185,164,247.227
"A1GKD3NG1NNHRP","rensink","Farmer",28,0.85436677804087,2,"color","rensink",247,145,362,257,12880,0.0368,3.68,8751,0.0250029,2.50029,0.679425,67.9425,296,196,54,54,76.3675
"A1GKD3NG1NNHRP","rensink","Fishing",25,0.935708747842664,4,"movement","rensink",87,248,419,418,56440,0.161257,16.1257,36891,0.105403,10.5403,0.653632,65.3632,232,343,118,93,150.243
"A1GKD3NG1NNHRP","rensink","Fountain",26,0.948021533141104,4,"movement","rensink",376,49,520,200,21744,0.0621257,6.21257,16415,0.0469,4.69,0.754921,75.4921,445,134,95,116,149.937
"A1GKD3NG1NNHRP","rensink","Harbor",32,0.942107308989356,4,"color","rensink",320,265,534,362,20758,0.0594785,5.94785,10086,0.0288997,2.88997,0.485885,48.5885,416,320,67,70,96.8969
"A1GKD3NG1NNHRP","rensink","Kids",5,1.28580476384863,2,"color","rensink",12.5,153,215.5,462,62727,0.179476,17.9476,42832,0.122552,12.2552,0.682832,68.2832,104.5,332,245,82,258.358
"A1GKD3NG1NNHRP","rensink","Mosque",17,0.826787238816292,4,"disappear","rensink",319.5,72.5,391.5,289.5,15624,0.0444873,4.44873,12875,0.0366599,3.66599,0.824053,82.4053,354.5,176.5,4,74,74.108
"A1GKD3NG1NNHRP","rensink","NotreDame",9,1.05659997629278,4,"movement","rensink",182.5,8.5,490.5,252.5,75152,0.215458,21.5458,64577,0.18514,18.514,0.859285,85.9285,332.5,131.5,17,118,119.218
"A1GKD3NG1NNHRP","rensink","Obelisk",27,0.946059060385124,4,"disappear","rensink",519,194,684,313,19635,0.0561,5.61,16595,0.0474143,4.74143,0.845174,84.5174,602,253,252,3,252.018
"A1GKD3NG1NNHRP","rensink","Station",15,0.933689708957895,2,"disappear","rensink",536,201,656,257,6720,0.0192,1.92,5127,0.0146486,1.46486,0.762946,76.2946,593,225,243,25,244.283
"A1GKD3NG1NNHRP","rensink","SummerLake",7,0.959566046637928,4,"disappear","rensink",439.5,287,634.5,358,13845,0.0396137,3.96137,9010,0.0257797,2.57797,0.650776,65.0776,540.5,319,191,69,203.081
"A1GKD3NG1NNHRP","rensink","Turtle",11,1.03758584282662,3,"color","rensink",-0.5,-3,655.5,108,72816,0.207749,20.7749,49078,0.140023,14.0023,0.674,67.4,435.5,31.5,85,218.5,234.451
"A1GKD3NG1NNHRP","rensink","Water",10,0.894758994371892,3,"movement","rensink",208.5,325,702.5,502,87438,0.25018,25.018,80161,0.229359,22.9359,0.916775,91.6775,454.5,418,105,168,198.114
"A1GKD3NG1NNHRP","rensink","Window",29,0.963031875053898,4,"disappear","rensink",-1,335.5,161,472.5,22194,0.0632849,6.32849,17022,0.0485372,4.85372,0.766964,76.6964,68,404.5,282,154,321.31
"A1GKD3NG1NNHRP","rensink","Wine",30,0.974235277443026,4,"disappear","rensink",361,169,681,384,68800,0.196571,19.6571,53416,0.152617,15.2617,0.776395,77.6395,517,283,167,33,170.229
"A1NR3COO33J99C","rensink","Amish",14,0.826851947820644,5,"color","rensink",208,176.5,303,256.5,7600,0.0217578,2.17578,5423,0.0155253,1.55253,0.713553,71.3553,253,219.5,97,30,101.533
"A1NR3COO33J99C","rensink","Beach",25,0.827821427682802,5,"color","rensink",400,328.5,592,463.5,25920,0.0739093,7.39093,17854,0.0509096,5.09096,0.688812,68.8812,495,394.5,145,144,204.355
"A1NR3COO33J99C","rensink","Birds",22,0.85101360682367,3,"movement","rensink",-0.5,-2.5,703.5,98.5,71104,0.20246,20.246,52348,0.149054,14.9054,0.736217,73.6217,331.5,39.5,19,211,211.854
"A1NR3COO33J99C","rensink","Boat",24,0.815776920298363,3,"movement","rensink",-1,200.5,421,337.5,57814,0.164853,16.4853,49840,0.142116,14.2116,0.862075,86.2075,196,273.5,154,23,155.708
"A1NR3COO33J99C","rensink","Bus",7,0.859378504425601,2,"disappear","rensink",376,84,425,191,5243,0.01498,1.498,3790,0.0108286,1.08286,0.722869,72.2869,401,138,51,112,123.065
"A1NR3COO33J99C","rensink","Cactus",10,0.814513952368238,5,"disappear","rensink",27.5,168.5,189.5,289.5,19602,0.0559739,5.59739,14115,0.0403057,4.03057,0.72008,72.008,103.5,228.5,246,22,246.982
"A1NR3COO33J99C","rensink","Camel",26,0.825685708021758,4,"disappear","rensink",639.5,192,702.5,281,5607,0.0160429,1.60429,4998,0.0143004,1.43004,0.891386,89.1386,672.5,234,323,16,323.396
"A1NR3COO33J99C","rensink","Chopper",11,0.828981954007923,3,"disappear","rensink",-1.5,413,702.5,505,64768,0.185316,18.5316,40727,0.116529,11.6529,0.628814,62.8814,336.5,462,13,212,212.398
"A1NR3COO33J99C","rensink","Cockpit",4,0.84868165402395,4,"movement","rensink",271.5,69,568.5,225,46332,0.132188,13.2188,35802,0.102146,10.2146,0.772727,77.2727,421.5,141,71,109,130.085
"A1NR3COO33J99C","rensink","Diver",8,0.832253370197008,5,"color","rensink",68,279.5,248,452.5,31140,0.0891497,8.91497,17605,0.0504008,5.04008,0.56535,56.535,154,364.5,196,115,227.247
"A1NR3COO33J99C","rensink","Egypt",16,0.829946695941636,3,"movement","rensink",312.5,65,455.5,425,51480,0.147719,14.7719,39393,0.113036,11.3036,0.76521,76.521,382.5,240,34,10,35.4401
"A1NR3COO33J99C","rensink","Floatplane",31,0.827627704767433,5,"color","rensink",77,241,488,385,59184,0.169097,16.9097,11329,0.0323686,3.23686,0.19142,19.142,273.5,326.25,76.5,76.25,108.011
"A1NR3COO33J99C","rensink","Fountain",3,0.821054755046888,3,"movement","rensink",376,49,520,200,21744,0.0621257,6.21257,16415,0.0469,4.69,0.754921,75.4921,445,134,95,116,149.937
"A1NR3COO33J99C","rensink","Ice",9,0.848373883844602,5,"disappear","rensink",1,223.5,153,273.5,7600,0.0216709,2.16709,5449,0.0155375,1.55375,0.716974,71.6974,79,248.5,271,2,271.007
"A1NR3COO33J99C","rensink","Kayak",28,0.830010935936118,5,"color","rensink",207,241,402,397,30420,0.0869143,8.69143,20746,0.0592743,5.92743,0.681986,68.1986,296,322,54,72,90
"A1NR3COO33J99C","rensink","Kayaker",5,0.867644233903099,4,"disappear","rensink",366.5,68,463.5,217,14453,0.0412354,4.12354,10059,0.028699,2.8699,0.69598,69.598,418.5,135,68,115,133.6
"A1NR3COO33J99C","rensink","Lake",27,0.831357785442068,5,"disappear","rensink",433.5,201,559.5,412,26586,0.0758516,7.58516,19929,0.0568588,5.68588,0.749605,74.9605,484.5,308,134,58,146.014
"A1NR3COO33J99C","rensink","Mosque",12,0.863560764526243,5,"disappear","rensink",319.5,72.5,391.5,289.5,15624,0.0444873,4.44873,12875,0.0366599,3.66599,0.824053,82.4053,354.5,176.5,4,74,74.108
"A1NR3COO33J99C","rensink","NotreDame",30,0.818687663441514,3,"movement","rensink",182.5,8.5,490.5,252.5,75152,0.215458,21.5458,64577,0.18514,18.514,0.859285,85.9285,332.5,131.5,17,118,119.218
"A1NR3COO33J99C","rensink","Nurses",19,0.831421817065022,5,"color","rensink",486.5,-1,702.5,393,85104,0.243502,24.3502,58420,0.167153,16.7153,0.686454,68.6454,618.5,158,269,92,284.297
"A1NR3COO33J99C","rensink","Seal",18,0.831677849191467,4,"movement","rensink",288,200.5,463,281.5,14175,0.0404192,4.04192,10386,0.0296151,2.96151,0.732698,73.2698,376,240.5,26,10,27.8568
"A1NR3COO33J99C","rensink","Soldiers",23,0.820923587881317,5,"disappear","rensink",117,128,222,249,12705,0.0363,3.63,7819,0.02234,2.234,0.615427,61.5427,164,188,186,62,196.061
"A1NR3COO33J99C","rensink","Station",6,0.819280646972481,2,"disappear","rensink",536,201,656,257,6720,0.0192,1.92,5127,0.0146486,1.46486,0.762946,76.2946,593,225,243,25,244.283
"A1NR3COO33J99C","rensink","SummerLake",32,0.840670561333409,5,"disappear","rensink",439.5,287,634.5,358,13845,0.0396137,3.96137,9010,0.0257797,2.57797,0.650776,65.0776,540.5,319,191,69,203.081
"A1NR3COO33J99C","rensink","Water",29,0.844663528240239,4,"movement","rensink",208.5,325,702.5,502,87438,0.25018,25.018,80161,0.229359,22.9359,0.916775,91.6775,454.5,418,105,168,198.114
"A1QC1K71RGKZBI","rensink","Amish",24,0.835563751669097,5,"color","rensink",208,176.5,303,256.5,7600,0.0217578,2.17578,5423,0.0155253,1.55253,0.713553,71.3553,253,219.5,97,30,101.533
"A1QC1K71RGKZBI","rensink","Army",10,1.01228873983461,1,"disappear","rensink",544,177,703,265,13992,0.0399771,3.99771,10722,0.0306343,3.06343,0.766295,76.6295,628,218,278,32,279.836
"A1QC1K71RGKZBI","rensink","Beach",22,0.887279634530023,5,"color","rensink",400,328.5,592,463.5,25920,0.0739093,7.39093,17854,0.0509096,5.09096,0.688812,68.8812,495,394.5,145,144,204.355
"A1QC1K71RGKZBI","rensink","Birds",23,0.983941858983888,1,"movement","rensink",-0.5,-2.5,703.5,98.5,71104,0.20246,20.246,52348,0.149054,14.9054,0.736217,73.6217,331.5,39.5,19,211,211.854
"A1QC1K71RGKZBI","rensink","Cactus",8,0.973958686106704,5,"disappear","rensink",27.5,168.5,189.5,289.5,19602,0.0559739,5.59739,14115,0.0403057,4.03057,0.72008,72.008,103.5,228.5,246,22,246.982
"A1QC1K71RGKZBI","rensink","CanalBridge",31,0.83511959042455,5,"disappear","rensink",346.5,310,702.5,497,66572,0.190478,19.0478,52438,0.150037,15.0037,0.787689,78.7689,541.5,394,192,144,240
"A1QC1K71RGKZBI","rensink","Chopper",28,0.99281852006668,1,"disappear","rensink",-1.5,413,702.5,505,64768,0.185316,18.5316,40727,0.116529,11.6529,0.628814,62.8814,336.5,462,13,212,212.398
"A1QC1K71RGKZBI","rensink","Dinner",11,0.771366970857781,2,"movement","rensink",262,211,396,382,22914,0.0654686,6.54686,19346,0.0552743,5.52743,0.844287,84.4287,332,290,18,40,43.8634
"A1QC1K71RGKZBI","rensink","Eating",26,0.841359470454855,1,"movement","rensink",-1,153,703,356,142912,0.40832,40.832,48226,0.137789,13.7789,0.337452,33.7452,350,212,0,38,38
"A1QC1K71RGKZBI","rensink","Floatplane",16,0.958229314188382,5,"color","rensink",77,241,488,385,59184,0.169097,16.9097,11329,0.0323686,3.23686,0.19142,19.142,273.5,326.25,76.5,76.25,108.011
"A1QC1K71RGKZBI","rensink","Harbor",25,0.844228581301628,5,"color","rensink",320,265,534,362,20758,0.0594785,5.94785,10086,0.0288997,2.88997,0.485885,48.5885,416,320,67,70,96.8969
"A1QC1K71RGKZBI","rensink","Ice",12,0.98802356192866,5,"disappear","rensink",1,223.5,153,273.5,7600,0.0216709,2.16709,5449,0.0155375,1.55375,0.716974,71.6974,79,248.5,271,2,271.007
"A1QC1K71RGKZBI","rensink","Kayak",27,0.836450713720155,5,"color","rensink",207,241,402,397,30420,0.0869143,8.69143,20746,0.0592743,5.92743,0.681986,68.1986,296,322,54,72,90
"A1QC1K71RGKZBI","rensink","Kayaker",29,0.973497308732063,4,"disappear","rensink",366.5,68,463.5,217,14453,0.0412354,4.12354,10059,0.028699,2.8699,0.69598,69.598,418.5,135,68,115,133.6
"A1QC1K71RGKZBI","rensink","Lake",19,0.843481943039958,5,"disappear","rensink",433.5,201,559.5,412,26586,0.0758516,7.58516,19929,0.0568588,5.68588,0.749605,74.9605,484.5,308,134,58,146.014
"A1QC1K71RGKZBI","rensink","Marling",6,0.884342147647059,4,"disappear","rensink",199,377,331,502,16500,0.0471429,4.71429,13466,0.0384743,3.84743,0.816121,81.6121,265,443,85,193,210.889
"A1QC1K71RGKZBI","rensink","NotreDame",5,0.892317260722481,2,"movement","rensink",182.5,8.5,490.5,252.5,75152,0.215458,21.5458,64577,0.18514,18.514,0.859285,85.9285,332.5,131.5,17,118,119.218
"A1QC1K71RGKZBI","rensink","OtherDiver",30,0.956888454650077,1,"movement","rensink",475,221.5,703,400.5,40812,0.116839,11.6839,34605,0.0990696,9.90696,0.847912,84.7912,595,311.5,245,62,252.723
"A1QC1K71RGKZBI","rensink","Pilots",15,0.885191540606848,1,"color","rensink",584,176,703,281,12495,0.0357,3.57,9678,0.0276514,2.76514,0.77455,77.455,650,230,300,20,300.666
"A1QC1K71RGKZBI","rensink","Seal",13,0.867762024650201,3,"movement","rensink",288,200.5,463,281.5,14175,0.0404192,4.04192,10386,0.0296151,2.96151,0.732698,73.2698,376,240.5,26,10,27.8568
"A1QC1K71RGKZBI","rensink","Turtle",17,0.962700731704341,4,"color","rensink",-0.5,-3,655.5,108,72816,0.207749,20.7749,49078,0.140023,14.0023,0.674,67.4,435.5,31.5,85,218.5,234.451
"A1QC1K71RGKZBI","rensink","Water",9,0.966657884201758,1,"movement","rensink",208.5,325,702.5,502,87438,0.25018,25.018,80161,0.229359,22.9359,0.916775,91.6775,454.5,418,105,168,198.114
"A1QC1K71RGKZBI","rensink","Wine",20,0.844104230697513,2,"disappear","rensink",361,169,681,384,68800,0.196571,19.6571,53416,0.152617,15.2617,0.776395,77.6395,517,283,167,33,170.229
"A1QUBLZCONL4QD","rensink","Boat",4,0.859738566197147,5,"movement","rensink",-1,200.5,421,337.5,57814,0.164853,16.4853,49840,0.142116,14.2116,0.862075,86.2075,196,273.5,154,23,155.708
"A1QUBLZCONL4QD","rensink","Fishing",5,0.817499261867758,5,"movement","rensink",87,248,419,418,56440,0.161257,16.1257,36891,0.105403,10.5403,0.653632,65.3632,232,343,118,93,150.243
"A1QUBLZCONL4QD","rensink","Fountain",16,0.811575005870593,5,"movement","rensink",376,49,520,200,21744,0.0621257,6.21257,16415,0.0469,4.69,0.754921,75.4921,445,134,95,116,149.937
"A1QUBLZCONL4QD","rensink","Kayak",22,0.637089273530331,5,"color","rensink",207,241,402,397,30420,0.0869143,8.69143,20746,0.0592743,5.92743,0.681986,68.1986,296,322,54,72,90
"A1QUBLZCONL4QD","rensink","NotreDame",20,0.698796251790431,5,"movement","rensink",182.5,8.5,490.5,252.5,75152,0.215458,21.5458,64577,0.18514,18.514,0.859285,85.9285,332.5,131.5,17,118,119.218
"A1QUBLZCONL4QD","rensink","Water",6,0.818159886397185,5,"movement","rensink",208.5,325,702.5,502,87438,0.25018,25.018,80161,0.229359,22.9359,0.916775,91.6775,454.5,418,105,168,198.114
"A2GOS6NF74E2ST","rensink","Amish",20,0.839037873388306,5,"color","rensink",208,176.5,303,256.5,7600,0.0217578,2.17578,5423,0.0155253,1.55253,0.713553,71.3553,253,219.5,97,30,101.533
"A2GOS6NF74E2ST","rensink","Army",21,0.940068013739353,4,"disappear","rensink",544,177,703,265,13992,0.0399771,3.99771,10722,0.0306343,3.06343,0.766295,76.6295,628,218,278,32,279.836
"A2GOS6NF74E2ST","rensink","Barns",7,1.16885090370955,5,"color","rensink",135,303.5,220,432.5,10965,0.0313914,3.13914,8901,0.0254824,2.54824,0.811765,81.1765,177,372.5,173,123,212.269
"A2GOS6NF74E2ST","rensink","Beach",27,0.830267800933642,5,"color","rensink",400,328.5,592,463.5,25920,0.0739093,7.39093,17854,0.0509096,5.09096,0.688812,68.8812,495,394.5,145,144,204.355
"A2GOS6NF74E2ST","rensink","Birds",10,0.966939163021113,1,"movement","rensink",-0.5,-2.5,703.5,98.5,71104,0.20246,20.246,52348,0.149054,14.9054,0.736217,73.6217,331.5,39.5,19,211,211.854
"A2GOS6NF74E2ST","rensink","Boat",31,0.833529581758644,2,"movement","rensink",-1,200.5,421,337.5,57814,0.164853,16.4853,49840,0.142116,14.2116,0.862075,86.2075,196,273.5,154,23,155.708
"A2GOS6NF74E2ST","rensink","Bus",3,0.822560336942692,4,"disappear","rensink",376,84,425,191,5243,0.01498,1.498,3790,0.0108286,1.08286,0.722869,72.2869,401,138,51,112,123.065
"A2GOS6NF74E2ST","rensink","Camel",18,0.9307962629833,2,"disappear","rensink",639.5,192,702.5,281,5607,0.0160429,1.60429,4998,0.0143004,1.43004,0.891386,89.1386,672.5,234,323,16,323.396
"A2GOS6NF74E2ST","rensink","CanalBridge",25,0.946255707199397,5,"disappear","rensink",346.5,310,702.5,497,66572,0.190478,19.0478,52438,0.150037,15.0037,0.787689,78.7689,541.5,394,192,144,240
"A2GOS6NF74E2ST","rensink","Castle",22,1.04410838744612,1,"movement","rensink",259.5,360,561.5,438,23556,0.0675925,6.75925,13846,0.0397303,3.97303,0.587791,58.7791,414.5,403,66,153,166.628
"A2GOS6NF74E2ST","rensink","Chopper",30,0.953759691733229,1,"disappear","rensink",-1.5,413,702.5,505,64768,0.185316,18.5316,40727,0.116529,11.6529,0.628814,62.8814,336.5,462,13,212,212.398
"A2GOS6NF74E2ST","rensink","Cockpit",13,0.892873406888766,4,"movement","rensink",271.5,69,568.5,225,46332,0.132188,13.2188,35802,0.102146,10.2146,0.772727,77.2727,421.5,141,71,109,130.085
"A2GOS6NF74E2ST","rensink","Description",16,0.937066312017428,4,"color","rensink",552,9,702,257,37200,0.10659,10.659,24386,0.0698739,6.98739,0.655538,65.5538,634,117,285,133,314.506
"A2GOS6NF74E2ST","rensink","FarmByPond",12,0.931356150467928,2,"movement","rensink",-1.5,323.5,358.5,502.5,64440,0.184747,18.4747,55725,0.159762,15.9762,0.864758,86.4758,164.5,413.5,185,164,247.227
"A2GOS6NF74E2ST","rensink","Farmer",23,0.935305690289925,5,"color","rensink",247,145,362,257,12880,0.0368,3.68,8751,0.0250029,2.50029,0.679425,67.9425,296,196,54,54,76.3675
"A2GOS6NF74E2ST","rensink","Fountain",32,0.838849090737255,3,"movement","rensink",376,49,520,200,21744,0.0621257,6.21257,16415,0.0469,4.69,0.754921,75.4921,445,134,95,116,149.937
"A2GOS6NF74E2ST","rensink","Horizon",8,1.12378632861537,2,"movement","rensink",202,41,455,97,14168,0.04048,4.048,12230,0.0349429,3.49429,0.863213,86.3213,328,69,22,181,182.332
"A2GOS6NF74E2ST","rensink","Ice",6,1.1723985779393,5,"disappear","rensink",1,223.5,153,273.5,7600,0.0216709,2.16709,5449,0.0155375,1.55375,0.716974,71.6974,79,248.5,271,2,271.007
"A2GOS6NF74E2ST","rensink","Kayaker",24,0.936815231197633,5,"disappear","rensink",366.5,68,463.5,217,14453,0.0412354,4.12354,10059,0.028699,2.8699,0.69598,69.598,418.5,135,68,115,133.6
"A2GOS6NF74E2ST","rensink","Lake",9,0.827498508133459,5,"disappear","rensink",433.5,201,559.5,412,26586,0.0758516,7.58516,19929,0.0568588,5.68588,0.749605,74.9605,484.5,308,134,58,146.014
"A2GOS6NF74E2ST","rensink","Market",26,0.943543977153454,5,"color","rensink",19,261,89,457,13720,0.0392,3.92,10953,0.0312943,3.12943,0.798324,79.8324,55,355,295,105,313.129
"A2GOS6NF74E2ST","rensink","Mosque",19,0.822886947834151,5,"disappear","rensink",319.5,72.5,391.5,289.5,15624,0.0444873,4.44873,12875,0.0366599,3.66599,0.824053,82.4053,354.5,176.5,4,74,74.108
"A2GOS6NF74E2ST","rensink","Nurses",14,0.86135516019326,5,"color","rensink",486.5,-1,702.5,393,85104,0.243502,24.3502,58420,0.167153,16.7153,0.686454,68.6454,618.5,158,269,92,284.297
"A2GOS6NF74E2ST","rensink","Obelisk",11,0.94141204037355,5,"disappear","rensink",519,194,684,313,19635,0.0561,5.61,16595,0.0474143,4.74143,0.845174,84.5174,602,253,252,3,252.018
"A2GOS6NF74E2ST","rensink","Station",17,0.864273696804379,4,"disappear","rensink",536,201,656,257,6720,0.0192,1.92,5127,0.0146486,1.46486,0.762946,76.2946,593,225,243,25,244.283
"A2GOS6NF74E2ST","rensink","SummerLake",5,0.869349080759093,3,"disappear","rensink",439.5,287,634.5,358,13845,0.0396137,3.96137,9010,0.0257797,2.57797,0.650776,65.0776,540.5,319,191,69,203.081
"A2GOS6NF74E2ST","rensink","Turtle",28,0.826398782187618,5,"color","rensink",-0.5,-3,655.5,108,72816,0.207749,20.7749,49078,0.140023,14.0023,0.674,67.4,435.5,31.5,85,218.5,234.451
"A2GOS6NF74E2ST","rensink","Water",29,0.832508912706236,2,"movement","rensink",208.5,325,702.5,502,87438,0.25018,25.018,80161,0.229359,22.9359,0.916775,91.6775,454.5,418,105,168,198.114
"A2JDYN6QM8M5UN","rensink","BarnTrack",29,0.938269483462911,5,"color","rensink",94.5,407,576.5,505,47236,0.135153,13.5153,28831,0.0824921,8.24921,0.610361,61.0361,283.5,469,66,219,228.729
"A2JDYN6QM8M5UN","rensink","Barrels",22,1.02974891856684,5,"color","rensink",478,448,703,503,12375,0.0353571,3.53571,9209,0.0263114,2.63114,0.744162,74.4162,610,479,260,229,346.469
"A2JDYN6QM8M5UN","rensink","Birds",9,0.874249822778403,2,"movement","rensink",-0.5,-2.5,703.5,98.5,71104,0.20246,20.246,52348,0.149054,14.9054,0.736217,73.6217,331.5,39.5,19,211,211.854
"A2JDYN6QM8M5UN","rensink","Boat",26,0.829432433617599,3,"movement","rensink",-1,200.5,421,337.5,57814,0.164853,16.4853,49840,0.142116,14.2116,0.862075,86.2075,196,273.5,154,23,155.708
"A2JDYN6QM8M5UN","rensink","Chopper",24,1.03346396607741,4,"disappear","rensink",-1.5,413,702.5,505,64768,0.185316,18.5316,40727,0.116529,11.6529,0.628814,62.8814,336.5,462,13,212,212.398
"A2JDYN6QM8M5UN","rensink","Cockpit",18,1.05426823954719,4,"movement","rensink",271.5,69,568.5,225,46332,0.132188,13.2188,35802,0.102146,10.2146,0.772727,77.2727,421.5,141,71,109,130.085
"A2JDYN6QM8M5UN","rensink","Diver",21,0.826593053934048,5,"color","rensink",68,279.5,248,452.5,31140,0.0891497,8.91497,17605,0.0504008,5.04008,0.56535,56.535,154,364.5,196,115,227.247
"A2JDYN6QM8M5UN","rensink","Egypt",19,0.833911715071378,3,"movement","rensink",312.5,65,455.5,425,51480,0.147719,14.7719,39393,0.113036,11.3036,0.76521,76.521,382.5,240,34,10,35.4401
"A2JDYN6QM8M5UN","rensink","FarmByPond",17,0.839603729470837,3,"movement","rensink",-1.5,323.5,358.5,502.5,64440,0.184747,18.4747,55725,0.159762,15.9762,0.864758,86.4758,164.5,413.5,185,164,247.227
"A2JDYN6QM8M5UN","rensink","Farmer",6,0.822233480238844,5,"color","rensink",247,145,362,257,12880,0.0368,3.68,8751,0.0250029,2.50029,0.679425,67.9425,296,196,54,54,76.3675
"A2JDYN6QM8M5UN","rensink","Fishing",5,0.808885867359812,1,"movement","rensink",87,248,419,418,56440,0.161257,16.1257,36891,0.105403,10.5403,0.653632,65.3632,232,343,118,93,150.243
"A2JDYN6QM8M5UN","rensink","Floatplane",16,0.836893516376434,5,"color","rensink",77,241,488,385,59184,0.169097,16.9097,11329,0.0323686,3.23686,0.19142,19.142,273.5,326.25,76.5,76.25,108.011
"A2JDYN6QM8M5UN","rensink","Kayaker",10,0.829882446443493,5,"disappear","rensink",366.5,68,463.5,217,14453,0.0412354,4.12354,10059,0.028699,2.8699,0.69598,69.598,418.5,135,68,115,133.6
"A2JDYN6QM8M5UN","rensink","Kids",4,0.824906471302112,5,"color","rensink",12.5,153,215.5,462,62727,0.179476,17.9476,42832,0.122552,12.2552,0.682832,68.2832,104.5,332,245,82,258.358
"A2JDYN6QM8M5UN","rensink","Lake",20,0.830331993451962,5,"disappear","rensink",433.5,201,559.5,412,26586,0.0758516,7.58516,19929,0.0568588,5.68588,0.749605,74.9605,484.5,308,134,58,146.014
"A2JDYN6QM8M5UN","rensink","Mosque",13,0.912753303671323,5,"disappear","rensink",319.5,72.5,391.5,289.5,15624,0.0444873,4.44873,12875,0.0366599,3.66599,0.824053,82.4053,354.5,176.5,4,74,74.108
"A2JDYN6QM8M5UN","rensink","NotreDame",25,0.841922311679451,2,"movement","rensink",182.5,8.5,490.5,252.5,75152,0.215458,21.5458,64577,0.18514,18.514,0.859285,85.9285,332.5,131.5,17,118,119.218
"A2JDYN6QM8M5UN","rensink","Nurses",23,0.835627166209898,5,"color","rensink",486.5,-1,702.5,393,85104,0.243502,24.3502,58420,0.167153,16.7153,0.686454,68.6454,618.5,158,269,92,284.297
"A2JDYN6QM8M5UN","rensink","Obelisk",15,0.914660430589222,5,"disappear","rensink",519,194,684,313,19635,0.0561,5.61,16595,0.0474143,4.74143,0.845174,84.5174,602,253,252,3,252.018
"A2JDYN6QM8M5UN","rensink","Soldiers",27,0.822429623779357,5,"disappear","rensink",117,128,222,249,12705,0.0363,3.63,7819,0.02234,2.234,0.615427,61.5427,164,188,186,62,196.061
"A2JDYN6QM8M5UN","rensink","Station",31,0.933537901971705,4,"disappear","rensink",536,201,656,257,6720,0.0192,1.92,5127,0.0146486,1.46486,0.762946,76.2946,593,225,243,25,244.283
"A2JDYN6QM8M5UN","rensink","SummerLake",3,0.833210880282609,5,"disappear","rensink",439.5,287,634.5,358,13845,0.0396137,3.96137,9010,0.0257797,2.57797,0.650776,65.0776,540.5,319,191,69,203.081
"A2JDYN6QM8M5UN","rensink","Turtle",28,0.831421817065022,5,"color","rensink",-0.5,-3,655.5,108,72816,0.207749,20.7749,49078,0.140023,14.0023,0.674,67.4,435.5,31.5,85,218.5,234.451
"A2JDYN6QM8M5UN","rensink","Window",32,0.934649922900711,5,"disappear","rensink",-1,335.5,161,472.5,22194,0.0632849,6.32849,17022,0.0485372,4.85372,0.766964,76.6964,68,404.5,282,154,321.31
"A2JDYN6QM8M5UN","rensink","Wine",30,0.827110687466011,5,"disappear","rensink",361,169,681,384,68800,0.196571,19.6571,53416,0.152617,15.2617,0.776395,77.6395,517,283,167,33,170.229
"A2V4DP31BEVABF","rensink","Amish",13,0.834484285334805,4,"color","rensink",208,176.5,303,256.5,7600,0.0217578,2.17578,5423,0.0155253,1.55253,0.713553,71.3553,253,219.5,97,30,101.533
"A2V4DP31BEVABF","rensink","Barns",22,1.23696529910298,3,"color","rensink",135,303.5,220,432.5,10965,0.0313914,3.13914,8901,0.0254824,2.54824,0.811765,81.1765,177,372.5,173,123,212.269
"A2V4DP31BEVABF","rensink","BarnTrack",14,1.03973129609869,2,"color","rensink",94.5,407,576.5,505,47236,0.135153,13.5153,28831,0.0824921,8.24921,0.610361,61.0361,283.5,469,66,219,228.729
"A2V4DP31BEVABF","rensink","Beach",5,0.927267680810882,4,"color","rensink",400,328.5,592,463.5,25920,0.0739093,7.39093,17854,0.0509096,5.09096,0.688812,68.8812,495,394.5,145,144,204.355
"A2V4DP31BEVABF","rensink","Birds",11,1.03035680531084,2,"movement","rensink",-0.5,-2.5,703.5,98.5,71104,0.20246,20.246,52348,0.149054,14.9054,0.736217,73.6217,331.5,39.5,19,211,211.854
"A2V4DP31BEVABF","rensink","Bus",26,0.929776432804902,1,"disappear","rensink",376,84,425,191,5243,0.01498,1.498,3790,0.0108286,1.08286,0.722869,72.2869,401,138,51,112,123.065
"A2V4DP31BEVABF","rensink","Camel",6,1.10482840365366,2,"disappear","rensink",639.5,192,702.5,281,5607,0.0160429,1.60429,4998,0.0143004,1.43004,0.891386,89.1386,672.5,234,323,16,323.396
"A2V4DP31BEVABF","rensink","Castle",4,1.09940437234554,2,"movement","rensink",259.5,360,561.5,438,23556,0.0675925,6.75925,13846,0.0397303,3.97303,0.587791,58.7791,414.5,403,66,153,166.628
"A2V4DP31BEVABF","rensink","Chopper",29,1.1003360759337,1,"disappear","rensink",-1.5,413,702.5,505,64768,0.185316,18.5316,40727,0.116529,11.6529,0.628814,62.8814,336.5,462,13,212,212.398
"A2V4DP31BEVABF","rensink","Description",27,1.04649516433471,1,"color","rensink",552,9,702,257,37200,0.10659,10.659,24386,0.0698739,6.98739,0.655538,65.5538,634,117,285,133,314.506
"A2V4DP31BEVABF","rensink","Dinner",10,0.838282249914688,2,"movement","rensink",262,211,396,382,22914,0.0654686,6.54686,19346,0.0552743,5.52743,0.844287,84.4287,332,290,18,40,43.8634
"A2V4DP31BEVABF","rensink","Diver",30,0.941561120236071,2,"color","rensink",68,279.5,248,452.5,31140,0.0891497,8.91497,17605,0.0504008,5.04008,0.56535,56.535,154,364.5,196,115,227.247
"A2V4DP31BEVABF","rensink","Egypt",7,0.927934681741179,1,"movement","rensink",312.5,65,455.5,425,51480,0.147719,14.7719,39393,0.113036,11.3036,0.76521,76.521,382.5,240,34,10,35.4401
"A2V4DP31BEVABF","rensink","FarmByPond",8,1.02690080889026,1,"movement","rensink",-1.5,323.5,358.5,502.5,64440,0.184747,18.4747,55725,0.159762,15.9762,0.864758,86.4758,164.5,413.5,185,164,247.227
"A2V4DP31BEVABF","rensink","Farmer",23,1.17952306703529,2,"color","rensink",247,145,362,257,12880,0.0368,3.68,8751,0.0250029,2.50029,0.679425,67.9425,296,196,54,54,76.3675
"A2V4DP31BEVABF","rensink","Fountain",24,1.02292301187894,1,"movement","rensink",376,49,520,200,21744,0.0621257,6.21257,16415,0.0469,4.69,0.754921,75.4921,445,134,95,116,149.937
"A2V4DP31BEVABF","rensink","Harbor",31,0.840419777736486,2,"color","rensink",320,265,534,362,20758,0.0594785,5.94785,10086,0.0288997,2.88997,0.485885,48.5885,416,320,67,70,96.8969
"A2V4DP31BEVABF","rensink","Horizon",28,1.02172666441378,1,"movement","rensink",202,41,455,97,14168,0.04048,4.048,12230,0.0349429,3.49429,0.863213,86.3213,328,69,22,181,182.332
"A2V4DP31BEVABF","rensink","Kayak",18,0.84210976344061,4,"color","rensink",207,241,402,397,30420,0.0869143,8.69143,20746,0.0592743,5.92743,0.681986,68.1986,296,322,54,72,90
"A2V4DP31BEVABF","rensink","Kayaker",20,1.22809223915698,2,"disappear","rensink",366.5,68,463.5,217,14453,0.0412354,4.12354,10059,0.028699,2.8699,0.69598,69.598,418.5,135,68,115,133.6
"A2V4DP31BEVABF","rensink","Lake",25,0.9293678292401,4,"disappear","rensink",433.5,201,559.5,412,26586,0.0758516,7.58516,19929,0.0568588,5.68588,0.749605,74.9605,484.5,308,134,58,146.014
"A2V4DP31BEVABF","rensink","Market",12,1.27989498001164,2,"color","rensink",19,261,89,457,13720,0.0392,3.92,10953,0.0312943,3.12943,0.798324,79.8324,55,355,295,105,313.129
"A2V4DP31BEVABF","rensink","Mosque",15,1.0558750391461,2,"disappear","rensink",319.5,72.5,391.5,289.5,15624,0.0444873,4.44873,12875,0.0366599,3.66599,0.824053,82.4053,354.5,176.5,4,74,74.108
"A2V4DP31BEVABF","rensink","NotreDame",9,1.11760269169008,1,"movement","rensink",182.5,8.5,490.5,252.5,75152,0.215458,21.5458,64577,0.18514,18.514,0.859285,85.9285,332.5,131.5,17,118,119.218
"A2V4DP31BEVABF","rensink","Nurses",17,1.23942461800743,1,"color","rensink",486.5,-1,702.5,393,85104,0.243502,24.3502,58420,0.167153,16.7153,0.686454,68.6454,618.5,158,269,92,284.297
"A2V4DP31BEVABF","rensink","OtherDiver",19,1.28742099575983,2,"movement","rensink",475,221.5,703,400.5,40812,0.116839,11.6839,34605,0.0990696,9.90696,0.847912,84.7912,595,311.5,245,62,252.723
"A2V4DP31BEVABF","rensink","Seal",21,0.950072629750157,1,"movement","rensink",288,200.5,463,281.5,14175,0.0404192,4.04192,10386,0.0296151,2.96151,0.732698,73.2698,376,240.5,26,10,27.8568
"A2V4DP31BEVABF","rensink","Soldiers",16,0.962842681201242,2,"disappear","rensink",117,128,222,249,12705,0.0363,3.63,7819,0.02234,2.234,0.615427,61.5427,164,188,186,62,196.061
"A2V4DP31BEVABF","rensink","Station",32,1.09995673424118,1,"disappear","rensink",536,201,656,257,6720,0.0192,1.92,5127,0.0146486,1.46486,0.762946,76.2946,593,225,243,25,244.283
"A2V4DP31BEVABF","rensink","SummerLake",3,0.938369597451806,4,"disappear","rensink",439.5,287,634.5,358,13845,0.0396137,3.96137,9010,0.0257797,2.57797,0.650776,65.0776,540.5,319,191,69,203.081
"A2Y4UMAUYJM9GK","rensink","Amish",18,0.693726948923647,5,"color","rensink",208,176.5,303,256.5,7600,0.0217578,2.17578,5423,0.0155253,1.55253,0.713553,71.3553,253,219.5,97,30,101.533
"A2Y4UMAUYJM9GK","rensink","Army",22,0.673113104238234,3,"disappear","rensink",544,177,703,265,13992,0.0399771,3.99771,10722,0.0306343,3.06343,0.766295,76.6295,628,218,278,32,279.836
"A2Y4UMAUYJM9GK","rensink","Barns",30,0.682866795662325,5,"color","rensink",135,303.5,220,432.5,10965,0.0313914,3.13914,8901,0.0254824,2.54824,0.811765,81.1765,177,372.5,173,123,212.269
"A2Y4UMAUYJM9GK","rensink","BarnTrack",15,0.68403703748652,4,"color","rensink",94.5,407,576.5,505,47236,0.135153,13.5153,28831,0.0824921,8.24921,0.610361,61.0361,283.5,469,66,219,228.729
"A2Y4UMAUYJM9GK","rensink","Beach",32,0.671358003443492,5,"color","rensink",400,328.5,592,463.5,25920,0.0739093,7.39093,17854,0.0509096,5.09096,0.688812,68.8812,495,394.5,145,144,204.355
"A2Y4UMAUYJM9GK","rensink","Bus",16,0.684845361644412,3,"disappear","rensink",376,84,425,191,5243,0.01498,1.498,3790,0.0108286,1.08286,0.722869,72.2869,401,138,51,112,123.065
"A2Y4UMAUYJM9GK","rensink","Cactus",29,0.674769314015426,5,"disappear","rensink",27.5,168.5,189.5,289.5,19602,0.0559739,5.59739,14115,0.0403057,4.03057,0.72008,72.008,103.5,228.5,246,22,246.982
"A2Y4UMAUYJM9GK","rensink","Camel",27,0.680607428991788,3,"disappear","rensink",639.5,192,702.5,281,5607,0.0160429,1.60429,4998,0.0143004,1.43004,0.891386,89.1386,672.5,234,323,16,323.396
"A2Y4UMAUYJM9GK","rensink","CanalBridge",11,0.705264862317404,4,"disappear","rensink",346.5,310,702.5,497,66572,0.190478,19.0478,52438,0.150037,15.0037,0.787689,78.7689,541.5,394,192,144,240
"A2Y4UMAUYJM9GK","rensink","Chopper",28,0.674861140737812,2,"disappear","rensink",-1.5,413,702.5,505,64768,0.185316,18.5316,40727,0.116529,11.6529,0.628814,62.8814,336.5,462,13,212,212.398
"A2Y4UMAUYJM9GK","rensink","Description",24,0.673757936549577,3,"color","rensink",552,9,702,257,37200,0.10659,10.659,24386,0.0698739,6.98739,0.655538,65.5538,634,117,285,133,314.506
"A2Y4UMAUYJM9GK","rensink","Dinner",14,0.685831274626064,3,"movement","rensink",262,211,396,382,22914,0.0654686,6.54686,19346,0.0552743,5.52743,0.844287,84.4287,332,290,18,40,43.8634
"A2Y4UMAUYJM9GK","rensink","Diver",13,0.677515704798758,4,"color","rensink",68,279.5,248,452.5,31140,0.0891497,8.91497,17605,0.0504008,5.04008,0.56535,56.535,154,364.5,196,115,227.247
"A2Y4UMAUYJM9GK","rensink","Eating",7,0.686457510469112,1,"movement","rensink",-1,153,703,356,142912,0.40832,40.832,48226,0.137789,13.7789,0.337452,33.7452,350,212,0,38,38
"A2Y4UMAUYJM9GK","rensink","Fishing",9,0.692935002531138,2,"movement","rensink",87,248,419,418,56440,0.161257,16.1257,36891,0.105403,10.5403,0.653632,65.3632,232,343,118,93,150.243
"A2Y4UMAUYJM9GK","rensink","Fountain",21,0.680244837042608,4,"movement","rensink",376,49,520,200,21744,0.0621257,6.21257,16415,0.0469,4.69,0.754921,75.4921,445,134,95,116,149.937
"A2Y4UMAUYJM9GK","rensink","Harbor",6,0.693375151025185,5,"color","rensink",320,265,534,362,20758,0.0594785,5.94785,10086,0.0288997,2.88997,0.485885,48.5885,416,320,67,70,96.8969
"A2Y4UMAUYJM9GK","rensink","Horizon",31,0.675319983339292,3,"movement","rensink",202,41,455,97,14168,0.04048,4.048,12230,0.0349429,3.49429,0.863213,86.3213,328,69,22,181,182.332
"A2Y4UMAUYJM9GK","rensink","Ice",10,0.682054777073807,4,"disappear","rensink",1,223.5,153,273.5,7600,0.0216709,2.16709,5449,0.0155375,1.55375,0.716974,71.6974,79,248.5,271,2,271.007
"A2Y4UMAUYJM9GK","rensink","Kayak",20,0.682596291460553,5,"color","rensink",207,241,402,397,30420,0.0869143,8.69143,20746,0.0592743,5.92743,0.681986,68.1986,296,322,54,72,90
"A2Y4UMAUYJM9GK","rensink","Kayaker",17,0.677241845946654,1,"disappear","rensink",366.5,68,463.5,217,14453,0.0412354,4.12354,10059,0.028699,2.8699,0.69598,69.598,418.5,135,68,115,133.6
"A2Y4UMAUYJM9GK","rensink","Marling",12,0.678973375919765,4,"disappear","rensink",199,377,331,502,16500,0.0471429,4.71429,13466,0.0384743,3.84743,0.816121,81.6121,265,443,85,193,210.889
"A2Y4UMAUYJM9GK","rensink","Mosque",26,0.663795122219408,5,"disappear","rensink",319.5,72.5,391.5,289.5,15624,0.0444873,4.44873,12875,0.0366599,3.66599,0.824053,82.4053,354.5,176.5,4,74,74.108
"A2Y4UMAUYJM9GK","rensink","Nurses",8,0.690727543870367,4,"color","rensink",486.5,-1,702.5,393,85104,0.243502,24.3502,58420,0.167153,16.7153,0.686454,68.6454,618.5,158,269,92,284.297
"A2Y4UMAUYJM9GK","rensink","Obelisk",19,0.675228253593064,5,"disappear","rensink",519,194,684,313,19635,0.0561,5.61,16595,0.0474143,4.74143,0.845174,84.5174,602,253,252,3,252.018
"A2Y4UMAUYJM9GK","rensink","Pilots",5,0.720076572768141,4,"color","rensink",584,176,703,281,12495,0.0357,3.57,9678,0.0276514,2.76514,0.77455,77.455,650,230,300,20,300.666
"A2Y4UMAUYJM9GK","rensink","Seal",4,0.712060142461075,2,"movement","rensink",288,200.5,463,281.5,14175,0.0404192,4.04192,10386,0.0296151,2.96151,0.732698,73.2698,376,240.5,26,10,27.8568
"A2Y4UMAUYJM9GK","rensink","Soldiers",3,0.725748332995548,5,"disappear","rensink",117,128,222,249,12705,0.0363,3.63,7819,0.02234,2.234,0.615427,61.5427,164,188,186,62,196.061
"A2Y4UMAUYJM9GK","rensink","Water",23,0.679609571779756,3,"movement","rensink",208.5,325,702.5,502,87438,0.25018,25.018,80161,0.229359,22.9359,0.916775,91.6775,454.5,418,105,168,198.114
"A2Y4UMAUYJM9GK","rensink","Window",25,0.67237497874608,4,"disappear","rensink",-1,335.5,161,472.5,22194,0.0632849,6.32849,17022,0.0485372,4.85372,0.766964,76.6964,68,404.5,282,154,321.31
"A33AZCOKCCTUXV","rensink","Amish",26,0.819083075743703,4,"color","rensink",208,176.5,303,256.5,7600,0.0217578,2.17578,5423,0.0155253,1.55253,0.713553,71.3553,253,219.5,97,30,101.533
"A33AZCOKCCTUXV","rensink","Army",5,0.876506504265881,1,"disappear","rensink",544,177,703,265,13992,0.0399771,3.99771,10722,0.0306343,3.06343,0.766295,76.6295,628,218,278,32,279.836
"A33AZCOKCCTUXV","rensink","Barns",29,1.04999285692014,3,"color","rensink",135,303.5,220,432.5,10965,0.0313914,3.13914,8901,0.0254824,2.54824,0.811765,81.1765,177,372.5,173,123,212.269
"A33AZCOKCCTUXV","rensink","BarnTrack",15,1.02938377768521,2,"color","rensink",94.5,407,576.5,505,47236,0.135153,13.5153,28831,0.0824921,8.24921,0.610361,61.0361,283.5,469,66,219,228.729
"A33AZCOKCCTUXV","rensink","Boat",21,0.821579027912009,1,"movement","rensink",-1,200.5,421,337.5,57814,0.164853,16.4853,49840,0.142116,14.2116,0.862075,86.2075,196,273.5,154,23,155.708
"A33AZCOKCCTUXV","rensink","CanalBridge",27,0.826463549092801,1,"disappear","rensink",346.5,310,702.5,497,66572,0.190478,19.0478,52438,0.150037,15.0037,0.787689,78.7689,541.5,394,192,144,240
"A33AZCOKCCTUXV","rensink","Castle",16,0.950608224784231,2,"movement","rensink",259.5,360,561.5,438,23556,0.0675925,6.75925,13846,0.0397303,3.97303,0.587791,58.7791,414.5,403,66,153,166.628
"A33AZCOKCCTUXV","rensink","Description",11,1.03302144468291,2,"color","rensink",552,9,702,257,37200,0.10659,10.659,24386,0.0698739,6.98739,0.655538,65.5538,634,117,285,133,314.506
"A33AZCOKCCTUXV","rensink","Dinner",23,0.812244696800369,1,"movement","rensink",262,211,396,382,22914,0.0654686,6.54686,19346,0.0552743,5.52743,0.844287,84.4287,332,290,18,40,43.8634
"A33AZCOKCCTUXV","rensink","Eating",7,1.1186614628545,1,"movement","rensink",-1,153,703,356,142912,0.40832,40.832,48226,0.137789,13.7789,0.337452,33.7452,350,212,0,38,38
"A33AZCOKCCTUXV","rensink","FarmByPond",24,0.926651077088889,2,"movement","rensink",-1.5,323.5,358.5,502.5,64440,0.184747,18.4747,55725,0.159762,15.9762,0.864758,86.4758,164.5,413.5,185,164,247.227
"A33AZCOKCCTUXV","rensink","Farmer",19,0.820792381088204,5,"color","rensink",247,145,362,257,12880,0.0368,3.68,8751,0.0250029,2.50029,0.679425,67.9425,296,196,54,54,76.3675
"A33AZCOKCCTUXV","rensink","Fishing",14,0.836830286488879,1,"movement","rensink",87,248,419,418,56440,0.161257,16.1257,36891,0.105403,10.5403,0.653632,65.3632,232,343,118,93,150.243
"A33AZCOKCCTUXV","rensink","Floatplane",8,0.838408278494187,5,"color","rensink",77,241,488,385,59184,0.169097,16.9097,11329,0.0323686,3.23686,0.19142,19.142,273.5,326.25,76.5,76.25,108.011
"A33AZCOKCCTUXV","rensink","Harbor",10,0.823017523446049,5,"color","rensink",320,265,534,362,20758,0.0594785,5.94785,10086,0.0288997,2.88997,0.485885,48.5885,416,320,67,70,96.8969
"A33AZCOKCCTUXV","rensink","Kayak",3,0.859018143888894,4,"color","rensink",207,241,402,397,30420,0.0869143,8.69143,20746,0.0592743,5.92743,0.681986,68.1986,296,322,54,72,90
"A33AZCOKCCTUXV","rensink","Kayaker",32,0.8208579894397,3,"disappear","rensink",366.5,68,463.5,217,14453,0.0412354,4.12354,10059,0.028699,2.8699,0.69598,69.598,418.5,135,68,115,133.6
"A33AZCOKCCTUXV","rensink","Kids",18,0.926393900269682,2,"color","rensink",12.5,153,215.5,462,62727,0.179476,17.9476,42832,0.122552,12.2552,0.682832,68.2832,104.5,332,245,82,258.358
"A33AZCOKCCTUXV","rensink","Lake",13,0.87453979707101,5,"disappear","rensink",433.5,201,559.5,412,26586,0.0758516,7.58516,19929,0.0568588,5.68588,0.749605,74.9605,484.5,308,134,58,146.014
"A33AZCOKCCTUXV","rensink","Mosque",28,1.06325827995046,3,"disappear","rensink",319.5,72.5,391.5,289.5,15624,0.0444873,4.44873,12875,0.0366599,3.66599,0.824053,82.4053,354.5,176.5,4,74,74.108
"A33AZCOKCCTUXV","rensink","Nurses",25,0.81690383937566,3,"color","rensink",486.5,-1,702.5,393,85104,0.243502,24.3502,58420,0.167153,16.7153,0.686454,68.6454,618.5,158,269,92,284.297
"A33AZCOKCCTUXV","rensink","Obelisk",17,0.954676586918644,3,"disappear","rensink",519,194,684,313,19635,0.0561,5.61,16595,0.0474143,4.74143,0.845174,84.5174,602,253,252,3,252.018
"A33AZCOKCCTUXV","rensink","OtherDiver",6,1.02242837118549,1,"movement","rensink",475,221.5,703,400.5,40812,0.116839,11.6839,34605,0.0990696,9.90696,0.847912,84.7912,595,311.5,245,62,252.723
"A33AZCOKCCTUXV","rensink","Pilots",30,0.833784374656479,4,"color","rensink",584,176,703,281,12495,0.0357,3.57,9678,0.0276514,2.76514,0.77455,77.455,650,230,300,20,300.666
"A33AZCOKCCTUXV","rensink","SummerLake",12,0.997036710882527,4,"disappear","rensink",439.5,287,634.5,358,13845,0.0396137,3.96137,9010,0.0257797,2.57797,0.650776,65.0776,540.5,319,191,69,203.081
"A33AZCOKCCTUXV","rensink","Turtle",20,0.819675519994293,5,"color","rensink",-0.5,-3,655.5,108,72816,0.207749,20.7749,49078,0.140023,14.0023,0.674,67.4,435.5,31.5,85,218.5,234.451
"A33AZCOKCCTUXV","rensink","Window",31,0.829110710155295,2,"disappear","rensink",-1,335.5,161,472.5,22194,0.0632849,6.32849,17022,0.0485372,4.85372,0.766964,76.6964,68,404.5,282,154,321.31
"A33AZCOKCCTUXV","rensink","Wine",9,0.827756862978617,4,"disappear","rensink",361,169,681,384,68800,0.196571,19.6571,53416,0.152617,15.2617,0.776395,77.6395,517,283,167,33,170.229
"A3RYI5HXC2MJLN","rensink","Amish",25,0.823734988398731,5,"color","rensink",208,176.5,303,256.5,7600,0.0217578,2.17578,5423,0.0155253,1.55253,0.713553,71.3553,253,219.5,97,30,101.533
"A3RYI5HXC2MJLN","rensink","Army",32,0.819478128362123,2,"disappear","rensink",544,177,703,265,13992,0.0399771,3.99771,10722,0.0306343,3.06343,0.766295,76.6295,628,218,278,32,279.836
"A3RYI5HXC2MJLN","rensink","Barns",31,0.813247300897605,5,"color","rensink",135,303.5,220,432.5,10965,0.0313914,3.13914,8901,0.0254824,2.54824,0.811765,81.1765,177,372.5,173,123,212.269
"A3RYI5HXC2MJLN","rensink","BarnTrack",29,0.829625353358049,4,"color","rensink",94.5,407,576.5,505,47236,0.135153,13.5153,28831,0.0824921,8.24921,0.610361,61.0361,283.5,469,66,219,228.729
"A3RYI5HXC2MJLN","rensink","Birds",26,0.841171694499532,1,"movement","rensink",-0.5,-2.5,703.5,98.5,71104,0.20246,20.246,52348,0.149054,14.9054,0.736217,73.6217,331.5,39.5,19,211,211.854
"A3RYI5HXC2MJLN","rensink","Bus",10,0.830010935936118,5,"disappear","rensink",376,84,425,191,5243,0.01498,1.498,3790,0.0108286,1.08286,0.722869,72.2869,401,138,51,112,123.065
"A3RYI5HXC2MJLN","rensink","Cactus",11,0.870637963210806,5,"disappear","rensink",27.5,168.5,189.5,289.5,19602,0.0559739,5.59739,14115,0.0403057,4.03057,0.72008,72.008,103.5,228.5,246,22,246.982
"A3RYI5HXC2MJLN","rensink","Camel",16,0.829946695941636,2,"disappear","rensink",639.5,192,702.5,281,5607,0.0160429,1.60429,4998,0.0143004,1.43004,0.891386,89.1386,672.5,234,323,16,323.396
"A3RYI5HXC2MJLN","rensink","CanalBridge",28,0.823669813268136,3,"disappear","rensink",346.5,310,702.5,497,66572,0.190478,19.0478,52438,0.150037,15.0037,0.787689,78.7689,541.5,394,192,144,240
"A3RYI5HXC2MJLN","rensink","Cockpit",18,0.834611420722687,3,"movement","rensink",271.5,69,568.5,225,46332,0.132188,13.2188,35802,0.102146,10.2146,0.772727,77.2727,421.5,141,71,109,130.085
"A3RYI5HXC2MJLN","rensink","Eating",27,0.811440943674158,1,"movement","rensink",-1,153,703,356,142912,0.40832,40.832,48226,0.137789,13.7789,0.337452,33.7452,350,212,0,38,38
"A3RYI5HXC2MJLN","rensink","Egypt",23,0.811776021602904,3,"movement","rensink",312.5,65,455.5,425,51480,0.147719,14.7719,39393,0.113036,11.3036,0.76521,76.521,382.5,240,34,10,35.4401
"A3RYI5HXC2MJLN","rensink","Farmer",15,0.824060717418653,4,"color","rensink",247,145,362,257,12880,0.0368,3.68,8751,0.0250029,2.50029,0.679425,67.9425,296,196,54,54,76.3675
"A3RYI5HXC2MJLN","rensink","Floatplane",8,0.830652813797425,5,"color","rensink",77,241,488,385,59184,0.169097,16.9097,11329,0.0323686,3.23686,0.19142,19.142,273.5,326.25,76.5,76.25,108.011
"A3RYI5HXC2MJLN","rensink","Harbor",30,0.828079590556746,5,"color","rensink",320,265,534,362,20758,0.0594785,5.94785,10086,0.0288997,2.88997,0.485885,48.5885,416,320,67,70,96.8969
"A3RYI5HXC2MJLN","rensink","Horizon",7,1.05084358095692,2,"movement","rensink",202,41,455,97,14168,0.04048,4.048,12230,0.0349429,3.49429,0.863213,86.3213,328,69,22,181,182.332
"A3RYI5HXC2MJLN","rensink","Kayak",13,0.823995591155968,5,"color","rensink",207,241,402,397,30420,0.0869143,8.69143,20746,0.0592743,5.92743,0.681986,68.1986,296,322,54,72,90
"A3RYI5HXC2MJLN","rensink","Mosque",4,1.11270552103089,5,"disappear","rensink",319.5,72.5,391.5,289.5,15624,0.0444873,4.44873,12875,0.0366599,3.66599,0.824053,82.4053,354.5,176.5,4,74,74.108
"A3RYI5HXC2MJLN","rensink","NotreDame",9,0.93601079571521,1,"movement","rensink",182.5,8.5,490.5,252.5,75152,0.215458,21.5458,64577,0.18514,18.514,0.859285,85.9285,332.5,131.5,17,118,119.218
"A3RYI5HXC2MJLN","rensink","Nurses",14,0.832508912706236,5,"color","rensink",486.5,-1,702.5,393,85104,0.243502,24.3502,58420,0.167153,16.7153,0.686454,68.6454,618.5,158,269,92,284.297
"A3RYI5HXC2MJLN","rensink","Obelisk",3,0.947188565526094,4,"disappear","rensink",519,194,684,313,19635,0.0561,5.61,16595,0.0474143,4.74143,0.845174,84.5174,602,253,252,3,252.018
"A3RYI5HXC2MJLN","rensink","OtherDiver",22,0.940068013739353,1,"movement","rensink",475,221.5,703,400.5,40812,0.116839,11.6839,34605,0.0990696,9.90696,0.847912,84.7912,595,311.5,245,62,252.723
"A3RYI5HXC2MJLN","rensink","Seal",6,0.826851947820644,1,"movement","rensink",288,200.5,463,281.5,14175,0.0404192,4.04192,10386,0.0296151,2.96151,0.732698,73.2698,376,240.5,26,10,27.8568
"A3RYI5HXC2MJLN","rensink","Station",21,0.815976000971986,5,"disappear","rensink",536,201,656,257,6720,0.0192,1.92,5127,0.0146486,1.46486,0.762946,76.2946,593,225,243,25,244.283
"A3RYI5HXC2MJLN","rensink","SummerLake",17,0.822691010776055,4,"disappear","rensink",439.5,287,634.5,358,13845,0.0396137,3.96137,9010,0.0257797,2.57797,0.650776,65.0776,540.5,319,191,69,203.081
"A3RYI5HXC2MJLN","rensink","Water",24,0.813380806733856,1,"movement","rensink",208.5,325,702.5,502,87438,0.25018,25.018,80161,0.229359,22.9359,0.916775,91.6775,454.5,418,105,168,198.114
"A3RYI5HXC2MJLN","rensink","Window",5,0.850523708878994,1,"disappear","rensink",-1,335.5,161,472.5,22194,0.0632849,6.32849,17022,0.0485372,4.85372,0.766964,76.6964,68,404.5,282,154,321.31
"A3RYI5HXC2MJLN","rensink","Wine",19,0.824386202318774,2,"disappear","rensink",361,169,681,384,68800,0.196571,19.6571,53416,0.152617,15.2617,0.776395,77.6395,517,283,167,33,170.229
"A4WBW7FVQASZE","rensink","Amish",24,0.691700208290162,4,"color","rensink",208,176.5,303,256.5,7600,0.0217578,2.17578,5423,0.0155253,1.55253,0.713553,71.3553,253,219.5,97,30,101.533
"A4WBW7FVQASZE","rensink","Barns",20,0.682054777073807,3,"color","rensink",135,303.5,220,432.5,10965,0.0313914,3.13914,8901,0.0254824,2.54824,0.811765,81.1765,177,372.5,173,123,212.269
"A4WBW7FVQASZE","rensink","BarnTrack",19,0.69565675993619,3,"color","rensink",94.5,407,576.5,505,47236,0.135153,13.5153,28831,0.0824921,8.24921,0.610361,61.0361,283.5,469,66,219,228.729
"A4WBW7FVQASZE","rensink","Barrels",4,0.811038508604216,3,"color","rensink",478,448,703,503,12375,0.0353571,3.53571,9209,0.0263114,2.63114,0.744162,74.4162,610,479,260,229,346.469
"A4WBW7FVQASZE","rensink","Beach",6,0.806722503076181,5,"color","rensink",400,328.5,592,463.5,25920,0.0739093,7.39093,17854,0.0509096,5.09096,0.688812,68.8812,495,394.5,145,144,204.355
"A4WBW7FVQASZE","rensink","Birds",27,0.707485011967474,1,"movement","rensink",-0.5,-2.5,703.5,98.5,71104,0.20246,20.246,52348,0.149054,14.9054,0.736217,73.6217,331.5,39.5,19,211,211.854
"A4WBW7FVQASZE","rensink","Cactus",12,0.674585602302914,5,"disappear","rensink",27.5,168.5,189.5,289.5,19602,0.0559739,5.59739,14115,0.0403057,4.03057,0.72008,72.008,103.5,228.5,246,22,246.982
"A4WBW7FVQASZE","rensink","CanalBridge",26,0.685473019722759,3,"disappear","rensink",346.5,310,702.5,497,66572,0.190478,19.0478,52438,0.150037,15.0037,0.787689,78.7689,541.5,394,192,144,240
"A4WBW7FVQASZE","rensink","Chopper",13,0.689131197234498,2,"disappear","rensink",-1.5,413,702.5,505,64768,0.185316,18.5316,40727,0.116529,11.6529,0.628814,62.8814,336.5,462,13,212,212.398
"A4WBW7FVQASZE","rensink","Cockpit",10,0.677515704798758,2,"movement","rensink",271.5,69,568.5,225,46332,0.132188,13.2188,35802,0.102146,10.2146,0.772727,77.2727,421.5,141,71,109,130.085
"A4WBW7FVQASZE","rensink","Description",9,0.689131197234498,2,"color","rensink",552,9,702,257,37200,0.10659,10.659,24386,0.0698739,6.98739,0.655538,65.5538,634,117,285,133,314.506
"A4WBW7FVQASZE","rensink","Diver",28,0.831101564501359,4,"color","rensink",68,279.5,248,452.5,31140,0.0891497,8.91497,17605,0.0504008,5.04008,0.56535,56.535,154,364.5,196,115,227.247
"A4WBW7FVQASZE","rensink","Eating",23,0.693726948923647,1,"movement","rensink",-1,153,703,356,142912,0.40832,40.832,48226,0.137789,13.7789,0.337452,33.7452,350,212,0,38,38
"A4WBW7FVQASZE","rensink","Farmer",31,0.867054800476702,4,"color","rensink",247,145,362,257,12880,0.0368,3.68,8751,0.0250029,2.50029,0.679425,67.9425,296,196,54,54,76.3675
"A4WBW7FVQASZE","rensink","Fishing",30,0.689397662821282,2,"movement","rensink",87,248,419,418,56440,0.161257,16.1257,36891,0.105403,10.5403,0.653632,65.3632,232,343,118,93,150.243
"A4WBW7FVQASZE","rensink","Fountain",25,0.68966396501577,2,"movement","rensink",376,49,520,200,21744,0.0621257,6.21257,16415,0.0469,4.69,0.754921,75.4921,445,134,95,116,149.937
"A4WBW7FVQASZE","rensink","Horizon",29,0.839226574013435,2,"movement","rensink",202,41,455,97,14168,0.04048,4.048,12230,0.0349429,3.49429,0.863213,86.3213,328,69,22,181,182.332
"A4WBW7FVQASZE","rensink","Kids",16,0.673113104238234,4,"color","rensink",12.5,153,215.5,462,62727,0.179476,17.9476,42832,0.122552,12.2552,0.682832,68.2832,104.5,332,245,82,258.358
"A4WBW7FVQASZE","rensink","Lake",7,0.682325618667807,5,"disappear","rensink",433.5,201,559.5,412,26586,0.0758516,7.58516,19929,0.0568588,5.68588,0.749605,74.9605,484.5,308,134,58,146.014
"A4WBW7FVQASZE","rensink","Market",32,0.818819507547536,3,"color","rensink",19,261,89,457,13720,0.0392,3.92,10953,0.0312943,3.12943,0.798324,79.8324,55,355,295,105,313.129
"A4WBW7FVQASZE","rensink","Marling",8,0.689752696139157,3,"disappear","rensink",199,377,331,502,16500,0.0471429,4.71429,13466,0.0384743,3.84743,0.816121,81.6121,265,443,85,193,210.889
"A4WBW7FVQASZE","rensink","Mosque",22,0.674769314015426,4,"disappear","rensink",319.5,72.5,391.5,289.5,15624,0.0444873,4.44873,12875,0.0366599,3.66599,0.824053,82.4053,354.5,176.5,4,74,74.108
"A4WBW7FVQASZE","rensink","NotreDame",21,0.693463127219531,2,"movement","rensink",182.5,8.5,490.5,252.5,75152,0.215458,21.5458,64577,0.18514,18.514,0.859285,85.9285,332.5,131.5,17,118,119.218
"A4WBW7FVQASZE","rensink","Obelisk",15,0.670987603010034,4,"disappear","rensink",519,194,684,313,19635,0.0561,5.61,16595,0.0474143,4.74143,0.845174,84.5174,602,253,252,3,252.018
"A4WBW7FVQASZE","rensink","Pilots",17,0.668199484198662,3,"color","rensink",584,176,703,281,12495,0.0357,3.57,9678,0.0276514,2.76514,0.77455,77.455,650,230,300,20,300.666
"A4WBW7FVQASZE","rensink","Seal",5,0.81431420020746,2,"movement","rensink",288,200.5,463,281.5,14175,0.0404192,4.04192,10386,0.0296151,2.96151,0.732698,73.2698,376,240.5,26,10,27.8568
"A4WBW7FVQASZE","rensink","Soldiers",18,0.707995746422929,4,"disappear","rensink",117,128,222,249,12705,0.0363,3.63,7819,0.02234,2.234,0.615427,61.5427,164,188,186,62,196.061
"A4WBW7FVQASZE","rensink","SummerLake",11,0.688508807656521,4,"disappear","rensink",439.5,287,634.5,358,13845,0.0396137,3.96137,9010,0.0257797,2.57797,0.650776,65.0776,540.5,319,191,69,203.081
"A4WBW7FVQASZE","rensink","Window",14,0.669409867287783,3,"disappear","rensink",-1,335.5,161,472.5,22194,0.0632849,6.32849,17022,0.0485372,4.85372,0.766964,76.6964,68,404.5,282,154,321.31
"A4WBW7FVQASZE","rensink","Wine",3,0.815245591916563,3,"disappear","rensink",361,169,681,384,68800,0.196571,19.6571,53416,0.152617,15.2617,0.776395,77.6395,517,283,167,33,170.229
"A6HDSE80LQPR8","rensink","Amish",23,0.814979683760757,5,"color","rensink",208,176.5,303,256.5,7600,0.0217578,2.17578,5423,0.0155253,1.55253,0.713553,71.3553,253,219.5,97,30,101.533
"A6HDSE80LQPR8","rensink","Army",14,0.808210972924222,3,"disappear","rensink",544,177,703,265,13992,0.0399771,3.99771,10722,0.0306343,3.06343,0.766295,76.6295,628,218,278,32,279.836
"A6HDSE80LQPR8","rensink","BarnTrack",9,0.822625678774141,4,"color","rensink",94.5,407,576.5,505,47236,0.135153,13.5153,28831,0.0824921,8.24921,0.610361,61.0361,283.5,469,66,219,228.729
"A6HDSE80LQPR8","rensink","Birds",4,0.907034952483417,3,"movement","rensink",-0.5,-2.5,703.5,98.5,71104,0.20246,20.246,52348,0.149054,14.9054,0.736217,73.6217,331.5,39.5,19,211,211.854
"A6HDSE80LQPR8","rensink","Boat",21,0.806993513682107,3,"movement","rensink",-1,200.5,421,337.5,57814,0.164853,16.4853,49840,0.142116,14.2116,0.862075,86.2075,196,273.5,154,23,155.708
"A6HDSE80LQPR8","rensink","Bus",11,0.802568498313956,3,"disappear","rensink",376,84,425,191,5243,0.01498,1.498,3790,0.0108286,1.08286,0.722869,72.2869,401,138,51,112,123.065
"A6HDSE80LQPR8","rensink","Cactus",15,0.813447544264821,5,"disappear","rensink",27.5,168.5,189.5,289.5,19602,0.0559739,5.59739,14115,0.0403057,4.03057,0.72008,72.008,103.5,228.5,246,22,246.982
"A6HDSE80LQPR8","rensink","Camel",13,0.809559714635268,4,"disappear","rensink",639.5,192,702.5,281,5607,0.0160429,1.60429,4998,0.0143004,1.43004,0.891386,89.1386,672.5,234,323,16,323.396
"A6HDSE80LQPR8","rensink","Castle",31,0.814846668604463,3,"movement","rensink",259.5,360,561.5,438,23556,0.0675925,6.75925,13846,0.0397303,3.97303,0.587791,58.7791,414.5,403,66,153,166.628
"A6HDSE80LQPR8","rensink","Chopper",26,0.842047288509638,1,"disappear","rensink",-1.5,413,702.5,505,64768,0.185316,18.5316,40727,0.116529,11.6529,0.628814,62.8814,336.5,462,13,212,212.398
"A6HDSE80LQPR8","rensink","Description",32,0.932016906434201,3,"color","rensink",552,9,702,257,37200,0.10659,10.659,24386,0.0698739,6.98739,0.655538,65.5538,634,117,285,133,314.506
"A6HDSE80LQPR8","rensink","Dinner",5,0.853454841368067,3,"movement","rensink",262,211,396,382,22914,0.0654686,6.54686,19346,0.0552743,5.52743,0.844287,84.4287,332,290,18,40,43.8634
"A6HDSE80LQPR8","rensink","Diver",18,0.81431420020746,5,"color","rensink",68,279.5,248,452.5,31140,0.0891497,8.91497,17605,0.0504008,5.04008,0.56535,56.535,154,364.5,196,115,227.247
"A6HDSE80LQPR8","rensink","Eating",20,0.80962704189405,5,"movement","rensink",-1,153,703,356,142912,0.40832,40.832,48226,0.137789,13.7789,0.337452,33.7452,350,212,0,38,38
"A6HDSE80LQPR8","rensink","Farmer",24,0.815976000971986,5,"color","rensink",247,145,362,257,12880,0.0368,3.68,8751,0.0250029,2.50029,0.679425,67.9425,296,196,54,54,76.3675
"A6HDSE80LQPR8","rensink","Harbor",17,0.837714668284911,5,"color","rensink",320,265,534,362,20758,0.0594785,5.94785,10086,0.0288997,2.88997,0.485885,48.5885,416,320,67,70,96.8969
"A6HDSE80LQPR8","rensink","Horizon",22,0.829561056299393,2,"movement","rensink",202,41,455,97,14168,0.04048,4.048,12230,0.0349429,3.49429,0.863213,86.3213,328,69,22,181,182.332
"A6HDSE80LQPR8","rensink","Ice",19,0.806722503076181,4,"disappear","rensink",1,223.5,153,273.5,7600,0.0216709,2.16709,5449,0.0155375,1.55375,0.716974,71.6974,79,248.5,271,2,271.007
"A6HDSE80LQPR8","rensink","Kayaker",10,0.807805532270625,5,"disappear","rensink",366.5,68,463.5,217,14453,0.0412354,4.12354,10059,0.028699,2.8699,0.69598,69.598,418.5,135,68,115,133.6
"A6HDSE80LQPR8","rensink","Kids",29,0.810837151140488,5,"color","rensink",12.5,153,215.5,462,62727,0.179476,17.9476,42832,0.122552,12.2552,0.682832,68.2832,104.5,332,245,82,258.358
"A6HDSE80LQPR8","rensink","Lake",25,0.818951311640173,5,"disappear","rensink",433.5,201,559.5,412,26586,0.0758516,7.58516,19929,0.0568588,5.68588,0.749605,74.9605,484.5,308,134,58,146.014
"A6HDSE80LQPR8","rensink","Marling",28,0.816970037757299,5,"disappear","rensink",199,377,331,502,16500,0.0471429,4.71429,13466,0.0384743,3.84743,0.816121,81.6121,265,443,85,193,210.889
"A6HDSE80LQPR8","rensink","Mosque",6,0.836007459125532,5,"disappear","rensink",319.5,72.5,391.5,289.5,15624,0.0444873,4.44873,12875,0.0366599,3.66599,0.824053,82.4053,354.5,176.5,4,74,74.108
"A6HDSE80LQPR8","rensink","Nurses",12,0.815843290663267,5,"color","rensink",486.5,-1,702.5,393,85104,0.243502,24.3502,58420,0.167153,16.7153,0.686454,68.6454,618.5,158,269,92,284.297
"A6HDSE80LQPR8","rensink","Obelisk",16,0.806790271584067,5,"disappear","rensink",519,194,684,313,19635,0.0561,5.61,16595,0.0474143,4.74143,0.845174,84.5174,602,253,252,3,252.018
"A6HDSE80LQPR8","rensink","OtherDiver",7,0.860098329698518,2,"movement","rensink",475,221.5,703,400.5,40812,0.116839,11.6839,34605,0.0990696,9.90696,0.847912,84.7912,595,311.5,245,62,252.723
"A6HDSE80LQPR8","rensink","Pilots",27,0.816440167956139,5,"color","rensink",584,176,703,281,12495,0.0357,3.57,9678,0.0276514,2.76514,0.77455,77.455,650,230,300,20,300.666
"A6HDSE80LQPR8","rensink","Window",3,0.856789288753316,4,"disappear","rensink",-1,335.5,161,472.5,22194,0.0632849,6.32849,17022,0.0485372,4.85372,0.766964,76.6964,68,404.5,282,154,321.31
"A6HDSE80LQPR8","rensink","Wine",30,0.813113754007899,5,"disappear","rensink",361,169,681,384,68800,0.196571,19.6571,53416,0.152617,15.2617,0.776395,77.6395,517,283,167,33,170.229
"ADAL2H41ZBWAK","rensink","Army",24,1.0344279050254,4,"disappear","rensink",544,177,703,265,13992,0.0399771,3.99771,10722,0.0306343,3.06343,0.766295,76.6295,628,218,278,32,279.836
"ADAL2H41ZBWAK","rensink","Barns",11,1.08668009373462,3,"color","rensink",135,303.5,220,432.5,10965,0.0313914,3.13914,8901,0.0254824,2.54824,0.811765,81.1765,177,372.5,173,123,212.269
"ADAL2H41ZBWAK","rensink","BarnTrack",16,1.49394574838715,4,"color","rensink",94.5,407,576.5,505,47236,0.135153,13.5153,28831,0.0824921,8.24921,0.610361,61.0361,283.5,469,66,219,228.729
"ADAL2H41ZBWAK","rensink","Barrels",23,1.18167212206827,5,"color","rensink",478,448,703,503,12375,0.0353571,3.53571,9209,0.0263114,2.63114,0.744162,74.4162,610,479,260,229,346.469
"ADAL2H41ZBWAK","rensink","Beach",14,0.844228581301628,5,"color","rensink",400,328.5,592,463.5,25920,0.0739093,7.39093,17854,0.0509096,5.09096,0.688812,68.8812,495,394.5,145,144,204.355
"ADAL2H41ZBWAK","rensink","Birds",3,1.11981654593722,1,"movement","rensink",-0.5,-2.5,703.5,98.5,71104,0.20246,20.246,52348,0.149054,14.9054,0.736217,73.6217,331.5,39.5,19,211,211.854
"ADAL2H41ZBWAK","rensink","Bus",4,1.28632171425687,4,"disappear","rensink",376,84,425,191,5243,0.01498,1.498,3790,0.0108286,1.08286,0.722869,72.2869,401,138,51,112,123.065
"ADAL2H41ZBWAK","rensink","Cactus",12,0.857392810920901,5,"disappear","rensink",27.5,168.5,189.5,289.5,19602,0.0559739,5.59739,14115,0.0403057,4.03057,0.72008,72.008,103.5,228.5,246,22,246.982
"ADAL2H41ZBWAK","rensink","CanalBridge",31,1.12746116251154,5,"disappear","rensink",346.5,310,702.5,497,66572,0.190478,19.0478,52438,0.150037,15.0037,0.787689,78.7689,541.5,394,192,144,240
"ADAL2H41ZBWAK","rensink","Cockpit",29,0.97048634884765,4,"movement","rensink",271.5,69,568.5,225,46332,0.132188,13.2188,35802,0.102146,10.2146,0.772727,77.2727,421.5,141,71,109,130.085
"ADAL2H41ZBWAK","rensink","Dinner",13,1.06595298031387,3,"movement","rensink",262,211,396,382,22914,0.0654686,6.54686,19346,0.0552743,5.52743,0.844287,84.4287,332,290,18,40,43.8634
"ADAL2H41ZBWAK","rensink","Diver",6,0.980048845064957,5,"color","rensink",68,279.5,248,452.5,31140,0.0891497,8.91497,17605,0.0504008,5.04008,0.56535,56.535,154,364.5,196,115,227.247
"ADAL2H41ZBWAK","rensink","Egypt",30,1.11793383503964,1,"movement","rensink",312.5,65,455.5,425,51480,0.147719,14.7719,39393,0.113036,11.3036,0.76521,76.521,382.5,240,34,10,35.4401
"ADAL2H41ZBWAK","rensink","FarmByPond",26,0.970997365572485,2,"movement","rensink",-1.5,323.5,358.5,502.5,64440,0.184747,18.4747,55725,0.159762,15.9762,0.864758,86.4758,164.5,413.5,185,164,247.227
"ADAL2H41ZBWAK","rensink","Farmer",5,0.891648943870559,2,"color","rensink",247,145,362,257,12880,0.0368,3.68,8751,0.0250029,2.50029,0.679425,67.9425,296,196,54,54,76.3675
"ADAL2H41ZBWAK","rensink","Floatplane",19,0.946796027271461,4,"color","rensink",77,241,488,385,59184,0.169097,16.9097,11329,0.0323686,3.23686,0.19142,19.142,273.5,326.25,76.5,76.25,108.011
"ADAL2H41ZBWAK","rensink","Fountain",15,0.940864975966722,2,"movement","rensink",376,49,520,200,21744,0.0621257,6.21257,16415,0.0469,4.69,0.754921,75.4921,445,134,95,116,149.937
"ADAL2H41ZBWAK","rensink","Harbor",27,0.943692327106017,4,"color","rensink",320,265,534,362,20758,0.0594785,5.94785,10086,0.0288997,2.88997,0.485885,48.5885,416,320,67,70,96.8969
"ADAL2H41ZBWAK","rensink","Ice",17,1.18554215485438,4,"disappear","rensink",1,223.5,153,273.5,7600,0.0216709,2.16709,5449,0.0155375,1.55375,0.716974,71.6974,79,248.5,271,2,271.007
"ADAL2H41ZBWAK","rensink","Kayak",18,0.840168849240756,5,"color","rensink",207,241,402,397,30420,0.0869143,8.69143,20746,0.0592743,5.92743,0.681986,68.1986,296,322,54,72,90
"ADAL2H41ZBWAK","rensink","Kayaker",9,1.1221503194408,2,"disappear","rensink",366.5,68,463.5,217,14453,0.0412354,4.12354,10059,0.028699,2.8699,0.69598,69.598,418.5,135,68,115,133.6
"ADAL2H41ZBWAK","rensink","Lake",32,0.857875025523563,3,"disappear","rensink",433.5,201,559.5,412,26586,0.0758516,7.58516,19929,0.0568588,5.68588,0.749605,74.9605,484.5,308,134,58,146.014
"ADAL2H41ZBWAK","rensink","Market",8,1.12152701645538,3,"color","rensink",19,261,89,457,13720,0.0392,3.92,10953,0.0312943,3.12943,0.798324,79.8324,55,355,295,105,313.129
"ADAL2H41ZBWAK","rensink","Marling",20,1.18873167144574,4,"disappear","rensink",199,377,331,502,16500,0.0471429,4.71429,13466,0.0384743,3.84743,0.816121,81.6121,265,443,85,193,210.889
"ADAL2H41ZBWAK","rensink","OtherDiver",28,1.13839744299055,1,"movement","rensink",475,221.5,703,400.5,40812,0.116839,11.6839,34605,0.0990696,9.90696,0.847912,84.7912,595,311.5,245,62,252.723
"ADAL2H41ZBWAK","rensink","Pilots",7,1.24674470972384,4,"color","rensink",584,176,703,281,12495,0.0357,3.57,9678,0.0276514,2.76514,0.77455,77.455,650,230,300,20,300.666
"ADAL2H41ZBWAK","rensink","Seal",22,0.877659244111609,2,"movement","rensink",288,200.5,463,281.5,14175,0.0404192,4.04192,10386,0.0296151,2.96151,0.732698,73.2698,376,240.5,26,10,27.8568
"ADAL2H41ZBWAK","rensink","Soldiers",21,1.0671452788854,4,"disappear","rensink",117,128,222,249,12705,0.0363,3.63,7819,0.02234,2.234,0.615427,61.5427,164,188,186,62,196.061
"ADAL2H41ZBWAK","rensink","Turtle",25,0.933284772348695,5,"color","rensink",-0.5,-3,655.5,108,72816,0.207749,20.7749,49078,0.140023,14.0023,0.674,67.4,435.5,31.5,85,218.5,234.451
"ADAL2H41ZBWAK","rensink","Water",10,1.21096025541681,2,"movement","rensink",208.5,325,702.5,502,87438,0.25018,25.018,80161,0.229359,22.9359,0.916775,91.6775,454.5,418,105,168,198.114
"AGRKG3YT3KMD8","rensink","Amish",26,0.819346484080453,5,"color","rensink",208,176.5,303,256.5,7600,0.0217578,2.17578,5423,0.0155253,1.55253,0.713553,71.3553,253,219.5,97,30,101.533
"AGRKG3YT3KMD8","rensink","Barrels",28,0.833529581758644,3,"color","rensink",478,448,703,503,12375,0.0353571,3.53571,9209,0.0263114,2.63114,0.744162,74.4162,610,479,260,229,346.469
"AGRKG3YT3KMD8","rensink","Beach",24,0.830331993451962,5,"color","rensink",400,328.5,592,463.5,25920,0.0739093,7.39093,17854,0.0509096,5.09096,0.688812,68.8812,495,394.5,145,144,204.355
"AGRKG3YT3KMD8","rensink","Boat",22,0.82210266864692,3,"movement","rensink",-1,200.5,421,337.5,57814,0.164853,16.4853,49840,0.142116,14.2116,0.862075,86.2075,196,273.5,154,23,155.708
"AGRKG3YT3KMD8","rensink","Camel",18,0.831549851995756,3,"disappear","rensink",639.5,192,702.5,281,5607,0.0160429,1.60429,4998,0.0143004,1.43004,0.891386,89.1386,672.5,234,323,16,323.396
"AGRKG3YT3KMD8","rensink","Castle",19,0.833529581758644,2,"movement","rensink",259.5,360,561.5,438,23556,0.0675925,6.75925,13846,0.0397303,3.97303,0.587791,58.7791,414.5,403,66,153,166.628
"AGRKG3YT3KMD8","rensink","Egypt",21,0.823278556951671,2,"movement","rensink",312.5,65,455.5,425,51480,0.147719,14.7719,39393,0.113036,11.3036,0.76521,76.521,382.5,240,34,10,35.4401
"AGRKG3YT3KMD8","rensink","Farmer",29,0.82236425244155,5,"color","rensink",247,145,362,257,12880,0.0368,3.68,8751,0.0250029,2.50029,0.679425,67.9425,296,196,54,54,76.3675
"AGRKG3YT3KMD8","rensink","Fishing",20,0.828917561616686,4,"movement","rensink",87,248,419,418,56440,0.161257,16.1257,36891,0.105403,10.5403,0.653632,65.3632,232,343,118,93,150.243
"AGRKG3YT3KMD8","rensink","Floatplane",14,0.827885982789856,5,"color","rensink",77,241,488,385,59184,0.169097,16.9097,11329,0.0323686,3.23686,0.19142,19.142,273.5,326.25,76.5,76.25,108.011
"AGRKG3YT3KMD8","rensink","Fountain",3,0.830203598925704,5,"movement","rensink",376,49,520,200,21744,0.0621257,6.21257,16415,0.0469,4.69,0.754921,75.4921,445,134,95,116,149.937
"AGRKG3YT3KMD8","rensink","Horizon",17,0.82052984852352,3,"movement","rensink",202,41,455,97,14168,0.04048,4.048,12230,0.0349429,3.49429,0.863213,86.3213,328,69,22,181,182.332
"AGRKG3YT3KMD8","rensink","Kids",11,0.831741833645638,5,"color","rensink",12.5,153,215.5,462,62727,0.179476,17.9476,42832,0.122552,12.2552,0.682832,68.2832,104.5,332,245,82,258.358
"AGRKG3YT3KMD8","rensink","Mosque",8,0.832189461068513,5,"disappear","rensink",319.5,72.5,391.5,289.5,15624,0.0444873,4.44873,12875,0.0366599,3.66599,0.824053,82.4053,354.5,176.5,4,74,74.108
"AGRKG3YT3KMD8","rensink","Pilots",23,0.831997677235896,5,"color","rensink",584,176,703,281,12495,0.0357,3.57,9678,0.0276514,2.76514,0.77455,77.455,650,230,300,20,300.666
"AGRKG3YT3KMD8","rensink","Seal",16,0.823343790820649,3,"movement","rensink",288,200.5,463,281.5,14175,0.0404192,4.04192,10386,0.0296151,2.96151,0.732698,73.2698,376,240.5,26,10,27.8568
"AGRKG3YT3KMD8","rensink","Station",15,0.817036226050029,4,"disappear","rensink",536,201,656,257,6720,0.0192,1.92,5127,0.0146486,1.46486,0.762946,76.2946,593,225,243,25,244.283
"AGRKG3YT3KMD8","rensink","Water",30,0.831357785442068,2,"movement","rensink",208.5,325,702.5,502,87438,0.25018,25.018,80161,0.229359,22.9359,0.916775,91.6775,454.5,418,105,168,198.114
"AGRKG3YT3KMD8","rensink","Window",25,0.833274639290563,5,"disappear","rensink",-1,335.5,161,472.5,22194,0.0632849,6.32849,17022,0.0485372,4.85372,0.766964,76.6964,68,404.5,282,154,321.31
"AGRKG3YT3KMD8","rensink","Wine",32,0.822037248072585,4,"disappear","rensink",361,169,681,384,68800,0.196571,19.6571,53416,0.152617,15.2617,0.776395,77.6395,517,283,167,33,170.229
"AKG7VBOY97HKA","rensink","Barns",19,1.3174364965351,5,"color","rensink",135,303.5,220,432.5,10965,0.0313914,3.13914,8901,0.0254824,2.54824,0.811765,81.1765,177,372.5,173,123,212.269
"AKG7VBOY97HKA","rensink","BarnTrack",15,0.998738716255818,1,"color","rensink",94.5,407,576.5,505,47236,0.135153,13.5153,28831,0.0824921,8.24921,0.610361,61.0361,283.5,469,66,219,228.729
"AKG7VBOY97HKA","rensink","Beach",20,1.12868999358545,5,"color","rensink",400,328.5,592,463.5,25920,0.0739093,7.39093,17854,0.0509096,5.09096,0.688812,68.8812,495,394.5,145,144,204.355
"AKG7VBOY97HKA","rensink","Boat",28,0.850707485374537,5,"movement","rensink",-1,200.5,421,337.5,57814,0.164853,16.4853,49840,0.142116,14.2116,0.862075,86.2075,196,273.5,154,23,155.708
"AKG7VBOY97HKA","rensink","Bus",21,0.886039275566442,1,"disappear","rensink",376,84,425,191,5243,0.01498,1.498,3790,0.0108286,1.08286,0.722869,72.2869,401,138,51,112,123.065
"AKG7VBOY97HKA","rensink","Camel",31,0.905418068702542,5,"disappear","rensink",639.5,192,702.5,281,5607,0.0160429,1.60429,4998,0.0143004,1.43004,0.891386,89.1386,672.5,234,323,16,323.396
"AKG7VBOY97HKA","rensink","CanalBridge",4,1.15515377776515,5,"disappear","rensink",346.5,310,702.5,497,66572,0.190478,19.0478,52438,0.150037,15.0037,0.787689,78.7689,541.5,394,192,144,240
"AKG7VBOY97HKA","rensink","Chopper",17,1.14497873802003,1,"disappear","rensink",-1.5,413,702.5,505,64768,0.185316,18.5316,40727,0.116529,11.6529,0.628814,62.8814,336.5,462,13,212,212.398
"AKG7VBOY97HKA","rensink","Cockpit",10,1.02436250435328,1,"movement","rensink",271.5,69,568.5,225,46332,0.132188,13.2188,35802,0.102146,10.2146,0.772727,77.2727,421.5,141,71,109,130.085
"AKG7VBOY97HKA","rensink","Dinner",26,0.966235624098582,5,"movement","rensink",262,211,396,382,22914,0.0654686,6.54686,19346,0.0552743,5.52743,0.844287,84.4287,332,290,18,40,43.8634
"AKG7VBOY97HKA","rensink","Diver",6,1.08461202086525,5,"color","rensink",68,279.5,248,452.5,31140,0.0891497,8.91497,17605,0.0504008,5.04008,0.56535,56.535,154,364.5,196,115,227.247
"AKG7VBOY97HKA","rensink","Eating",8,1.19164659856273,1,"movement","rensink",-1,153,703,356,142912,0.40832,40.832,48226,0.137789,13.7789,0.337452,33.7452,350,212,0,38,38
"AKG7VBOY97HKA","rensink","Egypt",29,0.85582190540603,1,"movement","rensink",312.5,65,455.5,425,51480,0.147719,14.7719,39393,0.113036,11.3036,0.76521,76.521,382.5,240,34,10,35.4401
"AKG7VBOY97HKA","rensink","Fishing",22,0.890029586163417,1,"movement","rensink",87,248,419,418,56440,0.161257,16.1257,36891,0.105403,10.5403,0.653632,65.3632,232,343,118,93,150.243
"AKG7VBOY97HKA","rensink","Floatplane",9,1.02238712568644,5,"color","rensink",77,241,488,385,59184,0.169097,16.9097,11329,0.0323686,3.23686,0.19142,19.142,273.5,326.25,76.5,76.25,108.011
"AKG7VBOY97HKA","rensink","Kayak",23,0.862906213562998,5,"color","rensink",207,241,402,397,30420,0.0869143,8.69143,20746,0.0592743,5.92743,0.681986,68.1986,296,322,54,72,90
"AKG7VBOY97HKA","rensink","Lake",11,0.861534410859038,5,"disappear","rensink",433.5,201,559.5,412,26586,0.0758516,7.58516,19929,0.0568588,5.68588,0.749605,74.9605,484.5,308,134,58,146.014
"AKG7VBOY97HKA","rensink","NotreDame",16,0.844849800806639,2,"movement","rensink",182.5,8.5,490.5,252.5,75152,0.215458,21.5458,64577,0.18514,18.514,0.859285,85.9285,332.5,131.5,17,118,119.218
"AKG7VBOY97HKA","rensink","Obelisk",25,0.993171605030765,5,"disappear","rensink",519,194,684,313,19635,0.0561,5.61,16595,0.0474143,4.74143,0.845174,84.5174,602,253,252,3,252.018
"AKG7VBOY97HKA","rensink","Station",18,1.05610409742245,2,"disappear","rensink",536,201,656,257,6720,0.0192,1.92,5127,0.0146486,1.46486,0.762946,76.2946,593,225,243,25,244.283
"AKG7VBOY97HKA","rensink","SummerLake",32,0.968716377466786,5,"disappear","rensink",439.5,287,634.5,358,13845,0.0396137,3.96137,9010,0.0257797,2.57797,0.650776,65.0776,540.5,319,191,69,203.081
"ALDQRWYZ8KQ9A","rensink","Army",32,1.11062337523333,3,"disappear","rensink",544,177,703,265,13992,0.0399771,3.99771,10722,0.0306343,3.06343,0.766295,76.6295,628,218,278,32,279.836
"ALDQRWYZ8KQ9A","rensink","Barrels",28,0.861474668857169,4,"color","rensink",478,448,703,503,12375,0.0353571,3.53571,9209,0.0263114,2.63114,0.744162,74.4162,610,479,260,229,346.469
"ALDQRWYZ8KQ9A","rensink","Birds",30,0.95799017840683,1,"movement","rensink",-0.5,-2.5,703.5,98.5,71104,0.20246,20.246,52348,0.149054,14.9054,0.736217,73.6217,331.5,39.5,19,211,211.854
"ALDQRWYZ8KQ9A","rensink","Cactus",25,0.854063011866421,5,"disappear","rensink",27.5,168.5,189.5,289.5,19602,0.0559739,5.59739,14115,0.0403057,4.03057,0.72008,72.008,103.5,228.5,246,22,246.982
"ALDQRWYZ8KQ9A","rensink","Castle",27,0.945025201242463,4,"movement","rensink",259.5,360,561.5,438,23556,0.0675925,6.75925,13846,0.0397303,3.97303,0.587791,58.7791,414.5,403,66,153,166.628
"ALDQRWYZ8KQ9A","rensink","Chopper",15,1.37339019962747,3,"disappear","rensink",-1.5,413,702.5,505,64768,0.185316,18.5316,40727,0.116529,11.6529,0.628814,62.8814,336.5,462,13,212,212.398
"ALDQRWYZ8KQ9A","rensink","Cockpit",5,0.850523708878994,4,"movement","rensink",271.5,69,568.5,225,46332,0.132188,13.2188,35802,0.102146,10.2146,0.772727,77.2727,421.5,141,71,109,130.085
"ALDQRWYZ8KQ9A","rensink","Description",26,1.18517371235734,3,"color","rensink",552,9,702,257,37200,0.10659,10.659,24386,0.0698739,6.98739,0.655538,65.5538,634,117,285,133,314.506
"ALDQRWYZ8KQ9A","rensink","Dinner",21,0.820726762823834,3,"movement","rensink",262,211,396,382,22914,0.0654686,6.54686,19346,0.0552743,5.52743,0.844287,84.4287,332,290,18,40,43.8634
"ALDQRWYZ8KQ9A","rensink","Diver",7,0.928037206406883,5,"color","rensink",68,279.5,248,452.5,31140,0.0891497,8.91497,17605,0.0504008,5.04008,0.56535,56.535,154,364.5,196,115,227.247
"ALDQRWYZ8KQ9A","rensink","Egypt",19,0.844787718827846,3,"movement","rensink",312.5,65,455.5,425,51480,0.147719,14.7719,39393,0.113036,11.3036,0.76521,76.521,382.5,240,34,10,35.4401
"ALDQRWYZ8KQ9A","rensink","FarmByPond",8,0.844290743254343,4,"movement","rensink",-1.5,323.5,358.5,502.5,64440,0.184747,18.4747,55725,0.159762,15.9762,0.864758,86.4758,164.5,413.5,185,164,247.227
"ALDQRWYZ8KQ9A","rensink","Farmer",17,0.827046017004734,5,"color","rensink",247,145,362,257,12880,0.0368,3.68,8751,0.0250029,2.50029,0.679425,67.9425,296,196,54,54,76.3675
"ALDQRWYZ8KQ9A","rensink","Floatplane",9,0.929674317948588,5,"color","rensink",77,241,488,385,59184,0.169097,16.9097,11329,0.0323686,3.23686,0.19142,19.142,273.5,326.25,76.5,76.25,108.011
"ALDQRWYZ8KQ9A","rensink","Fountain",13,0.943791198929302,3,"movement","rensink",376,49,520,200,21744,0.0621257,6.21257,16415,0.0469,4.69,0.754921,75.4921,445,134,95,116,149.937
"ALDQRWYZ8KQ9A","rensink","Harbor",24,0.839792184445329,5,"color","rensink",320,265,534,362,20758,0.0594785,5.94785,10086,0.0288997,2.88997,0.485885,48.5885,416,320,67,70,96.8969
"ALDQRWYZ8KQ9A","rensink","Ice",29,0.937818684698356,4,"disappear","rensink",1,223.5,153,273.5,7600,0.0216709,2.16709,5449,0.0155375,1.55375,0.716974,71.6974,79,248.5,271,2,271.007
"ALDQRWYZ8KQ9A","rensink","Kayak",11,0.822233480238844,5,"color","rensink",207,241,402,397,30420,0.0869143,8.69143,20746,0.0592743,5.92743,0.681986,68.1986,296,322,54,72,90
"ALDQRWYZ8KQ9A","rensink","Kayaker",18,0.939818662821379,4,"disappear","rensink",366.5,68,463.5,217,14453,0.0412354,4.12354,10059,0.028699,2.8699,0.69598,69.598,418.5,135,68,115,133.6
"ALDQRWYZ8KQ9A","rensink","Market",20,1.1857970474462,4,"color","rensink",19,261,89,457,13720,0.0392,3.92,10953,0.0312943,3.12943,0.798324,79.8324,55,355,295,105,313.129
"ALDQRWYZ8KQ9A","rensink","Marling",23,0.946550510569855,4,"disappear","rensink",199,377,331,502,16500,0.0471429,4.71429,13466,0.0384743,3.84743,0.816121,81.6121,265,443,85,193,210.889
"ALDQRWYZ8KQ9A","rensink","NotreDame",10,0.940616082337408,2,"movement","rensink",182.5,8.5,490.5,252.5,75152,0.215458,21.5458,64577,0.18514,18.514,0.859285,85.9285,332.5,131.5,17,118,119.218
"ALDQRWYZ8KQ9A","rensink","Nurses",31,0.871689665685515,5,"color","rensink",486.5,-1,702.5,393,85104,0.243502,24.3502,58420,0.167153,16.7153,0.686454,68.6454,618.5,158,269,92,284.297
"ALDQRWYZ8KQ9A","rensink","Obelisk",6,1.10349584410977,5,"disappear","rensink",519,194,684,313,19635,0.0561,5.61,16595,0.0474143,4.74143,0.845174,84.5174,602,253,252,3,252.018
"ALDQRWYZ8KQ9A","rensink","OtherDiver",22,1.18078513497344,2,"movement","rensink",475,221.5,703,400.5,40812,0.116839,11.6839,34605,0.0990696,9.90696,0.847912,84.7912,595,311.5,245,62,252.723
"ALDQRWYZ8KQ9A","rensink","Pilots",3,1.1226745132062,4,"color","rensink",584,176,703,281,12495,0.0357,3.57,9678,0.0276514,2.76514,0.77455,77.455,650,230,300,20,300.666
"ALDQRWYZ8KQ9A","rensink","Soldiers",4,0.938919812244772,4,"disappear","rensink",117,128,222,249,12705,0.0363,3.63,7819,0.02234,2.234,0.615427,61.5427,164,188,186,62,196.061
"ALDQRWYZ8KQ9A","rensink","SummerLake",12,0.939419403329317,4,"disappear","rensink",439.5,287,634.5,358,13845,0.0396137,3.96137,9010,0.0257797,2.57797,0.650776,65.0776,540.5,319,191,69,203.081
"ALDQRWYZ8KQ9A","rensink","Water",16,0.839100782707153,2,"movement","rensink",208.5,325,702.5,502,87438,0.25018,25.018,80161,0.229359,22.9359,0.916775,91.6775,454.5,418,105,168,198.114
"AP4A0MZOKR52J","rensink","Amish",29,0.84223468634724,5,"color","rensink",208,176.5,303,256.5,7600,0.0217578,2.17578,5423,0.0155253,1.55253,0.713553,71.3553,253,219.5,97,30,101.533
"AP4A0MZOKR52J","rensink","Barns",21,1.12257627505719,5,"color","rensink",135,303.5,220,432.5,10965,0.0313914,3.13914,8901,0.0254824,2.54824,0.811765,81.1765,177,372.5,173,123,212.269
"AP4A0MZOKR52J","rensink","BarnTrack",8,1.11102715102617,3,"color","rensink",94.5,407,576.5,505,47236,0.135153,13.5153,28831,0.0824921,8.24921,0.610361,61.0361,283.5,469,66,219,228.729
"AP4A0MZOKR52J","rensink","Birds",30,0.987219229908005,1,"movement","rensink",-0.5,-2.5,703.5,98.5,71104,0.20246,20.246,52348,0.149054,14.9054,0.736217,73.6217,331.5,39.5,19,211,211.854
"AP4A0MZOKR52J","rensink","Boat",5,1.03885850155977,2,"movement","rensink",-1,200.5,421,337.5,57814,0.164853,16.4853,49840,0.142116,14.2116,0.862075,86.2075,196,273.5,154,23,155.708
"AP4A0MZOKR52J","rensink","Bus",4,0.958324931644053,1,"disappear","rensink",376,84,425,191,5243,0.01498,1.498,3790,0.0108286,1.08286,0.722869,72.2869,401,138,51,112,123.065
"AP4A0MZOKR52J","rensink","Cactus",10,0.850646235183066,4,"disappear","rensink",27.5,168.5,189.5,289.5,19602,0.0559739,5.59739,14115,0.0403057,4.03057,0.72008,72.008,103.5,228.5,246,22,246.982
"AP4A0MZOKR52J","rensink","Camel",3,1.12496045078954,2,"disappear","rensink",639.5,192,702.5,281,5607,0.0160429,1.60429,4998,0.0143004,1.43004,0.891386,89.1386,672.5,234,323,16,323.396
"AP4A0MZOKR52J","rensink","Castle",23,0.963410015680229,1,"movement","rensink",259.5,360,561.5,438,23556,0.0675925,6.75925,13846,0.0397303,3.97303,0.587791,58.7791,414.5,403,66,153,166.628
"AP4A0MZOKR52J","rensink","Chopper",9,1.17626494211415,2,"disappear","rensink",-1.5,413,702.5,505,64768,0.185316,18.5316,40727,0.116529,11.6529,0.628814,62.8814,336.5,462,13,212,212.398
"AP4A0MZOKR52J","rensink","Cockpit",13,1.05134549933654,3,"movement","rensink",271.5,69,568.5,225,46332,0.132188,13.2188,35802,0.102146,10.2146,0.772727,77.2727,421.5,141,71,109,130.085
"AP4A0MZOKR52J","rensink","Dinner",26,0.949682690795204,1,"movement","rensink",262,211,396,382,22914,0.0654686,6.54686,19346,0.0552743,5.52743,0.844287,84.4287,332,290,18,40,43.8634
"AP4A0MZOKR52J","rensink","Eating",16,0.949438801036504,1,"movement","rensink",-1,153,703,356,142912,0.40832,40.832,48226,0.137789,13.7789,0.337452,33.7452,350,212,0,38,38
"AP4A0MZOKR52J","rensink","Egypt",14,0.940416864681665,1,"movement","rensink",312.5,65,455.5,425,51480,0.147719,14.7719,39393,0.113036,11.3036,0.76521,76.521,382.5,240,34,10,35.4401
"AP4A0MZOKR52J","rensink","FarmByPond",25,0.862727528317975,1,"movement","rensink",-1.5,323.5,358.5,502.5,64440,0.184747,18.4747,55725,0.159762,15.9762,0.864758,86.4758,164.5,413.5,185,164,247.227
"AP4A0MZOKR52J","rensink","Fountain",15,0.830010935936118,2,"movement","rensink",376,49,520,200,21744,0.0621257,6.21257,16415,0.0469,4.69,0.754921,75.4921,445,134,95,116,149.937
"AP4A0MZOKR52J","rensink","Harbor",32,1.18289946754826,5,"color","rensink",320,265,534,362,20758,0.0594785,5.94785,10086,0.0288997,2.88997,0.485885,48.5885,416,320,67,70,96.8969
"AP4A0MZOKR52J","rensink","Kayaker",17,0.828208614467945,4,"disappear","rensink",366.5,68,463.5,217,14453,0.0412354,4.12354,10059,0.028699,2.8699,0.69598,69.598,418.5,135,68,115,133.6
"AP4A0MZOKR52J","rensink","Market",20,1.12956100230908,4,"color","rensink",19,261,89,457,13720,0.0392,3.92,10953,0.0312943,3.12943,0.798324,79.8324,55,355,295,105,313.129
"AP4A0MZOKR52J","rensink","Mosque",22,0.951094556841663,4,"disappear","rensink",319.5,72.5,391.5,289.5,15624,0.0444873,4.44873,12875,0.0366599,3.66599,0.824053,82.4053,354.5,176.5,4,74,74.108
"AP4A0MZOKR52J","rensink","OtherDiver",28,0.946943270697825,2,"movement","rensink",475,221.5,703,400.5,40812,0.116839,11.6839,34605,0.0990696,9.90696,0.847912,84.7912,595,311.5,245,62,252.723
"AP4A0MZOKR52J","rensink","Pilots",27,1.18230049959334,2,"color","rensink",584,176,703,281,12495,0.0357,3.57,9678,0.0276514,2.76514,0.77455,77.455,650,230,300,20,300.666
"AP4A0MZOKR52J","rensink","Seal",19,0.958229314188382,3,"movement","rensink",288,200.5,463,281.5,14175,0.0404192,4.04192,10386,0.0296151,2.96151,0.732698,73.2698,376,240.5,26,10,27.8568
"AP4A0MZOKR52J","rensink","Station",31,0.93379088414342,3,"disappear","rensink",536,201,656,257,6720,0.0192,1.92,5127,0.0146486,1.46486,0.762946,76.2946,593,225,243,25,244.283
"AP4A0MZOKR52J","rensink","SummerLake",24,0.96189547366785,4,"disappear","rensink",439.5,287,634.5,358,13845,0.0396137,3.96137,9010,0.0257797,2.57797,0.650776,65.0776,540.5,319,191,69,203.081
"AP4A0MZOKR52J","rensink","Water",12,1.10608885838244,4,"movement","rensink",208.5,325,702.5,502,87438,0.25018,25.018,80161,0.229359,22.9359,0.916775,91.6775,454.5,418,105,168,198.114
"AP4A0MZOKR52J","rensink","Window",18,0.937116510767054,4,"disappear","rensink",-1,335.5,161,472.5,22194,0.0632849,6.32849,17022,0.0485372,4.85372,0.766964,76.6964,68,404.5,282,154,321.31
"AP4A0MZOKR52J","rensink","Wine",7,0.943890048248473,5,"disappear","rensink",361,169,681,384,68800,0.196571,19.6571,53416,0.152617,15.2617,0.776395,77.6395,517,283,167,33,170.229
"APO6KZZ79PO9Q","rensink","Amish",4,0.873029812061044,5,"color","rensink",208,176.5,303,256.5,7600,0.0217578,2.17578,5423,0.0155253,1.55253,0.713553,71.3553,253,219.5,97,30,101.533
"APO6KZZ79PO9Q","rensink","BarnTrack",20,1.03249788285711,5,"color","rensink",94.5,407,576.5,505,47236,0.135153,13.5153,28831,0.0824921,8.24921,0.610361,61.0361,283.5,469,66,219,228.729
"APO6KZZ79PO9Q","rensink","Beach",8,0.964448207916661,5,"color","rensink",400,328.5,592,463.5,25920,0.0739093,7.39093,17854,0.0509096,5.09096,0.688812,68.8812,495,394.5,145,144,204.355
"APO6KZZ79PO9Q","rensink","Bus",12,1.04446136081066,5,"disappear","rensink",376,84,425,191,5243,0.01498,1.498,3790,0.0108286,1.08286,0.722869,72.2869,401,138,51,112,123.065
"APO6KZZ79PO9Q","rensink","Cactus",29,0.852418992937001,5,"disappear","rensink",27.5,168.5,189.5,289.5,19602,0.0559739,5.59739,14115,0.0403057,4.03057,0.72008,72.008,103.5,228.5,246,22,246.982
"APO6KZZ79PO9Q","rensink","Camel",30,0.892038920341292,5,"disappear","rensink",639.5,192,702.5,281,5607,0.0160429,1.60429,4998,0.0143004,1.43004,0.891386,89.1386,672.5,234,323,16,323.396
"APO6KZZ79PO9Q","rensink","CanalBridge",13,1.25703024859329,5,"disappear","rensink",346.5,310,702.5,497,66572,0.190478,19.0478,52438,0.150037,15.0037,0.787689,78.7689,541.5,394,192,144,240
"APO6KZZ79PO9Q","rensink","Chopper",32,0.952695599586917,1,"disappear","rensink",-1.5,413,702.5,505,64768,0.185316,18.5316,40727,0.116529,11.6529,0.628814,62.8814,336.5,462,13,212,212.398
"APO6KZZ79PO9Q","rensink","Cockpit",10,0.836830286488879,2,"movement","rensink",271.5,69,568.5,225,46332,0.132188,13.2188,35802,0.102146,10.2146,0.772727,77.2727,421.5,141,71,109,130.085
"APO6KZZ79PO9Q","rensink","Dinner",9,0.837903944592942,4,"movement","rensink",262,211,396,382,22914,0.0654686,6.54686,19346,0.0552743,5.52743,0.844287,84.4287,332,290,18,40,43.8634
"APO6KZZ79PO9Q","rensink","Diver",23,0.952404939577024,4,"color","rensink",68,279.5,248,452.5,31140,0.0891497,8.91497,17605,0.0504008,5.04008,0.56535,56.535,154,364.5,196,115,227.247
"APO6KZZ79PO9Q","rensink","FarmByPond",19,0.842609239610562,3,"movement","rensink",-1.5,323.5,358.5,502.5,64440,0.184747,18.4747,55725,0.159762,15.9762,0.864758,86.4758,164.5,413.5,185,164,247.227
"APO6KZZ79PO9Q","rensink","Fishing",16,0.850462432761517,1,"movement","rensink",87,248,419,418,56440,0.161257,16.1257,36891,0.105403,10.5403,0.653632,65.3632,232,343,118,93,150.243
"APO6KZZ79PO9Q","rensink","Floatplane",7,0.961136217387225,5,"color","rensink",77,241,488,385,59184,0.169097,16.9097,11329,0.0323686,3.23686,0.19142,19.142,273.5,326.25,76.5,76.25,108.011
"APO6KZZ79PO9Q","rensink","Harbor",26,0.840231594958109,5,"color","rensink",320,265,534,362,20758,0.0594785,5.94785,10086,0.0288997,2.88997,0.485885,48.5885,416,320,67,70,96.8969
"APO6KZZ79PO9Q","rensink","Horizon",17,1.41052417258619,1,"movement","rensink",202,41,455,97,14168,0.04048,4.048,12230,0.0349429,3.49429,0.863213,86.3213,328,69,22,181,182.332
"APO6KZZ79PO9Q","rensink","Ice",31,0.976854146576219,5,"disappear","rensink",1,223.5,153,273.5,7600,0.0216709,2.16709,5449,0.0155375,1.55375,0.716974,71.6974,79,248.5,271,2,271.007
"APO6KZZ79PO9Q","rensink","Kayaker",6,1.24301323114968,5,"disappear","rensink",366.5,68,463.5,217,14453,0.0412354,4.12354,10059,0.028699,2.8699,0.69598,69.598,418.5,135,68,115,133.6
"APO6KZZ79PO9Q","rensink","Kids",22,1.04547945311078,4,"color","rensink",12.5,153,215.5,462,62727,0.179476,17.9476,42832,0.122552,12.2552,0.682832,68.2832,104.5,332,245,82,258.358
"APO6KZZ79PO9Q","rensink","Lake",14,0.849173633098827,5,"disappear","rensink",433.5,201,559.5,412,26586,0.0758516,7.58516,19929,0.0568588,5.68588,0.749605,74.9605,484.5,308,134,58,146.014
"APO6KZZ79PO9Q","rensink","Marling",27,0.953856298224986,5,"disappear","rensink",199,377,331,502,16500,0.0471429,4.71429,13466,0.0384743,3.84743,0.816121,81.6121,265,443,85,193,210.889
"APO6KZZ79PO9Q","rensink","NotreDame",28,0.854063011866421,1,"movement","rensink",182.5,8.5,490.5,252.5,75152,0.215458,21.5458,64577,0.18514,18.514,0.859285,85.9285,332.5,131.5,17,118,119.218
"APO6KZZ79PO9Q","rensink","Nurses",18,0.953082843912086,1,"color","rensink",486.5,-1,702.5,393,85104,0.243502,24.3502,58420,0.167153,16.7153,0.686454,68.6454,618.5,158,269,92,284.297
"APO6KZZ79PO9Q","rensink","Obelisk",21,0.827239999505646,5,"disappear","rensink",519,194,684,313,19635,0.0561,5.61,16595,0.0474143,4.74143,0.845174,84.5174,602,253,252,3,252.018
"APO6KZZ79PO9Q","rensink","OtherDiver",24,1.18565545892022,1,"movement","rensink",475,221.5,703,400.5,40812,0.116839,11.6839,34605,0.0990696,9.90696,0.847912,84.7912,595,311.5,245,62,252.723
