"workerId","assignmentId","hitId","database","image","unmod_image_splash","mod_image","mod_image_splash","expTimer","response","trial_number","rt","x","y","click_acc","rt_s","log_rt","outliers","removed_RT"
"A120URYFNZAZYW",NA,NA,"ma","12178414","ma_12178414-as","ma_12178414-b","ma_12178414-bs",50.611,-1,3,5196,295,199,"1",5.196,0.71566914240099,0,0.71566914240099
"A120URYFNZAZYW",NA,NA,"ma","75081153","ma_75081153-as","ma_75081153-b","ma_75081153-bs",56.322,-1,4,5318,209,371,"1",5.318,0.725748332995548,0,0.725748332995548
"A120URYFNZAZYW",NA,NA,"ma","97475929","ma_97475929-as","ma_97475929-b","ma_97475929-bs",62.649,-1,5,4832,373,391,"1",4.832,0.684126925613075,0,0.684126925613075
"A120URYFNZAZYW",NA,NA,"ma","89354846","ma_89354846-as","ma_89354846-b","ma_89354846-bs",68.541,-1,6,4970,360,232,"1",4.97,0.696356388733332,0,0.696356388733332
"A120URYFNZAZYW",NA,NA,"ma","18169626","ma_18169626-as","ma_18169626-b","ma_18169626-bs",73.749,-1,7,4864,349,295,"1",4.864,0.686993566264679,0,0.686993566264679
"A120URYFNZAZYW",NA,NA,"ma","83785171","ma_83785171-as","ma_83785171-b","ma_83785171-bs",79.553,-1,8,5049,356,314,"1",5.049,0.703205370695486,0,0.703205370695486
"A120URYFNZAZYW",NA,NA,"ma","79222679","ma_79222679-as","ma_79222679-b","ma_79222679-bs",84.921,-1,9,4836,518,197,"1",4.836,0.684486292188734,0,0.684486292188734
"A120URYFNZAZYW",NA,NA,"ma","72488522","ma_72488522-as","ma_72488522-b","ma_72488522-bs",90.214,-1,10,4869,375,271,"1",4.869,0.687439774545894,0,0.687439774545894
"A120URYFNZAZYW",NA,NA,"ma","61118260","ma_61118260-as","ma_61118260-b","ma_61118260-bs",95.756,-1,11,4737,570,230,"1",4.737,0.675503384727957,0,0.675503384727957
"A120URYFNZAZYW",NA,NA,"ma","83536470","ma_83536470-as","ma_83536470-b","ma_83536470-bs",101.157,-1,12,4612,196,199,"1",4.612,0.663889298622661,0,0.663889298622661
"A120URYFNZAZYW",NA,NA,"ma","8197559","ma_8197559-as","ma_8197559-b","ma_8197559-bs",107.141,-1,13,4804,292,377,"1",4.804,0.681602998730868,0,0.681602998730868
"A120URYFNZAZYW",NA,NA,"ma","3099758","ma_3099758-as","ma_3099758-b","ma_3099758-bs",112.364,-1,14,4788,338,392,"1",4.788,0.680154141734373,0,0.680154141734373
"A120URYFNZAZYW",NA,NA,"ma","77793328","ma_77793328-as","ma_77793328-b","ma_77793328-bs",118.377,-1,15,5639,550,296,"1",5.639,0.751202094588353,0,0.751202094588353
"A120URYFNZAZYW",NA,NA,"ma","77574131","ma_77574131-as","ma_77574131-b","ma_77574131-bs",123.8,-1,16,4761,67,115,"1",4.761,0.677698181474511,0,0.677698181474511
"A120URYFNZAZYW",NA,NA,"ma","38546029","ma_38546029-as","ma_38546029-b","ma_38546029-bs",129.273,-1,17,4843,349,415,"1",4.843,0.685114469046539,0,0.685114469046539
"A120URYFNZAZYW",NA,NA,"ma","4247084","ma_4247084-as","ma_4247084-b","ma_4247084-bs",134.886,-1,18,4739,219,54,"1",4.739,0.675686708699401,0,0.675686708699401
"A120URYFNZAZYW",NA,NA,"ma","74173745","ma_74173745-as","ma_74173745-b","ma_74173745-bs",140.472,-1,19,4824,371,402,"1",4.824,0.683407299132095,0,0.683407299132095
"A120URYFNZAZYW",NA,NA,"ma","55174490","ma_55174490-as","ma_55174490-b","ma_55174490-bs",145.871,-1,20,4685,487,300,"1",4.685,0.670709595223797,0,0.670709595223797
"A120URYFNZAZYW",NA,NA,"ma","24383097","ma_24383097-as","ma_24383097-b","ma_24383097-bs",151.123,-1,21,4647,142,124,"1",4.647,0.667172672478868,0,0.667172672478868
"A120URYFNZAZYW",NA,NA,"ma","31236119","ma_31236119-as","ma_31236119-b","ma_31236119-bs",156.496,-1,22,4741,462,58,"1",4.741,0.675869955318957,0,0.675869955318957
"A120URYFNZAZYW",NA,NA,"ma","57861456","ma_57861456-as","ma_57861456-b","ma_57861456-bs",161.578,-1,23,4600,303,148,"1",4.6,0.662757831681574,0,0.662757831681574
"A120URYFNZAZYW",NA,NA,"ma","1191801","ma_1191801-as","ma_1191801-b","ma_1191801-bs",166.674,-1,24,4687,226,147,"1",4.687,0.67089495352021,0,0.67089495352021
"A120URYFNZAZYW",NA,NA,"ma","18345691","ma_18345691-as","ma_18345691-b","ma_18345691-bs",172.003,-1,25,4727,299,57,"1",4.727,0.674585602302914,0,0.674585602302914
"A120URYFNZAZYW",NA,NA,"ma","46475259","ma_46475259-as","ma_46475259-b","ma_46475259-bs",177.507,-1,26,4983,410,470,"1",4.983,0.697490887171057,0,0.697490887171057
"A120URYFNZAZYW",NA,NA,"ma","44993860","ma_44993860-as","ma_44993860-b","ma_44993860-bs",182.685,-1,27,4823,530,329,"1",4.823,0.683317261921883,0,0.683317261921883
"A120URYFNZAZYW",NA,NA,"ma","79241011","ma_79241011-as","ma_79241011-b","ma_79241011-bs",187.99,-1,28,4815,513,228,"1",4.815,0.682596291460553,0,0.682596291460553
"A120URYFNZAZYW",NA,NA,"ma","51856108","ma_51856108-as","ma_51856108-b","ma_51856108-bs",193.182,-1,29,4799,98,204,"1",4.799,0.681150749932421,0,0.681150749932421
"A120URYFNZAZYW",NA,NA,"ma","83691215","ma_83691215-as","ma_83691215-b","ma_83691215-bs",205.744,-1,31,4731,357,242,"1",4.731,0.674952948048565,0,0.674952948048565
"A120URYFNZAZYW",NA,NA,"ma","95091295","ma_95091295-as","ma_95091295-b","ma_95091295-bs",211.386,-1,32,4735,216,144,"1",4.735,0.675319983339292,0,0.675319983339292
"A12HWPFXQPITHD",NA,NA,"ma","61118260","ma_61118260-as","ma_61118260-b","ma_61118260-bs",97.6,-1,8,6823,554,227,"1",6.823,0.833975371279906,0,0.833975371279906
"A12HWPFXQPITHD",NA,NA,"ma","24383097","ma_24383097-as","ma_24383097-b","ma_24383097-bs",124.303,-1,11,6648,125,70,"1",6.648,0.822691010776055,0,0.822691010776055
"A12HWPFXQPITHD",NA,NA,"ma","51856108","ma_51856108-as","ma_51856108-b","ma_51856108-bs",132.023,-1,12,6647,83,200,"1",6.647,0.822625678774141,0,0.822625678774141
"A12HWPFXQPITHD",NA,NA,"ma","48486405","ma_48486405-as","ma_48486405-b","ma_48486405-bs",139.759,-1,13,6799,270,349,"1",6.799,0.832445041174111,0,0.832445041174111
"A12HWPFXQPITHD",NA,NA,"ma","88767165","ma_88767165-as","ma_88767165-b","ma_88767165-bs",147.583,-1,14,6943,461,398,"1",6.943,0.841547165256553,0,0.841547165256553
"A12HWPFXQPITHD",NA,NA,"ma","45525109","ma_45525109-as","ma_45525109-b","ma_45525109-bs",155.455,-1,15,6816,217,301,"1",6.816,0.833529581758644,0,0.833529581758644
"A12HWPFXQPITHD",NA,NA,"ma","56835136","ma_56835136-as","ma_56835136-b","ma_56835136-bs",163.207,-1,16,6751,565,341,"1",6.751,0.82936810798882,0,0.82936810798882
"A12HWPFXQPITHD",NA,NA,"ma","23199105","ma_23199105-as","ma_23199105-b","ma_23199105-bs",170.783,-1,17,6751,540,73,"1",6.751,0.82936810798882,0,0.82936810798882
"A12HWPFXQPITHD",NA,NA,"ma","62096551","ma_62096551-as","ma_62096551-b","ma_62096551-bs",178.168,-1,18,6975,616,89,"1",6.975,0.843544211945635,0,0.843544211945635
"A12HWPFXQPITHD",NA,NA,"ma","90405028","ma_90405028-as","ma_90405028-b","ma_90405028-bs",185.767,-1,19,6663,335,355,"1",6.663,0.823669813268136,0,0.823669813268136
"A12HWPFXQPITHD",NA,NA,"ma","25107991","ma_25107991-as","ma_25107991-b","ma_25107991-bs",193.279,-1,20,6887,343,170,"1",6.887,0.83803008298532,0,0.83803008298532
"A12HWPFXQPITHD",NA,NA,"ma","70687495","ma_70687495-as","ma_70687495-b","ma_70687495-bs",208.607,-1,22,6671,411,273,"1",6.671,0.824190940652583,0,0.824190940652583
"A12HWPFXQPITHD",NA,NA,"ma","16527526","ma_16527526-as","ma_16527526-b","ma_16527526-bs",231.471,-1,25,6664,559,351,"1",6.664,0.823734988398731,0,0.823734988398731
"A12HWPFXQPITHD",NA,NA,"ma","1383096","ma_1383096-as","ma_1383096-b","ma_1383096-bs",246.751,-1,27,6832,458,48,"1",6.832,0.834547857680949,0,0.834547857680949
"A12HWPFXQPITHD",NA,NA,"ma","4247084","ma_4247084-as","ma_4247084-b","ma_4247084-bs",262.031,-1,29,6744,234,32,"1",6.744,0.828917561616686,0,0.828917561616686
"A12HWPFXQPITHD",NA,NA,"ma","79191795","ma_79191795-as","ma_79191795-b","ma_79191795-bs",277.839,-1,31,6712,387,48,"1",6.712,0.826851947820644,0,0.826851947820644
"A12HWPFXQPITHD",NA,NA,"ma","83691215","ma_83691215-as","ma_83691215-b","ma_83691215-bs",285.087,-1,32,6727,355,244,"1",6.727,0.827821427682802,0,0.827821427682802
"A171UXH8M8F6HS",NA,NA,"ma","12115280","ma_12115280-as","ma_12115280-b","ma_12115280-bs",52.053,-1,3,8955,406,222,"1",8.955,0.95206559018505,0,0.95206559018505
"A171UXH8M8F6HS",NA,NA,"ma","95091295","ma_95091295-as","ma_95091295-b","ma_95091295-bs",59.972,-1,4,7002,227,164,"1",7.002,0.845222106429014,0,0.845222106429014
"A171UXH8M8F6HS",NA,NA,"ma","77574131","ma_77574131-as","ma_77574131-b","ma_77574131-bs",91.607,-1,7,5460,62,101,"1",5.46,0.737192642704737,0,0.737192642704737
"A171UXH8M8F6HS",NA,NA,"ma","55174490","ma_55174490-as","ma_55174490-b","ma_55174490-bs",97.835,-1,8,5491,493,271,"1",5.491,0.739651443709377,0,0.739651443709377
"A171UXH8M8F6HS",NA,NA,"ma","3099758","ma_3099758-as","ma_3099758-b","ma_3099758-bs",107.617,-1,9,8723,363,412,"1",8.723,0.940665872475829,0,0.940665872475829
"A171UXH8M8F6HS",NA,NA,"ma","61118260","ma_61118260-as","ma_61118260-b","ma_61118260-bs",115.783,-1,10,7035,566,231,"1",7.035,0.847264101770764,0,0.847264101770764
"A171UXH8M8F6HS",NA,NA,"ma","79241011","ma_79241011-as","ma_79241011-b","ma_79241011-bs",121.972,-1,11,5093,583,214,"1",5.093,0.706973676176178,0,0.706973676176178
"A171UXH8M8F6HS",NA,NA,"ma","97475929","ma_97475929-as","ma_97475929-b","ma_97475929-bs",127.903,-1,12,4913,367,396,"1",4.913,0.691346764134822,0,0.691346764134822
"A171UXH8M8F6HS",NA,NA,"ma","42429798","ma_42429798-as","ma_42429798-b","ma_42429798-bs",133.941,-1,13,4878,359,268,"1",4.878,0.688241795977712,0,0.688241795977712
"A171UXH8M8F6HS",NA,NA,"ma","18345691","ma_18345691-as","ma_18345691-b","ma_18345691-bs",139.791,-1,14,5054,303,71,"1",5.054,0.703635237583896,0,0.703635237583896
"A171UXH8M8F6HS",NA,NA,"ma","51537628","ma_51537628-as","ma_51537628-b","ma_51537628-bs",145.665,-1,15,4829,513,224,"1",4.829,0.683857205400346,0,0.683857205400346
"A171UXH8M8F6HS",NA,NA,"ma","16527526","ma_16527526-as","ma_16527526-b","ma_16527526-bs",151.368,-1,16,4791,570,290,"1",4.791,0.680426170858145,0,0.680426170858145
"A171UXH8M8F6HS",NA,NA,"ma","90405028","ma_90405028-as","ma_90405028-b","ma_90405028-bs",157.128,-1,17,4747,332,354,"1",4.747,0.67641923171836,0,0.67641923171836
"A171UXH8M8F6HS",NA,NA,"ma","25107991","ma_25107991-as","ma_25107991-b","ma_25107991-bs",165.499,-1,18,7115,345,167,"1",7.115,0.852174904420303,0,0.852174904420303
"A171UXH8M8F6HS",NA,NA,"ma","38546029","ma_38546029-as","ma_38546029-b","ma_38546029-bs",171.462,-1,19,4825,357,417,"1",4.825,0.683497317679811,0,0.683497317679811
"A171UXH8M8F6HS",NA,NA,"ma","23024660","ma_23024660-as","ma_23024660-b","ma_23024660-bs",177.649,-1,20,4869,386,218,"1",4.869,0.687439774545894,0,0.687439774545894
"A171UXH8M8F6HS",NA,NA,"ma","62096551","ma_62096551-as","ma_62096551-b","ma_62096551-bs",183.656,-1,21,4747,610,86,"1",4.747,0.67641923171836,0,0.67641923171836
"A171UXH8M8F6HS",NA,NA,"ma","51856108","ma_51856108-as","ma_51856108-b","ma_51856108-bs",189.171,-1,22,4702,87,178,"1",4.702,0.672282624788921,0,0.672282624788921
"A171UXH8M8F6HS",NA,NA,"ma","12178414","ma_12178414-as","ma_12178414-b","ma_12178414-bs",195.301,-1,23,4811,318,194,"1",4.811,0.682235356902564,0,0.682235356902564
"A171UXH8M8F6HS",NA,NA,"ma","1191801","ma_1191801-as","ma_1191801-b","ma_1191801-bs",201.061,-1,24,4793,231,148,"1",4.793,0.680607428991788,0,0.680607428991788
"A171UXH8M8F6HS",NA,NA,"ma","89354846","ma_89354846-as","ma_89354846-b","ma_89354846-bs",206.853,-1,25,4745,353,232,"1",4.745,0.676236216763311,0,0.676236216763311
"A171UXH8M8F6HS",NA,NA,"ma","77345858","ma_77345858-as","ma_77345858-b","ma_77345858-bs",213.041,-1,26,4729,327,364,"1",4.729,0.674769314015426,0,0.674769314015426
"A171UXH8M8F6HS",NA,NA,"ma","56835136","ma_56835136-as","ma_56835136-b","ma_56835136-bs",218.779,-1,27,4733,568,354,"1",4.733,0.675136504467994,0,0.675136504467994
"A171UXH8M8F6HS",NA,NA,"ma","31236119","ma_31236119-as","ma_31236119-b","ma_31236119-bs",224.496,-1,28,4716,474,60,"1",4.716,0.673573796423052,0,0.673573796423052
"A171UXH8M8F6HS",NA,NA,"ma","8197559","ma_8197559-as","ma_8197559-b","ma_8197559-bs",230.153,-1,29,4741,318,377,"1",4.741,0.675869955318957,0,0.675869955318957
"A171UXH8M8F6HS",NA,NA,"ma","10810329","ma_10810329-as","ma_10810329-b","ma_10810329-bs",235.722,-1,30,4724,205,285,"1",4.724,0.674309888941477,0,0.674309888941477
"A171UXH8M8F6HS",NA,NA,"ma","79573638","ma_79573638-as","ma_79573638-b","ma_79573638-bs",241.156,-1,31,4668,302,149,"1",4.668,0.669130847373333,0,0.669130847373333
"A171UXH8M8F6HS",NA,NA,"ma","10504629","ma_10504629-as","ma_10504629-b","ma_10504629-bs",246.375,-1,32,4666,93,273,"1",4.666,0.668944734457734,0,0.668944734457734
"A17EGKHBDGUDY3",NA,NA,"ma","83785171","ma_83785171-as","ma_83785171-b","ma_83785171-bs",54.72,-1,3,11281,382,303,"1",11.281,1.05234759922466,0,1.05234759922466
"A17EGKHBDGUDY3",NA,NA,"ma","10810329","ma_10810329-as","ma_10810329-b","ma_10810329-bs",64.908,-1,4,9084,211,297,"1",9.084,0.958277125547698,0,0.958277125547698
"A17EGKHBDGUDY3",NA,NA,"ma","89354846","ma_89354846-as","ma_89354846-b","ma_89354846-bs",102.64,-1,6,25948,358,230,"1",25.948,1.41410388925819,0,1.41410388925819
"A17EGKHBDGUDY3",NA,NA,"ma","75081153","ma_75081153-as","ma_75081153-b","ma_75081153-bs",112.478,-1,7,8794,200,390,"1",8.794,0.944186461283687,0,0.944186461283687
"A17EGKHBDGUDY3",NA,NA,"ma","88767165","ma_88767165-as","ma_88767165-b","ma_88767165-bs",130.794,-1,8,17120,444,403,"1",17.12,1.23350376034113,0,1.23350376034113
"A17EGKHBDGUDY3",NA,NA,"ma","24383097","ma_24383097-as","ma_24383097-b","ma_24383097-bs",138.57,-1,9,6730,153,137,"1",6.73,0.828015064223977,0,0.828015064223977
"A17EGKHBDGUDY3",NA,NA,"ma","97475929","ma_97475929-as","ma_97475929-b","ma_97475929-bs",162.335,-1,11,15163,385,396,"1",15.163,1.18078513497344,0,1.18078513497344
"A17EGKHBDGUDY3",NA,NA,"ma","83536470","ma_83536470-as","ma_83536470-b","ma_83536470-bs",170.135,-1,12,6750,206,199,"1",6.75,0.829303772831025,0,0.829303772831025
"A17EGKHBDGUDY3",NA,NA,"ma","38546029","ma_38546029-as","ma_38546029-b","ma_38546029-bs",192.837,-1,13,21671,357,417,"1",21.671,1.33587895213484,0,1.33587895213484
"A17EGKHBDGUDY3",NA,NA,"ma","22020472","ma_22020472-as","ma_22020472-b","ma_22020472-bs",202.763,-1,14,8867,606,292,"1",8.867,0.947776708464738,0,0.947776708464738
"A17EGKHBDGUDY3",NA,NA,"ma","13141692","ma_13141692-as","ma_13141692-b","ma_13141692-bs",214.619,-1,15,10564,573,384,"1",10.564,1.02382839253489,0,1.02382839253489
"A17EGKHBDGUDY3",NA,NA,"ma","87983207","ma_87983207-as","ma_87983207-b","ma_87983207-bs",225.005,-1,16,9034,45,253,"1",9.034,0.955880086225375,0,0.955880086225375
"A17EGKHBDGUDY3",NA,NA,"ma","3099758","ma_3099758-as","ma_3099758-b","ma_3099758-bs",236.551,-1,17,10584,326,421,"1",10.584,1.02464983117944,0,1.02464983117944
"A17EGKHBDGUDY3",NA,NA,"ma","62224663","ma_62224663-as","ma_62224663-b","ma_62224663-bs",254.851,-1,18,17310,461,217,"1",17.31,1.23829706787539,0,1.23829706787539
"A17EGKHBDGUDY3",NA,NA,"ma","85741618","ma_85741618-as","ma_85741618-b","ma_85741618-bs",264.586,-1,19,8634,205,159,"1",8.634,0.936212044320249,0,0.936212044320249
"A17EGKHBDGUDY3",NA,NA,"ma","10504629","ma_10504629-as","ma_10504629-b","ma_10504629-bs",272.268,-1,20,6809,61,212,"1",6.809,0.833083334178343,0,0.833083334178343
"A17EGKHBDGUDY3",NA,NA,"ma","12115280","ma_12115280-as","ma_12115280-b","ma_12115280-bs",282.17,-1,21,8674,401,222,"1",8.674,0.938219417812743,0,0.938219417812743
"A17EGKHBDGUDY3",NA,NA,"ma","13873251","ma_13873251-as","ma_13873251-b","ma_13873251-bs",291.996,-1,22,8636,79,312,"1",8.636,0.936312633662193,0,0.936312633662193
"A17EGKHBDGUDY3",NA,NA,"ma","77574131","ma_77574131-as","ma_77574131-b","ma_77574131-bs",310.271,-1,23,17095,63,104,"1",17.095,1.23286910513261,0,1.23286910513261
"A17EGKHBDGUDY3",NA,NA,"ma","61118260","ma_61118260-as","ma_61118260-b","ma_61118260-bs",318.592,-1,24,6969,575,231,"1",6.969,0.843170464519898,0,0.843170464519898
"A17EGKHBDGUDY3",NA,NA,"ma","38466626","ma_38466626-as","ma_38466626-b","ma_38466626-bs",326.467,-1,25,6781,385,447,"1",6.781,0.83129374437701,0,0.83129374437701
"A17EGKHBDGUDY3",NA,NA,"ma","95091295","ma_95091295-as","ma_95091295-b","ma_95091295-bs",338.195,-1,26,10824,228,152,"1",10.824,1.03438778358957,0,1.03438778358957
"A17EGKHBDGUDY3",NA,NA,"ma","18345691","ma_18345691-as","ma_18345691-b","ma_18345691-bs",347.962,-1,27,8629,278,55,"1",8.629,0.935960468989166,0,0.935960468989166
"A17EGKHBDGUDY3",NA,NA,"ma","27857618","ma_27857618-as","ma_27857618-b","ma_27857618-bs",355.73,-1,28,6784,261,98,"1",6.784,0.831485839248657,0,0.831485839248657
"A17EGKHBDGUDY3",NA,NA,"ma","42429798","ma_42429798-as","ma_42429798-b","ma_42429798-bs",363.53,-1,29,6562,350,280,"1",6.562,0.817036226050029,0,0.817036226050029
"A17EGKHBDGUDY3",NA,NA,"ma","46635293","ma_46635293-as","ma_46635293-b","ma_46635293-bs",373.323,-1,30,8956,207,402,"1",8.956,0.952114084906993,0,0.952114084906993
"A17EGKHBDGUDY3",NA,NA,"ma","51537628","ma_51537628-as","ma_51537628-b","ma_51537628-bs",381.11,-1,31,6803,523,221,"1",6.803,0.832700470960567,0,0.832700470960567
"A17EGKHBDGUDY3",NA,NA,"ma","57861456","ma_57861456-as","ma_57861456-b","ma_57861456-bs",388.762,-1,32,6595,321,136,"1",6.595,0.819214799882384,0,0.819214799882384
"A18CTR5TVQEXQB",NA,NA,"ma","51856108","ma_51856108-as","ma_51856108-b","ma_51856108-bs",130.533,-1,6,6887,66,188,"1",6.887,0.83803008298532,0,0.83803008298532
"A18CTR5TVQEXQB",NA,NA,"ma","83536470","ma_83536470-as","ma_83536470-b","ma_83536470-bs",146.841,-1,8,6964,194,201,"1",6.964,0.842858762445294,0,0.842858762445294
"A18CTR5TVQEXQB",NA,NA,"ma","73637203","ma_73637203-as","ma_73637203-b","ma_73637203-bs",154.484,-1,9,6852,189,59,"1",6.852,0.835817354293473,0,0.835817354293473
"A18CTR5TVQEXQB",NA,NA,"ma","31236119","ma_31236119-as","ma_31236119-b","ma_31236119-bs",169.833,-1,11,6759,485,57,"1",6.759,0.829882446443493,0,0.829882446443493
"A18CTR5TVQEXQB",NA,NA,"ma","77793328","ma_77793328-as","ma_77793328-b","ma_77793328-bs",177.516,-1,12,7271,565,281,"1",7.271,0.861594144643865,0,0.861594144643865
"A18CTR5TVQEXQB",NA,NA,"ma","88767165","ma_88767165-as","ma_88767165-b","ma_88767165-bs",185.307,-1,13,6616,434,398,"1",6.616,0.82059549654449,0,0.82059549654449
"A18CTR5TVQEXQB",NA,NA,"ma","13141692","ma_13141692-as","ma_13141692-b","ma_13141692-bs",212.809,-1,16,9171,564,387,"1",9.171,0.962416693445751,0,0.962416693445751
"A18CTR5TVQEXQB",NA,NA,"ma","18169626","ma_18169626-as","ma_18169626-b","ma_18169626-bs",220.531,-1,17,6830,386,285,"1",6.83,0.834420703681533,0,0.834420703681533
"A18CTR5TVQEXQB",NA,NA,"ma","24383097","ma_24383097-as","ma_24383097-b","ma_24383097-bs",228.841,-1,18,7894,132,132,"1",7.894,0.897297122059497,0,0.897297122059497
"A18CTR5TVQEXQB",NA,NA,"ma","1191801","ma_1191801-as","ma_1191801-b","ma_1191801-bs",236.751,-1,19,6781,231,152,"1",6.781,0.83129374437701,0,0.83129374437701
"A18CTR5TVQEXQB",NA,NA,"ma","79241011","ma_79241011-as","ma_79241011-b","ma_79241011-bs",251.675,-1,21,6632,536,157,"1",6.632,0.821644517542217,0,0.821644517542217
"A18CTR5TVQEXQB",NA,NA,"ma","83691215","ma_83691215-as","ma_83691215-b","ma_83691215-bs",259.059,-1,22,6720,350,225,"1",6.72,0.827369273053825,0,0.827369273053825
"A18CTR5TVQEXQB",NA,NA,"ma","27857618","ma_27857618-as","ma_27857618-b","ma_27857618-bs",266.334,-1,23,6663,281,78,"1",6.663,0.823669813268136,0,0.823669813268136
"A18CTR5TVQEXQB",NA,NA,"ma","10504629","ma_10504629-as","ma_10504629-b","ma_10504629-bs",273.522,-1,24,6615,62,272,"1",6.615,0.82052984852352,0,0.82052984852352
"A18CTR5TVQEXQB",NA,NA,"ma","1383096","ma_1383096-as","ma_1383096-b","ma_1383096-bs",280.78,-1,25,6762,462,55,"1",6.762,0.83007516642975,0,0.83007516642975
"A18CTR5TVQEXQB",NA,NA,"ma","32289063","ma_32289063-as","ma_32289063-b","ma_32289063-bs",288.634,-1,26,6648,331,314,"1",6.648,0.822691010776055,0,0.822691010776055
"A18CTR5TVQEXQB",NA,NA,"ma","45525109","ma_45525109-as","ma_45525109-b","ma_45525109-bs",296.34,-1,27,6587,213,299,"1",6.587,0.818687663441514,0,0.818687663441514
"A18CTR5TVQEXQB",NA,NA,"ma","77574131","ma_77574131-as","ma_77574131-b","ma_77574131-bs",311.886,-1,29,6660,62,76,"1",6.66,0.823474229170301,0,0.823474229170301
"A18CTR5TVQEXQB",NA,NA,"ma","22020472","ma_22020472-as","ma_22020472-b","ma_22020472-bs",319.378,-1,30,6611,620,296,"1",6.611,0.820267157160965,0,0.820267157160965
"A18CTR5TVQEXQB",NA,NA,"ma","56835136","ma_56835136-as","ma_56835136-b","ma_56835136-bs",326.888,-1,31,6629,574,347,"1",6.629,0.82144801901753,0,0.82144801901753
"A18CTR5TVQEXQB",NA,NA,"ma","12115280","ma_12115280-as","ma_12115280-b","ma_12115280-bs",334.806,-1,32,6583,411,213,"1",6.583,0.818423855092079,0,0.818423855092079
"A1969Q0R4Y0E3J",NA,NA,"ma","18169626","ma_18169626-as","ma_18169626-b","ma_18169626-bs",80.028,-1,3,22531,355,225,"1",22.531,1.35278046757133,0,1.35278046757133
"A1969Q0R4Y0E3J",NA,NA,"ma","45525109","ma_45525109-as","ma_45525109-b","ma_45525109-bs",90.921,-1,4,9713,220,300,"1",9.713,0.987353388735794,0,0.987353388735794
"A1969Q0R4Y0E3J",NA,NA,"ma","32289063","ma_32289063-as","ma_32289063-b","ma_32289063-bs",108.011,-1,5,15105,324,320,"1",15.105,1.1791207296093,0,1.1791207296093
"A1969Q0R4Y0E3J",NA,NA,"ma","4247084","ma_4247084-as","ma_4247084-b","ma_4247084-bs",123.435,-1,6,13264,232,40,"1",13.264,1.1226745132062,0,1.1226745132062
"A1969Q0R4Y0E3J",NA,NA,"ma","22020472","ma_22020472-as","ma_22020472-b","ma_22020472-bs",134.798,-1,7,9311,583,292,"1",9.311,0.968996326648312,0,0.968996326648312
"A1969Q0R4Y0E3J",NA,NA,"ma","25107991","ma_25107991-as","ma_25107991-b","ma_25107991-bs",144.25,-1,8,7379,329,165,"1",7.379,0.867997510344951,0,0.867997510344951
"A1969Q0R4Y0E3J",NA,NA,"ma","48486405","ma_48486405-as","ma_48486405-b","ma_48486405-bs",155.062,-1,9,8963,295,352,"1",8.963,0.952453396423033,0,0.952453396423033
"A1969Q0R4Y0E3J",NA,NA,"ma","38546029","ma_38546029-as","ma_38546029-b","ma_38546029-bs",171.818,-1,10,15173,350,417,"1",15.173,1.18107145782262,0,1.18107145782262
"A1969Q0R4Y0E3J",NA,NA,"ma","23024660","ma_23024660-as","ma_23024660-b","ma_23024660-bs",184.525,-1,11,11160,380,222,"1",11.16,1.04766419460156,0,1.04766419460156
"A1969Q0R4Y0E3J",NA,NA,"ma","23199105","ma_23199105-as","ma_23199105-b","ma_23199105-bs",195.052,-1,12,8896,548,70,"1",8.896,0.949194774237982,0,0.949194774237982
"A1969Q0R4Y0E3J",NA,NA,"ma","31236119","ma_31236119-as","ma_31236119-b","ma_31236119-bs",205.899,-1,13,9074,457,58,"1",9.074,0.957798774929998,0,0.957798774929998
"A1969Q0R4Y0E3J",NA,NA,"ma","1383096","ma_1383096-as","ma_1383096-b","ma_1383096-bs",216.994,-1,14,9098,453,41,"1",9.098,0.958945932493936,0,0.958945932493936
"A1969Q0R4Y0E3J",NA,NA,"ma","44993860","ma_44993860-as","ma_44993860-b","ma_44993860-bs",228.615,-1,15,9266,526,296,"1",9.266,0.966892295867136,0,0.966892295867136
"A1969Q0R4Y0E3J",NA,NA,"ma","10504629","ma_10504629-as","ma_10504629-b","ma_10504629-bs",241.037,-1,16,11090,88,244,"1",11.09,1.04493154614916,0,1.04493154614916
"A1969Q0R4Y0E3J",NA,NA,"ma","46475259","ma_46475259-as","ma_46475259-b","ma_46475259-bs",258.803,-1,17,15261,398,462,"1",15.261,1.18358299235102,0,1.18358299235102
"A1969Q0R4Y0E3J",NA,NA,"ma","18345691","ma_18345691-as","ma_18345691-b","ma_18345691-bs",269.878,-1,18,8934,280,57,"1",8.934,0.95104594813582,0,0.95104594813582
"A1969Q0R4Y0E3J",NA,NA,"ma","13873251","ma_13873251-as","ma_13873251-b","ma_13873251-bs",282.256,-1,19,9492,84,295,"1",9.492,0.977357729545301,0,0.977357729545301
"A1969Q0R4Y0E3J",NA,NA,"ma","12115280","ma_12115280-as","ma_12115280-b","ma_12115280-bs",304.048,-1,20,19932,402,217,"1",19.932,1.29955087849902,0,1.29955087849902
"A1969Q0R4Y0E3J",NA,NA,"ma","3099758","ma_3099758-as","ma_3099758-b","ma_3099758-bs",312.099,-1,21,6935,348,408,"1",6.935,0.841046465409304,0,0.841046465409304
"A1969Q0R4Y0E3J",NA,NA,"ma","13141692","ma_13141692-as","ma_13141692-b","ma_13141692-bs",320.634,-1,22,6987,562,376,"1",6.987,0.844290743254343,0,0.844290743254343
"A1969Q0R4Y0E3J",NA,NA,"ma","24383097","ma_24383097-as","ma_24383097-b","ma_24383097-bs",330.878,-1,23,8725,118,78,"1",8.725,0.940765435631218,0,0.940765435631218
"A1969Q0R4Y0E3J",NA,NA,"ma","10810329","ma_10810329-as","ma_10810329-b","ma_10810329-bs",340.904,-1,24,8706,219,295,"1",8.706,0.939818662821379,0,0.939818662821379
"A1969Q0R4Y0E3J",NA,NA,"ma","27857618","ma_27857618-as","ma_27857618-b","ma_27857618-bs",351.063,-1,25,8801,266,97,"1",8.801,0.944532020991981,0,0.944532020991981
"A1969Q0R4Y0E3J",NA,NA,"ma","1191801","ma_1191801-as","ma_1191801-b","ma_1191801-bs",361.899,-1,26,8854,216,148,"1",8.854,0.947139517642829,0,0.947139517642829
"A1969Q0R4Y0E3J",NA,NA,"ma","38466626","ma_38466626-as","ma_38466626-b","ma_38466626-bs",372.292,-1,27,8514,332,439,"1",8.514,0.930133645841118,0,0.930133645841118
"A1969Q0R4Y0E3J",NA,NA,"ma","46635293","ma_46635293-as","ma_46635293-b","ma_46635293-bs",383.499,-1,28,8934,193,405,"1",8.934,0.95104594813582,0,0.95104594813582
"A1969Q0R4Y0E3J",NA,NA,"ma","48384711","ma_48384711-as","ma_48384711-b","ma_48384711-bs",404.503,-1,29,19833,440,446,"1",19.833,1.29738841188063,0,1.29738841188063
"A1969Q0R4Y0E3J",NA,NA,"ma","16527526","ma_16527526-as","ma_16527526-b","ma_16527526-bs",416.838,-1,30,10783,562,275,"1",10.783,1.03273960520949,0,1.03273960520949
"A1969Q0R4Y0E3J",NA,NA,"ma","12178414","ma_12178414-as","ma_12178414-b","ma_12178414-bs",425.857,-1,31,7062,297,193,"1",7.062,0.848927713227078,0,0.848927713227078
"A1969Q0R4Y0E3J",NA,NA,"ma","42429798","ma_42429798-as","ma_42429798-b","ma_42429798-bs",437.107,-1,32,9035,353,275,"1",9.035,0.955928156896951,0,0.955928156896951
"A19H44LQJ0TEXF",NA,NA,"ma","10504629","ma_10504629-as","ma_10504629-b","ma_10504629-bs",630.86,-1,5,6834,58,202,"1",6.834,0.834674974462744,0,0.834674974462744
"A19H44LQJ0TEXF",NA,NA,"ma","27857618","ma_27857618-as","ma_27857618-b","ma_27857618-bs",638.596,-1,6,6610,279,79,"1",6.61,0.82020145948564,0,0.82020145948564
"A19H44LQJ0TEXF",NA,NA,"ma","22020472","ma_22020472-as","ma_22020472-b","ma_22020472-bs",646.14,-1,7,6488,604,306,"1",6.488,0.8121108412031,0,0.8121108412031
"A19H44LQJ0TEXF",NA,NA,"ma","85741618","ma_85741618-as","ma_85741618-b","ma_85741618-bs",672.652,-1,10,10641,233,131,"1",10.641,1.02698244319161,0,1.02698244319161
"A19H44LQJ0TEXF",NA,NA,"ma","23024660","ma_23024660-as","ma_23024660-b","ma_23024660-bs",680.091,-1,11,6721,377,194,"1",6.721,0.827433895400779,0,0.827433895400779
"A19H44LQJ0TEXF",NA,NA,"ma","95091295","ma_95091295-as","ma_95091295-b","ma_95091295-bs",708.676,-1,13,10237,219,185,"1",10.237,1.01017270328678,0,1.01017270328678
"A19H44LQJ0TEXF",NA,NA,"ma","70687495","ma_70687495-as","ma_70687495-b","ma_70687495-bs",715.973,-1,14,6615,400,285,"1",6.615,0.82052984852352,0,0.82052984852352
"A19H44LQJ0TEXF",NA,NA,"ma","83691215","ma_83691215-as","ma_83691215-b","ma_83691215-bs",723.131,-1,15,6661,369,244,"1",6.661,0.823539433656859,0,0.823539433656859
"A19H44LQJ0TEXF",NA,NA,"ma","83785171","ma_83785171-as","ma_83785171-b","ma_83785171-bs",730.46,-1,16,6504,380,288,"1",6.504,0.813180532586012,0,0.813180532586012
"A19H44LQJ0TEXF",NA,NA,"ma","79222679","ma_79222679-as","ma_79222679-b","ma_79222679-bs",737.843,-1,17,6528,541,161,"1",6.528,0.814780145745805,0,0.814780145745805
"A19H44LQJ0TEXF",NA,NA,"ma","1191801","ma_1191801-as","ma_1191801-b","ma_1191801-bs",745.22,-1,18,6537,230,157,"1",6.537,0.815378484965918,0,0.815378484965918
"A19H44LQJ0TEXF",NA,NA,"ma","75081153","ma_75081153-as","ma_75081153-b","ma_75081153-bs",760.626,-1,20,6528,211,392,"1",6.528,0.814780145745805,0,0.814780145745805
"A19H44LQJ0TEXF",NA,NA,"ma","31236119","ma_31236119-as","ma_31236119-b","ma_31236119-bs",768.267,-1,21,6554,485,70,"1",6.554,0.816506437046357,0,0.816506437046357
"A19H44LQJ0TEXF",NA,NA,"ma","98265889","ma_98265889-as","ma_98265889-b","ma_98265889-bs",775.468,-1,22,6497,440,213,"1",6.497,0.812712866765369,0,0.812712866765369
"A19H44LQJ0TEXF",NA,NA,"ma","79241011","ma_79241011-as","ma_79241011-b","ma_79241011-bs",790.811,-1,24,7291,586,161,"1",7.291,0.862787098235344,0,0.862787098235344
"A19H44LQJ0TEXF",NA,NA,"ma","79191795","ma_79191795-as","ma_79191795-b","ma_79191795-bs",798.124,-1,25,6578,378,58,"1",6.578,0.818093869146636,0,0.818093869146636
"A19H44LQJ0TEXF",NA,NA,"ma","98156944","ma_98156944-as","ma_98156944-b","ma_98156944-bs",807.94,-1,26,8568,35,96,"1",8.568,0.932879457823799,0,0.932879457823799
"A19H44LQJ0TEXF",NA,NA,"ma","18169626","ma_18169626-as","ma_18169626-b","ma_18169626-bs",815.26,-1,27,6568,373,281,"1",6.568,0.817433144111384,0,0.817433144111384
"A19H44LQJ0TEXF",NA,NA,"ma","51856108","ma_51856108-as","ma_51856108-b","ma_51856108-bs",823.149,-1,28,6552,63,185,"1",6.552,0.816373888752362,0,0.816373888752362
"A19H44LQJ0TEXF",NA,NA,"ma","51537628","ma_51537628-as","ma_51537628-b","ma_51537628-bs",838.771,-1,30,7360,515,213,"1",7.36,0.866877814337499,0,0.866877814337499
"A19H44LQJ0TEXF",NA,NA,"ma","8197559","ma_8197559-as","ma_8197559-b","ma_8197559-bs",846.18,-1,31,6658,298,382,"1",6.658,0.823343790820649,0,0.823343790820649
"A19H44LQJ0TEXF",NA,NA,"ma","12178414","ma_12178414-as","ma_12178414-b","ma_12178414-bs",855.821,-1,32,8553,296,193,"1",8.553,0.932118472029122,0,0.932118472029122
"A1CX684F5TEO5W",NA,NA,"ma","48486405","ma_48486405-as","ma_48486405-b","ma_48486405-bs",88.453,-1,3,8578,304,348,"1",8.578,0.933386041903054,0,0.933386041903054
"A1CX684F5TEO5W",NA,NA,"ma","73637203","ma_73637203-as","ma_73637203-b","ma_73637203-bs",97.52,-1,4,8224,190,56,"1",8.224,0.915083101651201,0,0.915083101651201
"A1CX684F5TEO5W",NA,NA,"ma","70687495","ma_70687495-as","ma_70687495-b","ma_70687495-bs",106.019,-1,5,7662,406,292,"1",7.662,0.884342147647059,0,0.884342147647059
"A1CX684F5TEO5W",NA,NA,"ma","10810329","ma_10810329-as","ma_10810329-b","ma_10810329-bs",113.906,-1,6,7338,228,280,"1",7.338,0.865577707419929,0,0.865577707419929
"A1CX684F5TEO5W",NA,NA,"ma","79241011","ma_79241011-as","ma_79241011-b","ma_79241011-bs",121.487,-1,7,7102,565,178,"1",7.102,0.851380667965597,0,0.851380667965597
"A1CX684F5TEO5W",NA,NA,"ma","55174490","ma_55174490-as","ma_55174490-b","ma_55174490-bs",131.137,-1,8,8962,486,307,"1",8.962,0.952404939577024,0,0.952404939577024
"A1CX684F5TEO5W",NA,NA,"ma","44993860","ma_44993860-as","ma_44993860-b","ma_44993860-bs",138.507,-1,9,6754,531,321,"1",6.754,0.829561056299393,0,0.829561056299393
"A1CX684F5TEO5W",NA,NA,"ma","42429798","ma_42429798-as","ma_42429798-b","ma_42429798-bs",154.903,-1,11,6599,348,279,"1",6.599,0.819478128362123,0,0.819478128362123
"A1CX684F5TEO5W",NA,NA,"ma","8974554","ma_8974554-as","ma_8974554-b","ma_8974554-bs",162.784,-1,12,7230,582,286,"1",7.23,0.859138297294531,0,0.859138297294531
"A1CX684F5TEO5W",NA,NA,"ma","48384711","ma_48384711-as","ma_48384711-b","ma_48384711-bs",173.431,-1,13,9280,372,425,"1",9.28,0.967547976218862,0,0.967547976218862
"A1CX684F5TEO5W",NA,NA,"ma","25107991","ma_25107991-as","ma_25107991-b","ma_25107991-bs",181.04,-1,14,6633,338,170,"1",6.633,0.821709997298376,0,0.821709997298376
"A1CX684F5TEO5W",NA,NA,"ma","74173745","ma_74173745-as","ma_74173745-b","ma_74173745-bs",188.652,-1,15,6925,379,404,"1",6.925,0.840419777736486,0,0.840419777736486
"A1CX684F5TEO5W",NA,NA,"ma","46635293","ma_46635293-as","ma_46635293-b","ma_46635293-bs",196.199,-1,16,6610,225,381,"1",6.61,0.82020145948564,0,0.82020145948564
"A1CX684F5TEO5W",NA,NA,"ma","67862299","ma_67862299-as","ma_67862299-b","ma_67862299-bs",203.623,-1,17,6749,101,222,"1",6.749,0.829239428141389,0,0.829239428141389
"A1CX684F5TEO5W",NA,NA,"ma","62224663","ma_62224663-as","ma_62224663-b","ma_62224663-bs",211.682,-1,18,7391,480,217,"1",7.391,0.868703202278537,0,0.868703202278537
"A1CX684F5TEO5W",NA,NA,"ma","10504629","ma_10504629-as","ma_10504629-b","ma_10504629-bs",219.315,-1,19,6726,85,207,"1",6.726,0.827756862978617,0,0.827756862978617
"A1CX684F5TEO5W",NA,NA,"ma","13141692","ma_13141692-as","ma_13141692-b","ma_13141692-bs",226.683,-1,20,6753,568,388,"1",6.753,0.829496749720182,0,0.829496749720182
"A1CX684F5TEO5W",NA,NA,"ma","12178414","ma_12178414-as","ma_12178414-b","ma_12178414-bs",234.124,-1,21,6600,318,194,"1",6.6,0.819543935541869,0,0.819543935541869
"A1CX684F5TEO5W",NA,NA,"ma","79222679","ma_79222679-as","ma_79222679-b","ma_79222679-bs",241.487,-1,22,6948,534,163,"1",6.948,0.841859809775061,0,0.841859809775061
"A1CX684F5TEO5W",NA,NA,"ma","38546029","ma_38546029-as","ma_38546029-b","ma_38546029-bs",250.861,-1,23,8691,356,427,"1",8.691,0.939069749923424,0,0.939069749923424
"A1CX684F5TEO5W",NA,NA,"ma","38466626","ma_38466626-as","ma_38466626-b","ma_38466626-bs",258.324,-1,24,6828,382,444,"1",6.828,0.834293512442696,0,0.834293512442696
"A1CX684F5TEO5W",NA,NA,"ma","72488522","ma_72488522-as","ma_72488522-b","ma_72488522-bs",265.644,-1,25,6585,370,273,"1",6.585,0.818555779297803,0,0.818555779297803
"A1CX684F5TEO5W",NA,NA,"ma","57861456","ma_57861456-as","ma_57861456-b","ma_57861456-bs",273,-1,26,6600,300,124,"1",6.6,0.819543935541869,0,0.819543935541869
"A1CX684F5TEO5W",NA,NA,"ma","16527526","ma_16527526-as","ma_16527526-b","ma_16527526-bs",280.548,-1,27,6972,568,256,"1",6.972,0.843357378437956,0,0.843357378437956
"A1CX684F5TEO5W",NA,NA,"ma","85741618","ma_85741618-as","ma_85741618-b","ma_85741618-bs",296.076,-1,29,7066,250,148,"1",7.066,0.849173633098827,0,0.849173633098827
"A1CX684F5TEO5W",NA,NA,"ma","83785171","ma_83785171-as","ma_83785171-b","ma_83785171-bs",303.802,-1,30,6602,377,316,"1",6.602,0.819675519994293,0,0.819675519994293
"A1CX684F5TEO5W",NA,NA,"ma","62096551","ma_62096551-as","ma_62096551-b","ma_62096551-bs",311.492,-1,31,7071,615,95,"1",7.071,0.849480837243986,0,0.849480837243986
"A1CX684F5TEO5W",NA,NA,"ma","61118260","ma_61118260-as","ma_61118260-b","ma_61118260-bs",321.389,-1,32,9169,570,230,"1",9.169,0.962321972729585,0,0.962321972729585
"A1KHRQ121JTDF6",NA,NA,"ma","51537628","ma_51537628-as","ma_51537628-b","ma_51537628-bs",76.942,-1,5,8469,521,228,"1",8.469,0.927832132866582,0,0.927832132866582
"A1KHRQ121JTDF6",NA,NA,"ma","46635293","ma_46635293-as","ma_46635293-b","ma_46635293-bs",104.592,-1,8,6809,206,403,"1",6.809,0.833083334178343,0,0.833083334178343
"A1KHRQ121JTDF6",NA,NA,"ma","1191801","ma_1191801-as","ma_1191801-b","ma_1191801-bs",134.432,-1,11,10461,233,146,"1",10.461,1.01957320209564,0,1.01957320209564
"A1KHRQ121JTDF6",NA,NA,"ma","27857618","ma_27857618-as","ma_27857618-b","ma_27857618-bs",159.494,-1,13,7341,265,115,"1",7.341,0.865755224071452,0,0.865755224071452
"A1KHRQ121JTDF6",NA,NA,"ma","83785171","ma_83785171-as","ma_83785171-b","ma_83785171-bs",176.135,-1,15,7068,359,317,"1",7.068,0.849296540834726,0,0.849296540834726
"A1KHRQ121JTDF6",NA,NA,"ma","32289063","ma_32289063-as","ma_32289063-b","ma_32289063-bs",197.414,-1,16,11117,329,318,"1",11.117,1.04598760566097,0,1.04598760566097
"A1KHRQ121JTDF6",NA,NA,"ma","18169626","ma_18169626-as","ma_18169626-b","ma_18169626-bs",205.914,-1,17,7486,347,313,"1",7.486,0.874249822778403,0,0.874249822778403
"A1KHRQ121JTDF6",NA,NA,"ma","56835136","ma_56835136-as","ma_56835136-b","ma_56835136-bs",216.455,-1,18,9049,562,352,"1",9.049,0.956600588213177,0,0.956600588213177
"A1KHRQ121JTDF6",NA,NA,"ma","42429798","ma_42429798-as","ma_42429798-b","ma_42429798-bs",249.733,-1,20,6911,364,279,"1",6.911,0.839540892968969,0,0.839540892968969
"A1KHRQ121JTDF6",NA,NA,"ma","98265889","ma_98265889-as","ma_98265889-b","ma_98265889-bs",260.282,-1,21,8815,468,208,"1",8.815,0.945222316635341,0,0.945222316635341
"A1KHRQ121JTDF6",NA,NA,"ma","46475259","ma_46475259-as","ma_46475259-b","ma_46475259-bs",272.63,-1,22,10825,396,464,"1",10.825,1.0344279050254,0,1.0344279050254
"A1KHRQ121JTDF6",NA,NA,"ma","23024660","ma_23024660-as","ma_23024660-b","ma_23024660-bs",280.156,-1,23,6637,386,206,"1",6.637,0.821971817642043,0,0.821971817642043
"A1KHRQ121JTDF6",NA,NA,"ma","89354846","ma_89354846-as","ma_89354846-b","ma_89354846-bs",289.583,-1,24,8775,355,237,"1",8.775,0.943247125137862,0,0.943247125137862
"A1KHRQ121JTDF6",NA,NA,"ma","79241011","ma_79241011-as","ma_79241011-b","ma_79241011-bs",306.522,-1,26,8767,551,222,"1",8.767,0.942851006554337,0,0.942851006554337
"A1KHRQ121JTDF6",NA,NA,"ma","95091295","ma_95091295-as","ma_95091295-b","ma_95091295-bs",313.832,-1,27,6689,217,160,"1",6.689,0.825361195952633,0,0.825361195952633
"A1KHRQ121JTDF6",NA,NA,"ma","55174490","ma_55174490-as","ma_55174490-b","ma_55174490-bs",321.248,-1,28,6667,494,280,"1",6.667,0.823930455125564,0,0.823930455125564
"A1KHRQ121JTDF6",NA,NA,"ma","38546029","ma_38546029-as","ma_38546029-b","ma_38546029-bs",330.654,-1,29,8939,362,421,"1",8.939,0.951288937277672,0,0.951288937277672
"A1KHRQ121JTDF6",NA,NA,"ma","81993755","ma_81993755-as","ma_81993755-b","ma_81993755-bs",338.271,-1,30,6597,414,318,"1",6.597,0.819346484080453,0,0.819346484080453
"A1KHRQ121JTDF6",NA,NA,"ma","44993860","ma_44993860-as","ma_44993860-b","ma_44993860-bs",372.41,-1,32,9802,536,327,"1",9.802,0.991314698176611,0,0.991314698176611
"A1KZ21TSAYUHO4",NA,NA,"ma","73637203","ma_73637203-as","ma_73637203-b","ma_73637203-bs",59.333,-1,3,10863,180,58,"1",10.863,1.03594977953667,0,1.03594977953667
"A1KZ21TSAYUHO4",NA,NA,"ma","69128765","ma_69128765-as","ma_69128765-b","ma_69128765-bs",74.412,-1,4,13136,171,290,"1",13.136,1.11846313977537,0,1.11846313977537
"A1KZ21TSAYUHO4",NA,NA,"ma","13141692","ma_13141692-as","ma_13141692-b","ma_13141692-bs",85.611,-1,5,10112,568,383,"1",10.112,1.00483706093831,0,1.00483706093831
"A1KZ21TSAYUHO4",NA,NA,"ma","10810329","ma_10810329-as","ma_10810329-b","ma_10810329-bs",97.866,-1,6,11448,234,292,"1",11.448,1.05872962075172,0,1.05872962075172
"A1KZ21TSAYUHO4",NA,NA,"ma","46475259","ma_46475259-as","ma_46475259-b","ma_46475259-bs",108.635,-1,7,9626,407,452,"1",9.626,0.98344585734134,0,0.98344585734134
"A1KZ21TSAYUHO4",NA,NA,"ma","8974554","ma_8974554-as","ma_8974554-b","ma_8974554-bs",127.025,-1,8,17670,573,289,"1",17.67,1.24723654950676,0,1.24723654950676
"A1KZ21TSAYUHO4",NA,NA,"ma","12178414","ma_12178414-as","ma_12178414-b","ma_12178414-bs",136.561,-1,9,8847,316,195,"1",8.847,0.946796027271461,0,0.946796027271461
"A1KZ21TSAYUHO4",NA,NA,"ma","87983207","ma_87983207-as","ma_87983207-b","ma_87983207-bs",148.408,-1,10,11166,54,268,"1",11.166,1.04789762351441,0,1.04789762351441
"A1KZ21TSAYUHO4",NA,NA,"ma","77574131","ma_77574131-as","ma_77574131-b","ma_77574131-bs",160.36,-1,11,11286,70,97,"1",11.286,1.05254004593402,0,1.05254004593402
"A1KZ21TSAYUHO4",NA,NA,"ma","90405028","ma_90405028-as","ma_90405028-b","ma_90405028-bs",171.943,-1,12,10967,331,349,"1",10.967,1.04008784346988,0,1.04008784346988
"A1KZ21TSAYUHO4",NA,NA,"ma","23024660","ma_23024660-as","ma_23024660-b","ma_23024660-bs",184.222,-1,13,11629,390,199,"1",11.629,1.06554237051914,0,1.06554237051914
"A1KZ21TSAYUHO4",NA,NA,"ma","74173745","ma_74173745-as","ma_74173745-b","ma_74173745-bs",194.669,-1,14,9774,368,397,"1",9.774,0.990072334692153,0,0.990072334692153
"A1KZ21TSAYUHO4",NA,NA,"ma","89354846","ma_89354846-as","ma_89354846-b","ma_89354846-bs",204.533,-1,15,9177,349,234,"1",9.177,0.962700731704341,0,0.962700731704341
"A1KZ21TSAYUHO4",NA,NA,"ma","48486405","ma_48486405-as","ma_48486405-b","ma_48486405-bs",214.948,-1,16,9744,298,351,"1",9.744,0.9887372752888,0,0.9887372752888
"A1KZ21TSAYUHO4",NA,NA,"ma","67862299","ma_67862299-as","ma_67862299-b","ma_67862299-bs",228.333,-1,17,12817,90,226,"1",12.817,1.10778638431595,0,1.10778638431595
"A1KZ21TSAYUHO4",NA,NA,"ma","8197559","ma_8197559-as","ma_8197559-b","ma_8197559-bs",238.219,-1,18,9159,311,379,"1",9.159,0.961848059018324,0,0.961848059018324
"A1KZ21TSAYUHO4",NA,NA,"ma","62224663","ma_62224663-as","ma_62224663-b","ma_62224663-bs",250.435,-1,19,11682,511,214,"1",11.682,1.06751720190368,0,1.06751720190368
"A1KZ21TSAYUHO4",NA,NA,"ma","83691215","ma_83691215-as","ma_83691215-b","ma_83691215-bs",260.538,-1,20,9481,363,254,"1",9.481,0.976854146576219,0,0.976854146576219
"A1KZ21TSAYUHO4",NA,NA,"ma","75081153","ma_75081153-as","ma_75081153-b","ma_75081153-bs",289.105,-1,21,28055,219,380,"1",28.055,1.44801027303948,0,1.44801027303948
"A1KZ21TSAYUHO4",NA,NA,"ma","86520382","ma_86520382-as","ma_86520382-b","ma_86520382-bs",301.152,-1,22,11449,628,335,"1",11.449,1.05876755537042,0,1.05876755537042
"A1KZ21TSAYUHO4",NA,NA,"ma","51856108","ma_51856108-as","ma_51856108-b","ma_51856108-bs",310.663,-1,23,8967,62,218,"1",8.967,0.952647169758943,0,0.952647169758943
"A1KZ21TSAYUHO4",NA,NA,"ma","1191801","ma_1191801-as","ma_1191801-b","ma_1191801-bs",336.95,-1,24,25745,221,157,"1",25.745,1.41069289616325,0,1.41069289616325
"A1KZ21TSAYUHO4",NA,NA,"ma","61118260","ma_61118260-as","ma_61118260-b","ma_61118260-bs",346.35,-1,25,8880,566,227,"1",8.88,0.948412965778601,0,0.948412965778601
"A1KZ21TSAYUHO4",NA,NA,"ma","12115280","ma_12115280-as","ma_12115280-b","ma_12115280-bs",372.38,-1,26,25496,405,218,"1",25.496,1.40647205046568,0,1.40647205046568
"A1KZ21TSAYUHO4",NA,NA,"ma","13873251","ma_13873251-as","ma_13873251-b","ma_13873251-bs",381.843,-1,27,8936,86,295,"1",8.936,0.951143160107553,0,0.951143160107553
"A1KZ21TSAYUHO4",NA,NA,"ma","75958241","ma_75958241-as","ma_75958241-b","ma_75958241-bs",393.218,-1,28,10889,398,377,"1",10.889,1.03698799780691,0,1.03698799780691
"A1KZ21TSAYUHO4",NA,NA,"ma","95091295","ma_95091295-as","ma_95091295-b","ma_95091295-bs",403.059,-1,29,9249,214,175,"1",9.249,0.966094779446171,0,0.966094779446171
"A1KZ21TSAYUHO4",NA,NA,"ma","77345858","ma_77345858-as","ma_77345858-b","ma_77345858-bs",416.609,-1,30,12962,323,360,"1",12.962,1.11267201711713,0,1.11267201711713
"A1KZ21TSAYUHO4",NA,NA,"ma","77793328","ma_77793328-as","ma_77793328-b","ma_77793328-bs",436.16,-1,32,8881,562,284,"1",8.881,0.948461870061284,0,0.948461870061284
"A1QUBLZCONL4QD",NA,NA,"ma","88767165","ma_88767165-as","ma_88767165-b","ma_88767165-bs",47.092,-1,3,8858,443,407,"1",8.858,0.94733567594874,0,0.94733567594874
"A1QUBLZCONL4QD",NA,NA,"ma","18169626","ma_18169626-as","ma_18169626-b","ma_18169626-bs",58.194,-1,4,10151,369,308,"1",10.151,1.00650882777529,0,1.00650882777529
"A1QUBLZCONL4QD",NA,NA,"ma","38546029","ma_38546029-as","ma_38546029-b","ma_38546029-bs",67.68,-1,5,8583,361,419,"1",8.583,0.933639112524925,0,0.933639112524925
"A1QUBLZCONL4QD",NA,NA,"ma","13141692","ma_13141692-as","ma_13141692-b","ma_13141692-bs",75.728,-1,6,7152,579,398,"1",7.152,0.854427505787861,0,0.854427505787861
"A1QUBLZCONL4QD",NA,NA,"ma","25107991","ma_25107991-as","ma_25107991-b","ma_25107991-bs",83.377,-1,7,6649,347,161,"1",6.649,0.822756332951391,0,0.822756332951391
"A1QUBLZCONL4QD",NA,NA,"ma","32289063","ma_32289063-as","ma_32289063-b","ma_32289063-bs",90.986,-1,8,6698,331,315,"1",6.698,0.825945143203848,0,0.825945143203848
"A1QUBLZCONL4QD",NA,NA,"ma","24383097","ma_24383097-as","ma_24383097-b","ma_24383097-bs",114.126,-1,10,6631,135,91,"1",6.631,0.821579027912009,0,0.821579027912009
"A1QUBLZCONL4QD",NA,NA,"ma","70687495","ma_70687495-as","ma_70687495-b","ma_70687495-bs",121.483,-1,11,6590,423,266,"1",6.59,0.81888541459401,0,0.81888541459401
"A1QUBLZCONL4QD",NA,NA,"ma","51856108","ma_51856108-as","ma_51856108-b","ma_51856108-bs",128.672,-1,12,6551,56,181,"1",6.551,0.81630759943194,0,0.81630759943194
"A1QUBLZCONL4QD",NA,NA,"ma","16527526","ma_16527526-as","ma_16527526-b","ma_16527526-bs",165.095,-1,17,6544,572,251,"1",6.544,0.815843290663267,0,0.815843290663267
"A1QUBLZCONL4QD",NA,NA,"ma","77574131","ma_77574131-as","ma_77574131-b","ma_77574131-bs",172.399,-1,18,6602,62,80,"1",6.602,0.819675519994293,0,0.819675519994293
"A1QUBLZCONL4QD",NA,NA,"ma","98156944","ma_98156944-as","ma_98156944-b","ma_98156944-bs",179.745,-1,19,6621,36,128,"1",6.621,0.820923587881317,0,0.820923587881317
"A1QUBLZCONL4QD",NA,NA,"ma","1383096","ma_1383096-as","ma_1383096-b","ma_1383096-bs",194.393,-1,21,6685,469,16,"1",6.685,0.825101411598003,0,0.825101411598003
"A1QUBLZCONL4QD",NA,NA,"ma","1191801","ma_1191801-as","ma_1191801-b","ma_1191801-bs",201.959,-1,22,6848,235,151,"1",6.848,0.835563751669097,0,0.835563751669097
"A1QUBLZCONL4QD",NA,NA,"ma","79222679","ma_79222679-as","ma_79222679-b","ma_79222679-bs",209.09,-1,23,6483,563,128,"1",6.483,0.811776021602904,0,0.811776021602904
"A1QUBLZCONL4QD",NA,NA,"ma","87983207","ma_87983207-as","ma_87983207-b","ma_87983207-bs",216.355,-1,24,6542,59,246,"1",6.542,0.815710539788963,0,0.815710539788963
"A1QUBLZCONL4QD",NA,NA,"ma","42429798","ma_42429798-as","ma_42429798-b","ma_42429798-bs",225.384,-1,25,8335,367,271,"1",8.335,0.920905604164024,0,0.920905604164024
"A1QUBLZCONL4QD",NA,NA,"ma","38466626","ma_38466626-as","ma_38466626-b","ma_38466626-bs",232.903,-1,26,6938,392,444,"1",6.938,0.841234295506041,0,0.841234295506041
"A1QUBLZCONL4QD",NA,NA,"ma","10504629","ma_10504629-as","ma_10504629-b","ma_10504629-bs",248.533,-1,28,6446,72,267,"1",6.446,0.809290301176316,0,0.809290301176316
"A1QUBLZCONL4QD",NA,NA,"ma","79191795","ma_79191795-as","ma_79191795-b","ma_79191795-bs",255.852,-1,29,6651,395,49,"1",6.651,0.822886947834151,0,0.822886947834151
"A1QUBLZCONL4QD",NA,NA,"ma","3099758","ma_3099758-as","ma_3099758-b","ma_3099758-bs",263.237,-1,30,6771,357,385,"1",6.771,0.830652813797425,0,0.830652813797425
"A1QUBLZCONL4QD",NA,NA,"ma","95091295","ma_95091295-as","ma_95091295-b","ma_95091295-bs",270.738,-1,31,6913,240,163,"1",6.913,0.839666556882433,0,0.839666556882433
"A1S315FYTGY9GL",NA,NA,"ma","67862299","ma_67862299-as","ma_67862299-b","ma_67862299-bs",68.688,-1,3,12787,81,226,"1",12.787,1.10676866517681,0,1.10676866517681
"A1S315FYTGY9GL",NA,NA,"ma","22020472","ma_22020472-as","ma_22020472-b","ma_22020472-bs",78.582,-1,4,8792,619,297,"1",8.792,0.944087679415434,0,0.944087679415434
"A1S315FYTGY9GL",NA,NA,"ma","56835136","ma_56835136-as","ma_56835136-b","ma_56835136-bs",88.205,-1,5,8528,565,349,"1",8.528,0.930847191682497,0,0.930847191682497
"A1S315FYTGY9GL",NA,NA,"ma","74173745","ma_74173745-as","ma_74173745-b","ma_74173745-bs",96.019,-1,6,7214,375,407,"1",7.214,0.858176137982344,0,0.858176137982344
"A1S315FYTGY9GL",NA,NA,"ma","75081153","ma_75081153-as","ma_75081153-b","ma_75081153-bs",134.447,-1,8,8772,218,377,"1",8.772,0.943098623005485,0,0.943098623005485
"A1S315FYTGY9GL",NA,NA,"ma","88767165","ma_88767165-as","ma_88767165-b","ma_88767165-bs",156.233,-1,10,6531,438,402,"1",6.531,0.814979683760757,0,0.814979683760757
"A1S315FYTGY9GL",NA,NA,"ma","1383096","ma_1383096-as","ma_1383096-b","ma_1383096-bs",166.019,-1,11,8893,454,23,"1",8.893,0.949048292315664,0,0.949048292315664
"A1S315FYTGY9GL",NA,NA,"ma","55174490","ma_55174490-as","ma_55174490-b","ma_55174490-bs",185.109,-1,13,6648,505,259,"1",6.648,0.822691010776055,0,0.822691010776055
"A1S315FYTGY9GL",NA,NA,"ma","8197559","ma_8197559-as","ma_8197559-b","ma_8197559-bs",196.791,-1,15,10545,290,379,"1",10.545,1.02304658407551,0,1.02304658407551
"A1S315FYTGY9GL",NA,NA,"ma","77345858","ma_77345858-as","ma_77345858-b","ma_77345858-bs",204.597,-1,16,6601,322,358,"1",6.601,0.819609732751585,0,0.819609732751585
"A1S315FYTGY9GL",NA,NA,"ma","77793328","ma_77793328-as","ma_77793328-b","ma_77793328-bs",214.027,-1,17,8652,567,282,"1",8.652,0.937116510767054,0,0.937116510767054
"A1S315FYTGY9GL",NA,NA,"ma","72488522","ma_72488522-as","ma_72488522-b","ma_72488522-bs",221.339,-1,18,6730,372,281,"1",6.73,0.828015064223977,0,0.828015064223977
"A1S315FYTGY9GL",NA,NA,"ma","38466626","ma_38466626-as","ma_38466626-b","ma_38466626-bs",228.767,-1,19,6569,372,443,"1",6.569,0.817499261867758,0,0.817499261867758
"A1S315FYTGY9GL",NA,NA,"ma","97475929","ma_97475929-as","ma_97475929-b","ma_97475929-bs",236.565,-1,20,6684,380,410,"1",6.684,0.825036441221354,0,0.825036441221354
"A1S315FYTGY9GL",NA,NA,"ma","62096551","ma_62096551-as","ma_62096551-b","ma_62096551-bs",253.941,-1,22,6717,620,94,"1",6.717,0.827175348298693,0,0.827175348298693
"A1S315FYTGY9GL",NA,NA,"ma","61118260","ma_61118260-as","ma_61118260-b","ma_61118260-bs",261.423,-1,23,6512,564,237,"1",6.512,0.813714391881145,0,0.813714391881145
"A1S315FYTGY9GL",NA,NA,"ma","38546029","ma_38546029-as","ma_38546029-b","ma_38546029-bs",270.991,-1,24,8849,355,415,"1",8.849,0.946894195102327,0,0.946894195102327
"A1S315FYTGY9GL",NA,NA,"ma","10810329","ma_10810329-as","ma_10810329-b","ma_10810329-bs",278.379,-1,25,6597,233,282,"1",6.597,0.819346484080453,0,0.819346484080453
"A1S315FYTGY9GL",NA,NA,"ma","8974554","ma_8974554-as","ma_8974554-b","ma_8974554-bs",285.459,-1,26,6535,573,278,"1",6.535,0.815245591916563,0,0.815245591916563
"A1S315FYTGY9GL",NA,NA,"ma","75958241","ma_75958241-as","ma_75958241-b","ma_75958241-bs",292.895,-1,27,6464,404,377,"1",6.464,0.81050134776653,0,0.81050134776653
"A1S315FYTGY9GL",NA,NA,"ma","77574131","ma_77574131-as","ma_77574131-b","ma_77574131-bs",308.237,-1,29,6673,62,89,"1",6.673,0.824321124850771,0,0.824321124850771
"A1S315FYTGY9GL",NA,NA,"ma","18345691","ma_18345691-as","ma_18345691-b","ma_18345691-bs",315.973,-1,30,6948,297,51,"1",6.948,0.841859809775061,0,0.841859809775061
"A1S315FYTGY9GL",NA,NA,"ma","27857618","ma_27857618-as","ma_27857618-b","ma_27857618-bs",323.186,-1,31,6494,234,81,"1",6.494,0.812512284289983,0,0.812512284289983
"A1S315FYTGY9GL",NA,NA,"ma","83536470","ma_83536470-as","ma_83536470-b","ma_83536470-bs",333.287,-1,32,8733,206,199,"1",8.733,0.941163460158473,0,0.941163460158473
"A1T643M1P572AA",NA,NA,"ma","46475259","ma_46475259-as","ma_46475259-b","ma_46475259-bs",89.711,-1,3,21686,405,462,"1",21.686,1.33617945343744,0,1.33617945343744
"A1T643M1P572AA",NA,NA,"ma","73637203","ma_73637203-as","ma_73637203-b","ma_73637203-bs",112.902,-1,5,21732,191,57,"1",21.732,1.33709969636168,0,1.33709969636168
"A1T643M1P572AA",NA,NA,"ma","88767165","ma_88767165-as","ma_88767165-b","ma_88767165-bs",133.037,-1,6,19558,436,409,"1",19.558,1.29132444179242,0,1.29132444179242
"A1T643M1P572AA",NA,NA,"ma","72488522","ma_72488522-as","ma_72488522-b","ma_72488522-bs",142.573,-1,7,8982,377,274,"1",8.982,0.953373050726696,0,0.953373050726696
"A1T643M1P572AA",NA,NA,"ma","83785171","ma_83785171-as","ma_83785171-b","ma_83785171-bs",149.933,-1,8,6863,373,318,"1",6.863,0.836513998890671,0,0.836513998890671
"A1T643M1P572AA",NA,NA,"ma","32289063","ma_32289063-as","ma_32289063-b","ma_32289063-bs",159.196,-1,9,8686,336,309,"1",8.686,0.93881982502621,0,0.93881982502621
"A1T643M1P572AA",NA,NA,"ma","45525109","ma_45525109-as","ma_45525109-b","ma_45525109-bs",170.772,-1,10,10808,218,293,"1",10.808,1.03374533601397,0,1.03374533601397
"A1T643M1P572AA",NA,NA,"ma","74173745","ma_74173745-as","ma_74173745-b","ma_74173745-bs",237.242,-1,12,7287,374,394,"1",7.287,0.862548769524793,0,0.862548769524793
"A1T643M1P572AA",NA,NA,"ma","83691215","ma_83691215-as","ma_83691215-b","ma_83691215-bs",258.617,-1,14,8831,361,246,"1",8.831,0.946009884765765,0,0.946009884765765
"A1T643M1P572AA",NA,NA,"ma","79241011","ma_79241011-as","ma_79241011-b","ma_79241011-bs",265.841,-1,15,6879,553,177,"1",6.879,0.837525309449601,0,0.837525309449601
"A1T643M1P572AA",NA,NA,"ma","12115280","ma_12115280-as","ma_12115280-b","ma_12115280-bs",279.64,-1,16,13159,400,218,"1",13.159,1.11922288692358,0,1.11922288692358
"A1T643M1P572AA",NA,NA,"ma","16527526","ma_16527526-as","ma_16527526-b","ma_16527526-bs",293.199,-1,17,13191,562,271,"1",13.191,1.12027772033937,0,1.12027772033937
"A1T643M1P572AA",NA,NA,"ma","13873251","ma_13873251-as","ma_13873251-b","ma_13873251-bs",304.359,-1,18,10791,81,299,"1",10.791,1.03306169253817,0,1.03306169253817
"A1T643M1P572AA",NA,NA,"ma","23024660","ma_23024660-as","ma_23024660-b","ma_23024660-bs",320.23,-1,19,15224,382,187,"1",15.224,1.18252877527896,0,1.18252877527896
"A1T643M1P572AA",NA,NA,"ma","1383096","ma_1383096-as","ma_1383096-b","ma_1383096-bs",329.854,-1,20,9094,463,37,"1",9.094,0.958754949869089,0,0.958754949869089
"A1T643M1P572AA",NA,NA,"ma","8974554","ma_8974554-as","ma_8974554-b","ma_8974554-bs",337.158,-1,21,6847,573,291,"1",6.847,0.835500327867319,0,0.835500327867319
"A1T643M1P572AA",NA,NA,"ma","77574131","ma_77574131-as","ma_77574131-b","ma_77574131-bs",350.486,-1,22,12919,70,117,"1",12.919,1.11122889823416,0,1.11122889823416
"A1T643M1P572AA",NA,NA,"ma","62096551","ma_62096551-as","ma_62096551-b","ma_62096551-bs",359.853,-1,23,8886,623,92,"1",8.886,0.948706308904852,0,0.948706308904852
"A1T643M1P572AA",NA,NA,"ma","67862299","ma_67862299-as","ma_67862299-b","ma_67862299-bs",369.189,-1,24,8942,71,225,"1",8.942,0.951434665532013,0,0.951434665532013
"A1T643M1P572AA",NA,NA,"ma","79191795","ma_79191795-as","ma_79191795-b","ma_79191795-bs",376.717,-1,25,7038,381,56,"1",7.038,0.847449262499173,0,0.847449262499173
"A1T643M1P572AA",NA,NA,"ma","13141692","ma_13141692-as","ma_13141692-b","ma_13141692-bs",384.221,-1,26,7031,574,389,"1",7.031,0.847017097935354,0,0.847017097935354
"A1T643M1P572AA",NA,NA,"ma","75081153","ma_75081153-as","ma_75081153-b","ma_75081153-bs",395.836,-1,27,11129,218,376,"1",11.129,1.04645614241259,0,1.04645614241259
"A1T643M1P572AA",NA,NA,"ma","57861456","ma_57861456-as","ma_57861456-b","ma_57861456-bs",405.523,-1,28,9120,302,121,"1",9.12,0.959994838328416,0,0.959994838328416
"A1T643M1P572AA",NA,NA,"ma","95091295","ma_95091295-as","ma_95091295-b","ma_95091295-bs",415.115,-1,29,8903,228,152,"1",8.903,0.949536373376143,0,0.949536373376143
"A1T643M1P572AA",NA,NA,"ma","83536470","ma_83536470-as","ma_83536470-b","ma_83536470-bs",432.811,-1,30,17111,202,206,"1",17.111,1.23327539129394,0,1.23327539129394
"A1T643M1P572AA",NA,NA,"ma","8197559","ma_8197559-as","ma_8197559-b","ma_8197559-bs",461.61,-1,31,28310,301,378,"1",28.31,1.4519398693651,0,1.4519398693651
"A1T643M1P572AA",NA,NA,"ma","1191801","ma_1191801-as","ma_1191801-b","ma_1191801-bs",468.986,-1,32,6942,223,162,"1",6.942,0.841484609335393,0,0.841484609335393
"A1WH32GYQOHIRQ",NA,NA,"ma","12178414","ma_12178414-as","ma_12178414-b","ma_12178414-bs",82.909,-1,5,8054,305,199,"1",8.054,0.906011625271413,0,0.906011625271413
"A1WH32GYQOHIRQ",NA,NA,"ma","77345858","ma_77345858-as","ma_77345858-b","ma_77345858-bs",132.092,-1,8,10605,318,352,"1",10.605,1.02551067285258,0,1.02551067285258
"A1WH32GYQOHIRQ",NA,NA,"ma","83785171","ma_83785171-as","ma_83785171-b","ma_83785171-bs",144.829,-1,9,10722,359,284,"1",10.722,1.03027580288929,0,1.03027580288929
"A1WH32GYQOHIRQ",NA,NA,"ma","8197559","ma_8197559-as","ma_8197559-b","ma_8197559-bs",169.365,-1,10,23285,269,377,"1",23.285,1.36707624226875,0,1.36707624226875
"A1WH32GYQOHIRQ",NA,NA,"ma","98156944","ma_98156944-as","ma_98156944-b","ma_98156944-bs",186.484,-1,11,14867,28,105,"1",14.867,1.17222334142775,0,1.17222334142775
"A1WH32GYQOHIRQ",NA,NA,"ma","32289063","ma_32289063-as","ma_32289063-b","ma_32289063-bs",200.895,-1,12,12783,343,306,"1",12.783,1.10663278892012,0,1.10663278892012
"A1WH32GYQOHIRQ",NA,NA,"ma","67862299","ma_67862299-as","ma_67862299-b","ma_67862299-bs",211.791,-1,13,9016,95,224,"1",9.016,0.95501390303805,0,0.95501390303805
"A1WH32GYQOHIRQ",NA,NA,"ma","18169626","ma_18169626-as","ma_18169626-b","ma_18169626-bs",219.923,-1,14,7082,352,280,"1",7.082,0.850155922422092,0,0.850155922422092
"A1WH32GYQOHIRQ",NA,NA,"ma","10810329","ma_10810329-as","ma_10810329-b","ma_10810329-bs",238.961,-1,16,8888,199,312,"1",8.888,0.948804045932811,0,0.948804045932811
"A1WH32GYQOHIRQ",NA,NA,"ma","79241011","ma_79241011-as","ma_79241011-b","ma_79241011-bs",286.869,-1,19,7118,541,127,"1",7.118,0.852357983667827,0,0.852357983667827
"A1WH32GYQOHIRQ",NA,NA,"ma","69128765","ma_69128765-as","ma_69128765-b","ma_69128765-bs",311.075,-1,21,8692,177,331,"1",8.692,0.939119717648487,0,0.939119717648487
"A1WH32GYQOHIRQ",NA,NA,"ma","61118260","ma_61118260-as","ma_61118260-b","ma_61118260-bs",321.494,-1,22,8761,554,241,"1",8.761,0.94255368033421,0,0.94255368033421
"A1WH32GYQOHIRQ",NA,NA,"ma","79191795","ma_79191795-as","ma_79191795-b","ma_79191795-bs",337.981,-1,23,14863,387,55,"1",14.863,1.1721064777925,0,1.1721064777925
"A1WH32GYQOHIRQ",NA,NA,"ma","8974554","ma_8974554-as","ma_8974554-b","ma_8974554-bs",347.81,-1,24,8716,581,299,"1",8.716,0.940317221574218,0,0.940317221574218
"A1WH32GYQOHIRQ",NA,NA,"ma","88767165","ma_88767165-as","ma_88767165-b","ma_88767165-bs",388.637,-1,26,10967,430,410,"1",10.967,1.04008784346988,0,1.04008784346988
"A1WH32GYQOHIRQ",NA,NA,"ma","38546029","ma_38546029-as","ma_38546029-b","ma_38546029-bs",400.574,-1,27,10610,356,421,"1",10.61,1.02571538390134,0,1.02571538390134
"A1WH32GYQOHIRQ",NA,NA,"ma","23024660","ma_23024660-as","ma_23024660-b","ma_23024660-bs",418.47,-1,28,17037,396,210,"1",17.037,1.23139312340312,0,1.23139312340312
"A1WH32GYQOHIRQ",NA,NA,"ma","75958241","ma_75958241-as","ma_75958241-b","ma_75958241-bs",434.724,-1,29,14885,381,374,"1",14.885,1.17274883898274,0,1.17274883898274
"A1WH32GYQOHIRQ",NA,NA,"ma","18345691","ma_18345691-as","ma_18345691-b","ma_18345691-bs",446.752,-1,30,10786,306,59,"1",10.786,1.03286041595214,0,1.03286041595214
"A1WH32GYQOHIRQ",NA,NA,"ma","77793328","ma_77793328-as","ma_77793328-b","ma_77793328-bs",459.034,-1,31,11031,565,274,"1",11.031,1.04261488458852,0,1.04261488458852
"A1WH32GYQOHIRQ",NA,NA,"ma","70687495","ma_70687495-as","ma_70687495-b","ma_70687495-bs",467.131,-1,32,6967,399,285,"1",6.967,0.843045810534569,0,0.843045810534569
"A1XKL37QKFITT1",NA,NA,"ma","74173745","ma_74173745-as","ma_74173745-b","ma_74173745-bs",112.14,-1,3,7248,379,400,"1",7.248,0.860218184668757,0,0.860218184668757
"A1XKL37QKFITT1",NA,NA,"ma","23024660","ma_23024660-as","ma_23024660-b","ma_23024660-bs",119.825,-1,4,6977,381,200,"1",6.977,0.843668722979144,0,0.843668722979144
"A1XKL37QKFITT1",NA,NA,"ma","79573638","ma_79573638-as","ma_79573638-b","ma_79573638-bs",127.516,-1,5,6812,300,105,"1",6.812,0.833274639290563,0,0.833274639290563
"A1XKL37QKFITT1",NA,NA,"ma","23199105","ma_23199105-as","ma_23199105-b","ma_23199105-bs",144.575,-1,7,7785,552,60,"1",7.785,0.891258616904139,0,0.891258616904139
"A1XKL37QKFITT1",NA,NA,"ma","44993860","ma_44993860-as","ma_44993860-b","ma_44993860-bs",151.741,-1,8,6608,543,323,"1",6.608,0.820070034312326,0,0.820070034312326
"A1XKL37QKFITT1",NA,NA,"ma","72488522","ma_72488522-as","ma_72488522-b","ma_72488522-bs",159.326,-1,9,6887,371,269,"1",6.887,0.83803008298532,0,0.83803008298532
"A1XKL37QKFITT1",NA,NA,"ma","75958241","ma_75958241-as","ma_75958241-b","ma_75958241-bs",166.816,-1,10,6808,390,375,"1",6.808,0.833019547076531,0,0.833019547076531
"A1XKL37QKFITT1",NA,NA,"ma","77793328","ma_77793328-as","ma_77793328-b","ma_77793328-bs",182.699,-1,12,6795,575,280,"1",6.795,0.832189461068513,0,0.832189461068513
"A1XKL37QKFITT1",NA,NA,"ma","46635293","ma_46635293-as","ma_46635293-b","ma_46635293-bs",190.089,-1,13,6736,190,403,"1",6.736,0.828402078491593,0,0.828402078491593
"A1XKL37QKFITT1",NA,NA,"ma","8197559","ma_8197559-as","ma_8197559-b","ma_8197559-bs",197.616,-1,14,6856,289,382,"1",6.856,0.836070808915142,0,0.836070808915142
"A1XKL37QKFITT1",NA,NA,"ma","90405028","ma_90405028-as","ma_90405028-b","ma_90405028-bs",205.206,-1,15,6972,333,351,"1",6.972,0.843357378437956,0,0.843357378437956
"A1XKL37QKFITT1",NA,NA,"ma","13873251","ma_13873251-as","ma_13873251-b","ma_13873251-bs",212.764,-1,16,6921,92,300,"1",6.921,0.840168849240756,0,0.840168849240756
"A1XKL37QKFITT1",NA,NA,"ma","18345691","ma_18345691-as","ma_18345691-b","ma_18345691-bs",220.301,-1,17,6961,282,53,"1",6.961,0.842671633760788,0,0.842671633760788
"A1XKL37QKFITT1",NA,NA,"ma","62224663","ma_62224663-as","ma_62224663-b","ma_62224663-bs",227.648,-1,18,6695,468,215,"1",6.695,0.825750581348028,0,0.825750581348028
"A1XKL37QKFITT1",NA,NA,"ma","4247084","ma_4247084-as","ma_4247084-b","ma_4247084-bs",235.243,-1,19,6748,233,57,"1",6.748,0.829175073917088,0,0.829175073917088
"A1XKL37QKFITT1",NA,NA,"ma","55174490","ma_55174490-as","ma_55174490-b","ma_55174490-bs",242.726,-1,20,6655,490,311,"1",6.655,0.823148059810694,0,0.823148059810694
"A1XKL37QKFITT1",NA,NA,"ma","61118260","ma_61118260-as","ma_61118260-b","ma_61118260-bs",250.335,-1,21,6911,565,224,"1",6.911,0.839540892968969,0,0.839540892968969
"A1XKL37QKFITT1",NA,NA,"ma","79241011","ma_79241011-as","ma_79241011-b","ma_79241011-bs",257.889,-1,22,6670,555,225,"1",6.67,0.824125833916549,0,0.824125833916549
"A1XKL37QKFITT1",NA,NA,"ma","57861456","ma_57861456-as","ma_57861456-b","ma_57861456-bs",265.54,-1,23,6673,314,142,"1",6.673,0.824321124850771,0,0.824321124850771
"A1XKL37QKFITT1",NA,NA,"ma","22020472","ma_22020472-as","ma_22020472-b","ma_22020472-bs",273.155,-1,24,6690,605,293,"1",6.69,0.825426117767823,0,0.825426117767823
"A1XKL37QKFITT1",NA,NA,"ma","73637203","ma_73637203-as","ma_73637203-b","ma_73637203-bs",280.948,-1,25,6789,199,81,"1",6.789,0.831805808674391,0,0.831805808674391
"A1XKL37QKFITT1",NA,NA,"ma","98265889","ma_98265889-as","ma_98265889-b","ma_98265889-bs",296.185,-1,27,6664,459,202,"1",6.664,0.823734988398731,0,0.823734988398731
"A1XKL37QKFITT1",NA,NA,"ma","48486405","ma_48486405-as","ma_48486405-b","ma_48486405-bs",303.879,-1,28,6695,248,344,"1",6.695,0.825750581348028,0,0.825750581348028
"A1XKL37QKFITT1",NA,NA,"ma","56835136","ma_56835136-as","ma_56835136-b","ma_56835136-bs",311.336,-1,29,6791,559,357,"1",6.791,0.831933730466745,0,0.831933730466745
"A1XKL37QKFITT1",NA,NA,"ma","31236119","ma_31236119-as","ma_31236119-b","ma_31236119-bs",327.161,-1,31,7220,486,55,"1",7.22,0.858537197569639,0,0.858537197569639
"A1XKL37QKFITT1",NA,NA,"ma","27857618","ma_27857618-as","ma_27857618-b","ma_27857618-bs",334.516,-1,32,6696,276,149,"1",6.696,0.825815444985204,0,0.825815444985204
"A1YV6W4EZP9T4Q",NA,NA,"ma","83785171","ma_83785171-as","ma_83785171-b","ma_83785171-bs",117.639,-1,5,7772,353,299,"1",7.772,0.890532791927745,0,0.890532791927745
"A1YV6W4EZP9T4Q",NA,NA,"ma","79191795","ma_79191795-as","ma_79191795-b","ma_79191795-bs",125.272,-1,6,7025,379,52,"1",7.025,0.846646328577118,0,0.846646328577118
"A1YV6W4EZP9T4Q",NA,NA,"ma","51856108","ma_51856108-as","ma_51856108-b","ma_51856108-bs",137.131,-1,7,11406,39,215,"1",11.406,1.05713336724909,0,1.05713336724909
"A1YV6W4EZP9T4Q",NA,NA,"ma","73637203","ma_73637203-as","ma_73637203-b","ma_73637203-bs",148.938,-1,8,11006,182,77,"1",11.006,1.04162950847514,0,1.04162950847514
"A1YV6W4EZP9T4Q",NA,NA,"ma","27857618","ma_27857618-as","ma_27857618-b","ma_27857618-bs",191.139,-1,12,9038,265,156,"1",9.038,0.956072336995183,0,0.956072336995183
"A1YV6W4EZP9T4Q",NA,NA,"ma","44993860","ma_44993860-as","ma_44993860-b","ma_44993860-bs",202.803,-1,13,11078,529,254,"1",11.078,1.04446136081066,0,1.04446136081066
"A1YV6W4EZP9T4Q",NA,NA,"ma","89354846","ma_89354846-as","ma_89354846-b","ma_89354846-bs",218.838,-1,14,15111,361,229,"1",15.111,1.17929320557737,0,1.17929320557737
"A1YV6W4EZP9T4Q",NA,NA,"ma","48486405","ma_48486405-as","ma_48486405-b","ma_48486405-bs",231.153,-1,15,11980,360,352,"1",11.98,1.07845681805329,0,1.07845681805329
"A1YV6W4EZP9T4Q",NA,NA,"ma","90405028","ma_90405028-as","ma_90405028-b","ma_90405028-bs",300.827,-1,18,11179,320,366,"1",11.179,1.04840295615274,0,1.04840295615274
"A1YV6W4EZP9T4Q",NA,NA,"ma","1191801","ma_1191801-as","ma_1191801-b","ma_1191801-bs",308.333,-1,19,6790,221,160,"1",6.79,0.831869774280502,0,0.831869774280502
"A1YV6W4EZP9T4Q",NA,NA,"ma","95091295","ma_95091295-as","ma_95091295-b","ma_95091295-bs",338.318,-1,21,10946,227,166,"1",10.946,1.03925544380649,0,1.03925544380649
"A1YV6W4EZP9T4Q",NA,NA,"ma","77345858","ma_77345858-as","ma_77345858-b","ma_77345858-bs",347.767,-1,22,8958,332,364,"1",8.958,0.952211058108669,0,0.952211058108669
"A1YV6W4EZP9T4Q",NA,NA,"ma","45525109","ma_45525109-as","ma_45525109-b","ma_45525109-bs",356.926,-1,23,8749,227,303,"1",8.749,0.941958416530814,0,0.941958416530814
"A1YV6W4EZP9T4Q",NA,NA,"ma","51537628","ma_51537628-as","ma_51537628-b","ma_51537628-bs",366.381,-1,24,8683,530,233,"1",8.683,0.938669801022679,0,0.938669801022679
"A1YV6W4EZP9T4Q",NA,NA,"ma","23199105","ma_23199105-as","ma_23199105-b","ma_23199105-bs",377.912,-1,25,10585,551,59,"1",10.585,1.02469086235543,0,1.02469086235543
"A1YV6W4EZP9T4Q",NA,NA,"ma","87983207","ma_87983207-as","ma_87983207-b","ma_87983207-bs",388.961,-1,26,10538,65,266,"1",10.538,1.02275819423677,0,1.02275819423677
"A1YV6W4EZP9T4Q",NA,NA,"ma","10810329","ma_10810329-as","ma_10810329-b","ma_10810329-bs",398.956,-1,27,9578,217,286,"1",9.578,0.981274832706589,0,0.981274832706589
"A1YV6W4EZP9T4Q",NA,NA,"ma","38466626","ma_38466626-as","ma_38466626-b","ma_38466626-bs",408.689,-1,28,8982,319,445,"1",8.982,0.953373050726696,0,0.953373050726696
"A1YV6W4EZP9T4Q",NA,NA,"ma","83691215","ma_83691215-as","ma_83691215-b","ma_83691215-bs",421.815,-1,29,12725,363,250,"1",12.725,1.1046577910088,0,1.1046577910088
"A1YV6W4EZP9T4Q",NA,NA,"ma","56835136","ma_56835136-as","ma_56835136-b","ma_56835136-bs",431.264,-1,30,8552,569,347,"1",8.552,0.932067692200722,0,0.932067692200722
"A1YV6W4EZP9T4Q",NA,NA,"ma","77574131","ma_77574131-as","ma_77574131-b","ma_77574131-bs",450.981,-1,31,19414,56,78,"1",19.414,1.2881150252881,0,1.2881150252881
"A1YV6W4EZP9T4Q",NA,NA,"ma","57861456","ma_57861456-as","ma_57861456-b","ma_57861456-bs",458.613,-1,32,7090,306,121,"1",7.09,0.850646235183066,0,0.850646235183066
"A1ZE52NWZPN85P",NA,NA,"ma","83536470","ma_83536470-as","ma_83536470-b","ma_83536470-bs",57.417,-1,4,15067,203,205,"1",15.067,1.17802678827043,0,1.17802678827043
"A1ZE52NWZPN85P",NA,NA,"ma","90405028","ma_90405028-as","ma_90405028-b","ma_90405028-bs",73.765,-1,6,8731,338,357,"1",8.731,0.941063988219902,0,0.941063988219902
"A1ZE52NWZPN85P",NA,NA,"ma","72488522","ma_72488522-as","ma_72488522-b","ma_72488522-bs",81.265,-1,7,6732,375,272,"1",6.732,0.828144107303786,0,0.828144107303786
"A1ZE52NWZPN85P",NA,NA,"ma","67862299","ma_67862299-as","ma_67862299-b","ma_67862299-bs",88.649,-1,8,6710,84,233,"1",6.71,0.826722520168992,0,0.826722520168992
"A1ZE52NWZPN85P",NA,NA,"ma","13141692","ma_13141692-as","ma_13141692-b","ma_13141692-bs",105.027,-1,9,15943,576,388,"1",15.943,1.20257004609748,0,1.20257004609748
"A1ZE52NWZPN85P",NA,NA,"ma","79191795","ma_79191795-as","ma_79191795-b","ma_79191795-bs",116.155,-1,10,10726,370,59,"1",10.726,1.03043779262705,0,1.03043779262705
"A1ZE52NWZPN85P",NA,NA,"ma","48486405","ma_48486405-as","ma_48486405-b","ma_48486405-bs",127.164,-1,11,10631,269,351,"1",10.631,1.02657411815033,0,1.02657411815033
"A1ZE52NWZPN85P",NA,NA,"ma","79573638","ma_79573638-as","ma_79573638-b","ma_79573638-bs",134.387,-1,12,6928,311,116,"1",6.928,0.84060787900929,0,0.84060787900929
"A1ZE52NWZPN85P",NA,NA,"ma","46635293","ma_46635293-as","ma_46635293-b","ma_46635293-bs",142.7,-1,13,8130,206,401,"1",8.13,0.910090545594068,0,0.910090545594068
"A1ZE52NWZPN85P",NA,NA,"ma","12115280","ma_12115280-as","ma_12115280-b","ma_12115280-bs",172.058,-1,17,6883,401,227,"1",6.883,0.837777769553733,0,0.837777769553733
"A1ZE52NWZPN85P",NA,NA,"ma","73637203","ma_73637203-as","ma_73637203-b","ma_73637203-bs",189.037,-1,18,16776,179,64,"1",16.776,1.22468841745729,0,1.22468841745729
"A1ZE52NWZPN85P",NA,NA,"ma","77574131","ma_77574131-as","ma_77574131-b","ma_77574131-bs",202.547,-1,19,13067,110,94,"1",13.067,1.11617589110035,0,1.11617589110035
"A1ZE52NWZPN85P",NA,NA,"ma","1383096","ma_1383096-as","ma_1383096-b","ma_1383096-bs",214.047,-1,20,10931,470,38,"1",10.931,1.0386598943025,0,1.0386598943025
"A1ZE52NWZPN85P",NA,NA,"ma","27857618","ma_27857618-as","ma_27857618-b","ma_27857618-bs",221.537,-1,21,7484,263,78,"1",7.484,0.874133778827972,0,0.874133778827972
"A1ZE52NWZPN85P",NA,NA,"ma","16527526","ma_16527526-as","ma_16527526-b","ma_16527526-bs",228.643,-1,22,6759,579,238,"1",6.759,0.829882446443493,0,0.829882446443493
"A1ZE52NWZPN85P",NA,NA,"ma","12178414","ma_12178414-as","ma_12178414-b","ma_12178414-bs",235.707,-1,23,6707,323,195,"1",6.707,0.826528306340652,0,0.826528306340652
"A1ZE52NWZPN85P",NA,NA,"ma","25107991","ma_25107991-as","ma_25107991-b","ma_25107991-bs",243.055,-1,24,6833,337,176,"1",6.833,0.834611420722687,0,0.834611420722687
"A1ZE52NWZPN85P",NA,NA,"ma","51537628","ma_51537628-as","ma_51537628-b","ma_51537628-bs",250.309,-1,25,6732,491,233,"1",6.732,0.828144107303786,0,0.828144107303786
"A1ZE52NWZPN85P",NA,NA,"ma","86520382","ma_86520382-as","ma_86520382-b","ma_86520382-bs",269.077,-1,27,10743,631,329,"1",10.743,1.03112557573157,0,1.03112557573157
"A1ZE52NWZPN85P",NA,NA,"ma","57861456","ma_57861456-as","ma_57861456-b","ma_57861456-bs",276.103,-1,28,6501,310,134,"1",6.501,0.81298016603948,0,0.81298016603948
"A1ZE52NWZPN85P",NA,NA,"ma","23024660","ma_23024660-as","ma_23024660-b","ma_23024660-bs",298.556,-1,30,14715,386,202,"1",14.715,1.16776026643563,0,1.16776026643563
"A1ZE52NWZPN85P",NA,NA,"ma","4247084","ma_4247084-as","ma_4247084-b","ma_4247084-bs",311.816,-1,31,12860,236,54,"1",12.86,1.1092409685882,0,1.1092409685882
"A1ZE52NWZPN85P",NA,NA,"ma","38466626","ma_38466626-as","ma_38466626-b","ma_38466626-bs",319.048,-1,32,6799,391,432,"1",6.799,0.832445041174111,0,0.832445041174111
"A22DF0EWILGRLV",NA,NA,"ma","72488522","ma_72488522-as","ma_72488522-b","ma_72488522-bs",82.681,-1,3,21375,364,271,"1",21.375,1.32990612340021,0,1.32990612340021
"A22DF0EWILGRLV",NA,NA,"ma","73637203","ma_73637203-as","ma_73637203-b","ma_73637203-bs",100.136,-1,4,17062,186,61,"1",17.062,1.23202993762013,0,1.23202993762013
"A22DF0EWILGRLV",NA,NA,"ma","13873251","ma_13873251-as","ma_13873251-b","ma_13873251-bs",115.166,-1,5,14253,84,309,"1",14.253,1.15390628513887,0,1.15390628513887
"A22DF0EWILGRLV",NA,NA,"ma","77793328","ma_77793328-as","ma_77793328-b","ma_77793328-bs",127.323,-1,6,11549,566,287,"1",11.549,1.06254438134646,0,1.06254438134646
"A22DF0EWILGRLV",NA,NA,"ma","32289063","ma_32289063-as","ma_32289063-b","ma_32289063-bs",205.714,-1,10,13783,331,308,"1",13.783,1.13934375615237,0,1.13934375615237
"A22DF0EWILGRLV",NA,NA,"ma","48384711","ma_48384711-as","ma_48384711-b","ma_48384711-bs",219.778,-1,11,13738,360,436,"1",13.738,1.13792351204041,0,1.13792351204041
"A22DF0EWILGRLV",NA,NA,"ma","18345691","ma_18345691-as","ma_18345691-b","ma_18345691-bs",264.646,-1,13,20120,298,49,"1",20.12,1.30362797638389,0,1.30362797638389
"A22DF0EWILGRLV",NA,NA,"ma","79191795","ma_79191795-as","ma_79191795-b","ma_79191795-bs",272.154,-1,14,7089,395,54,"1",7.089,0.850584976352031,0,0.850584976352031
"A22DF0EWILGRLV",NA,NA,"ma","77574131","ma_77574131-as","ma_77574131-b","ma_77574131-bs",285.163,-1,15,12679,78,103,"1",12.679,1.10308500184161,0,1.10308500184161
"A22DF0EWILGRLV",NA,NA,"ma","13141692","ma_13141692-as","ma_13141692-b","ma_13141692-bs",303.146,-1,16,17393,565,390,"1",17.393,1.24037449695823,0,1.24037449695823
"A22DF0EWILGRLV",NA,NA,"ma","69128765","ma_69128765-as","ma_69128765-b","ma_69128765-bs",314.844,-1,17,11180,178,284,"1",11.18,1.0484418035504,0,1.0484418035504
"A22DF0EWILGRLV",NA,NA,"ma","24383097","ma_24383097-as","ma_24383097-b","ma_24383097-bs",322.148,-1,18,6854,127,108,"1",6.854,0.835944100093848,0,0.835944100093848
"A22DF0EWILGRLV",NA,NA,"ma","38466626","ma_38466626-as","ma_38466626-b","ma_38466626-bs",329.674,-1,19,6780,387,449,"1",6.78,0.831229693867063,0,0.831229693867063
"A22DF0EWILGRLV",NA,NA,"ma","48486405","ma_48486405-as","ma_48486405-b","ma_48486405-bs",340.863,-1,20,10725,315,358,"1",10.725,1.03039730085676,0,1.03039730085676
"A22DF0EWILGRLV",NA,NA,"ma","88767165","ma_88767165-as","ma_88767165-b","ma_88767165-bs",358.765,-1,21,17066,450,405,"1",17.066,1.23213174129662,0,1.23213174129662
"A22DF0EWILGRLV",NA,NA,"ma","85741618","ma_85741618-as","ma_85741618-b","ma_85741618-bs",391.007,-1,22,31810,185,161,"1",31.81,1.50256366910736,0,1.50256366910736
"A22DF0EWILGRLV",NA,NA,"ma","1383096","ma_1383096-as","ma_1383096-b","ma_1383096-bs",411.218,-1,23,18972,467,42,"1",18.972,1.27811311597983,0,1.27811311597983
"A22DF0EWILGRLV",NA,NA,"ma","89354846","ma_89354846-as","ma_89354846-b","ma_89354846-bs",422.254,-1,24,10712,356,238,"1",10.712,1.02987056400395,0,1.02987056400395
"A22DF0EWILGRLV",NA,NA,"ma","83536470","ma_83536470-as","ma_83536470-b","ma_83536470-bs",433.398,-1,25,10668,206,196,"1",10.668,1.02808300701784,0,1.02808300701784
"A22DF0EWILGRLV",NA,NA,"ma","22020472","ma_22020472-as","ma_22020472-b","ma_22020472-bs",440.943,-1,26,6629,613,304,"1",6.629,0.82144801901753,0,0.82144801901753
"A22DF0EWILGRLV",NA,NA,"ma","51537628","ma_51537628-as","ma_51537628-b","ma_51537628-bs",452.223,-1,27,10854,521,231,"1",10.854,1.03558981724346,0,1.03558981724346
"A22DF0EWILGRLV",NA,NA,"ma","61118260","ma_61118260-as","ma_61118260-b","ma_61118260-bs",461.627,-1,28,9010,562,224,"1",9.01,0.954724790979063,0,0.954724790979063
"A22DF0EWILGRLV",NA,NA,"ma","23024660","ma_23024660-as","ma_23024660-b","ma_23024660-bs",477.187,-1,29,14932,402,191,"1",14.932,1.17411798125427,0,1.17411798125427
"A22DF0EWILGRLV",NA,NA,"ma","31236119","ma_31236119-as","ma_31236119-b","ma_31236119-bs",484.794,-1,30,6709,501,60,"1",6.709,0.826657791875869,0,0.826657791875869
"A22DF0EWILGRLV",NA,NA,"ma","90405028","ma_90405028-as","ma_90405028-b","ma_90405028-bs",492.239,-1,31,6662,327,347,"1",6.662,0.823604628355158,0,0.823604628355158
"A22DF0EWILGRLV",NA,NA,"ma","62096551","ma_62096551-as","ma_62096551-b","ma_62096551-bs",503.465,-1,32,10668,614,82,"1",10.668,1.02808300701784,0,1.02808300701784
"A272X64FOZFYLB",NA,NA,"ma","83785171","ma_83785171-as","ma_83785171-b","ma_83785171-bs",33.558,-1,3,7144,354,299,"1",7.144,0.85394144588049,0,0.85394144588049
"A272X64FOZFYLB",NA,NA,"ma","67862299","ma_67862299-as","ma_67862299-b","ma_67862299-bs",52.356,-1,4,16944,93,222,"1",16.944,1.22901594276341,0,1.22901594276341
"A272X64FOZFYLB",NA,NA,"ma","46475259","ma_46475259-as","ma_46475259-b","ma_46475259-bs",69.742,-1,5,16897,407,462,"1",16.897,1.22780960407522,0,1.22780960407522
"A272X64FOZFYLB",NA,NA,"ma","18345691","ma_18345691-as","ma_18345691-b","ma_18345691-bs",79.425,-1,6,8687,280,66,"1",8.687,0.938869821512987,0,0.938869821512987
"A272X64FOZFYLB",NA,NA,"ma","10504629","ma_10504629-as","ma_10504629-b","ma_10504629-bs",87.693,-1,7,7026,65,253,"1",7.026,0.846708145456007,0,0.846708145456007
"A272X64FOZFYLB",NA,NA,"ma","13873251","ma_13873251-as","ma_13873251-b","ma_13873251-bs",99.809,-1,8,10832,83,293,"1",10.832,1.03470865134107,0,1.03470865134107
"A272X64FOZFYLB",NA,NA,"ma","51537628","ma_51537628-as","ma_51537628-b","ma_51537628-bs",121.783,-1,10,12766,526,233,"1",12.766,1.10605484009379,0,1.10605484009379
"A272X64FOZFYLB",NA,NA,"ma","31236119","ma_31236119-as","ma_31236119-b","ma_31236119-bs",132.072,-1,11,8829,465,53,"1",8.829,0.945911516819273,0,0.945911516819273
"A272X64FOZFYLB",NA,NA,"ma","70687495","ma_70687495-as","ma_70687495-b","ma_70687495-bs",141.894,-1,12,8451,403,293,"1",8.451,0.926908101705436,0,0.926908101705436
"A272X64FOZFYLB",NA,NA,"ma","86520382","ma_86520382-as","ma_86520382-b","ma_86520382-bs",164.6,-1,13,21086,631,317,"1",21.086,1.32399420218197,0,1.32399420218197
"A272X64FOZFYLB",NA,NA,"ma","75958241","ma_75958241-as","ma_75958241-b","ma_75958241-bs",172.881,-1,14,7091,401,370,"1",7.091,0.850707485374537,0,0.850707485374537
"A272X64FOZFYLB",NA,NA,"ma","48384711","ma_48384711-as","ma_48384711-b","ma_48384711-bs",187.537,-1,15,13204,458,430,"1",13.204,1.12070551565827,0,1.12070551565827
"A272X64FOZFYLB",NA,NA,"ma","61118260","ma_61118260-as","ma_61118260-b","ma_61118260-bs",197.41,-1,16,8621,568,224,"1",8.621,0.935557645093014,0,0.935557645093014
"A272X64FOZFYLB",NA,NA,"ma","46635293","ma_46635293-as","ma_46635293-b","ma_46635293-bs",205.754,-1,17,6929,227,394,"1",6.929,0.840670561333409,0,0.840670561333409
"A272X64FOZFYLB",NA,NA,"ma","24383097","ma_24383097-as","ma_24383097-b","ma_24383097-bs",214.098,-1,18,6906,116,98,"1",6.906,0.839226574013435,0,0.839226574013435
"A272X64FOZFYLB",NA,NA,"ma","97475929","ma_97475929-as","ma_97475929-b","ma_97475929-bs",222.209,-1,19,6729,370,388,"1",6.729,0.82795052830263,0,0.82795052830263
"A272X64FOZFYLB",NA,NA,"ma","44993860","ma_44993860-as","ma_44993860-b","ma_44993860-bs",231.85,-1,20,8669,551,327,"1",8.669,0.937969002951453,0,0.937969002951453
"A272X64FOZFYLB",NA,NA,"ma","72488522","ma_72488522-as","ma_72488522-b","ma_72488522-bs",241.557,-1,21,8521,376,270,"1",8.521,0.93049056530627,0,0.93049056530627
"A272X64FOZFYLB",NA,NA,"ma","73637203","ma_73637203-as","ma_73637203-b","ma_73637203-bs",253.374,-1,22,10547,171,57,"1",10.547,1.0231289460105,0,1.0231289460105
"A272X64FOZFYLB",NA,NA,"ma","83691215","ma_83691215-as","ma_83691215-b","ma_83691215-bs",265.358,-1,23,10719,360,251,"1",10.719,1.0301542709221,0,1.0301542709221
"A272X64FOZFYLB",NA,NA,"ma","12115280","ma_12115280-as","ma_12115280-b","ma_12115280-bs",275.581,-1,24,8662,402,217,"1",8.662,0.937618179393824,0,0.937618179393824
"A272X64FOZFYLB",NA,NA,"ma","32289063","ma_32289063-as","ma_32289063-b","ma_32289063-bs",298.501,-1,25,21321,335,308,"1",21.321,1.32880757016209,0,1.32880757016209
"A272X64FOZFYLB",NA,NA,"ma","1191801","ma_1191801-as","ma_1191801-b","ma_1191801-bs",306.53,-1,26,6606,222,158,"1",6.606,0.819938569355395,0,0.819938569355395
"A272X64FOZFYLB",NA,NA,"ma","79222679","ma_79222679-as","ma_79222679-b","ma_79222679-bs",314.341,-1,27,6651,537,159,"1",6.651,0.822886947834151,0,0.822886947834151
"A272X64FOZFYLB",NA,NA,"ma","85741618","ma_85741618-as","ma_85741618-b","ma_85741618-bs",323.953,-1,28,8495,197,155,"1",8.495,0.929163383205064,0,0.929163383205064
"A272X64FOZFYLB",NA,NA,"ma","3099758","ma_3099758-as","ma_3099758-b","ma_3099758-bs",334.005,-1,29,8827,356,401,"1",8.827,0.945813126587338,0,0.945813126587338
"A272X64FOZFYLB",NA,NA,"ma","8974554","ma_8974554-as","ma_8974554-b","ma_8974554-bs",341.733,-1,30,6583,561,271,"1",6.583,0.818423855092079,0,0.818423855092079
"A272X64FOZFYLB",NA,NA,"ma","57861456","ma_57861456-as","ma_57861456-b","ma_57861456-bs",349.6,-1,31,6568,305,126,"1",6.568,0.817433144111384,0,0.817433144111384
"A272X64FOZFYLB",NA,NA,"ma","62096551","ma_62096551-as","ma_62096551-b","ma_62096551-bs",359.436,-1,32,8494,633,87,"1",8.494,0.929112256654661,0,0.929112256654661
"A27EV0216FCLJW",NA,NA,"ma","87983207","ma_87983207-as","ma_87983207-b","ma_87983207-bs",62.607,-1,3,13866,53,263,"1",13.866,1.14195119586275,0,1.14195119586275
"A27EV0216FCLJW",NA,NA,"ma","97475929","ma_97475929-as","ma_97475929-b","ma_97475929-bs",163.338,-1,9,6785,384,391,"1",6.785,0.831549851995756,0,0.831549851995756
"A27EV0216FCLJW",NA,NA,"ma","32289063","ma_32289063-as","ma_32289063-b","ma_32289063-bs",170.875,-1,10,6822,338,312,"1",6.822,0.833911715071378,0,0.833911715071378
"A27EV0216FCLJW",NA,NA,"ma","77345858","ma_77345858-as","ma_77345858-b","ma_77345858-bs",180.347,-1,11,8764,319,366,"1",8.764,0.942702368888668,0,0.942702368888668
"A27EV0216FCLJW",NA,NA,"ma","51856108","ma_51856108-as","ma_51856108-b","ma_51856108-bs",187.547,-1,12,6602,79,207,"1",6.602,0.819675519994293,0,0.819675519994293
"A27EV0216FCLJW",NA,NA,"ma","88767165","ma_88767165-as","ma_88767165-b","ma_88767165-bs",194.723,-1,13,6553,429,405,"1",6.553,0.816440167956139,0,0.816440167956139
"A27EV0216FCLJW",NA,NA,"ma","62096551","ma_62096551-as","ma_62096551-b","ma_62096551-bs",201.939,-1,14,6644,611,95,"1",6.644,0.822429623779357,0,0.822429623779357
"A27EV0216FCLJW",NA,NA,"ma","45525109","ma_45525109-as","ma_45525109-b","ma_45525109-bs",209.892,-1,15,6683,226,296,"1",6.683,0.824971461123693,0,0.824971461123693
"A27EV0216FCLJW",NA,NA,"ma","95091295","ma_95091295-as","ma_95091295-b","ma_95091295-bs",217.068,-1,16,6546,224,156,"1",6.546,0.815976000971986,0,0.815976000971986
"A27EV0216FCLJW",NA,NA,"ma","8974554","ma_8974554-as","ma_8974554-b","ma_8974554-bs",224.228,-1,17,6525,564,277,"1",6.525,0.814580516010319,0,0.814580516010319
"A27EV0216FCLJW",NA,NA,"ma","4247084","ma_4247084-as","ma_4247084-b","ma_4247084-bs",238.669,-1,19,6502,231,39,"1",6.502,0.813046965160108,0,0.813046965160108
"A27EV0216FCLJW",NA,NA,"ma","79573638","ma_79573638-as","ma_79573638-b","ma_79573638-bs",245.949,-1,20,6520,297,143,"1",6.52,0.81424759573192,0,0.81424759573192
"A27EV0216FCLJW",NA,NA,"ma","48486405","ma_48486405-as","ma_48486405-b","ma_48486405-bs",253.029,-1,21,6465,293,352,"1",6.465,0.810568529216413,0,0.810568529216413
"A27EV0216FCLJW",NA,NA,"ma","75958241","ma_75958241-as","ma_75958241-b","ma_75958241-bs",260.168,-1,22,6469,380,361,"1",6.469,0.810837151140488,0,0.810837151140488
"A27EV0216FCLJW",NA,NA,"ma","23024660","ma_23024660-as","ma_23024660-b","ma_23024660-bs",267.214,-1,23,6490,385,189,"1",6.49,0.812244696800369,0,0.812244696800369
"A27EV0216FCLJW",NA,NA,"ma","90405028","ma_90405028-as","ma_90405028-b","ma_90405028-bs",274.342,-1,24,6469,330,351,"1",6.469,0.810837151140488,0,0.810837151140488
"A27EV0216FCLJW",NA,NA,"ma","77793328","ma_77793328-as","ma_77793328-b","ma_77793328-bs",281.44,-1,25,6512,560,282,"1",6.512,0.813714391881145,0,0.813714391881145
"A27EV0216FCLJW",NA,NA,"ma","18169626","ma_18169626-as","ma_18169626-b","ma_18169626-bs",288.711,-1,26,6436,354,257,"1",6.436,0.808616035426992,0,0.808616035426992
"A27EV0216FCLJW",NA,NA,"ma","1191801","ma_1191801-as","ma_1191801-b","ma_1191801-bs",295.895,-1,27,6516,233,148,"1",6.516,0.813981075636472,0,0.813981075636472
"A27EV0216FCLJW",NA,NA,"ma","13141692","ma_13141692-as","ma_13141692-b","ma_13141692-bs",303.136,-1,28,6482,565,386,"1",6.482,0.811709026696191,0,0.811709026696191
"A27EV0216FCLJW",NA,NA,"ma","12178414","ma_12178414-as","ma_12178414-b","ma_12178414-bs",310.337,-1,29,6462,309,197,"1",6.462,0.810366953681625,0,0.810366953681625
"A27EV0216FCLJW",NA,NA,"ma","16527526","ma_16527526-as","ma_16527526-b","ma_16527526-bs",317.432,-1,30,6515,563,259,"1",6.515,0.813914420048603,0,0.813914420048603
"A27EV0216FCLJW",NA,NA,"ma","79222679","ma_79222679-as","ma_79222679-b","ma_79222679-bs",324.415,-1,31,6507,539,124,"1",6.507,0.813380806733856,0,0.813380806733856
"A27EV0216FCLJW",NA,NA,"ma","22020472","ma_22020472-as","ma_22020472-b","ma_22020472-bs",331.513,-1,32,6525,602,300,"1",6.525,0.814580516010319,0,0.814580516010319
"A27MJOV91GA8R3",NA,NA,"ma","51856108","ma_51856108-as","ma_51856108-b","ma_51856108-bs",50.773,-1,3,21374,81,200,"1",21.374,1.32988580505443,0,1.32988580505443
"A27MJOV91GA8R3",NA,NA,"ma","4247084","ma_4247084-as","ma_4247084-b","ma_4247084-bs",65.267,-1,4,13392,233,59,"1",13.392,1.12684544064918,0,1.12684544064918
"A27MJOV91GA8R3",NA,NA,"ma","83785171","ma_83785171-as","ma_83785171-b","ma_83785171-bs",73.539,-1,5,7343,366,288,"1",7.343,0.865873528207815,0,0.865873528207815
"A27MJOV91GA8R3",NA,NA,"ma","79573638","ma_79573638-as","ma_79573638-b","ma_79573638-bs",81.137,-1,6,6689,310,153,"1",6.689,0.825361195952633,0,0.825361195952633
"A27MJOV91GA8R3",NA,NA,"ma","62096551","ma_62096551-as","ma_62096551-b","ma_62096551-bs",91.093,-1,7,8830,628,89,"1",8.83,0.945960703577569,0,0.945960703577569
"A27MJOV91GA8R3",NA,NA,"ma","13873251","ma_13873251-as","ma_13873251-b","ma_13873251-bs",101.06,-1,8,9056,80,292,"1",9.056,0.956936413844196,0,0.956936413844196
"A27MJOV91GA8R3",NA,NA,"ma","44993860","ma_44993860-as","ma_44993860-b","ma_44993860-bs",133.254,-1,10,8875,533,314,"1",8.875,0.948168361727132,0,0.948168361727132
"A27MJOV91GA8R3",NA,NA,"ma","3099758","ma_3099758-as","ma_3099758-b","ma_3099758-bs",143.546,-1,11,8823,341,407,"1",8.823,0.945616279226732,0,0.945616279226732
"A27MJOV91GA8R3",NA,NA,"ma","70687495","ma_70687495-as","ma_70687495-b","ma_70687495-bs",172.432,-1,13,19474,409,294,"1",19.474,1.28945516567028,0,1.28945516567028
"A27MJOV91GA8R3",NA,NA,"ma","18169626","ma_18169626-as","ma_18169626-b","ma_18169626-bs",179.758,-1,14,6800,381,281,"1",6.8,0.832508912706236,0,0.832508912706236
"A27MJOV91GA8R3",NA,NA,"ma","79241011","ma_79241011-as","ma_79241011-b","ma_79241011-bs",187.257,-1,15,6993,537,165,"1",6.993,0.844663528240239,0,0.844663528240239
"A27MJOV91GA8R3",NA,NA,"ma","74173745","ma_74173745-as","ma_74173745-b","ma_74173745-bs",196.397,-1,16,8631,371,400,"1",8.631,0.936061116609988,0,0.936061116609988
"A27MJOV91GA8R3",NA,NA,"ma","83691215","ma_83691215-as","ma_83691215-b","ma_83691215-bs",205.539,-1,17,8602,361,251,"1",8.602,0.934599438218073,0,0.934599438218073
"A27MJOV91GA8R3",NA,NA,"ma","24383097","ma_24383097-as","ma_24383097-b","ma_24383097-bs",214.654,-1,18,8546,122,131,"1",8.546,0.931762888481178,0,0.931762888481178
"A27MJOV91GA8R3",NA,NA,"ma","55174490","ma_55174490-as","ma_55174490-b","ma_55174490-bs",231.005,-1,19,15145,499,277,"1",15.145,1.18026927766887,0,1.18026927766887
"A27MJOV91GA8R3",NA,NA,"ma","98265889","ma_98265889-as","ma_98265889-b","ma_98265889-bs",239.24,-1,20,6642,445,216,"1",6.642,0.822298871262366,0,0.822298871262366
"A27MJOV91GA8R3",NA,NA,"ma","8974554","ma_8974554-as","ma_8974554-b","ma_8974554-bs",248.397,-1,21,8550,580,291,"1",8.55,0.931966114728173,0,0.931966114728173
"A27MJOV91GA8R3",NA,NA,"ma","25107991","ma_25107991-as","ma_25107991-b","ma_25107991-bs",256.449,-1,22,6996,343,171,"1",6.996,0.844849800806639,0,0.844849800806639
"A27MJOV91GA8R3",NA,NA,"ma","87983207","ma_87983207-as","ma_87983207-b","ma_87983207-bs",275.919,-1,23,18950,56,265,"1",18.95,1.27760921430409,0,1.27760921430409
"A27MJOV91GA8R3",NA,NA,"ma","57861456","ma_57861456-as","ma_57861456-b","ma_57861456-bs",285.421,-1,24,8532,311,145,"1",8.532,0.931050846777391,0,0.931050846777391
"A27MJOV91GA8R3",NA,NA,"ma","48384711","ma_48384711-as","ma_48384711-b","ma_48384711-bs",307.119,-1,25,21112,453,443,"1",21.112,1.32452937721199,0,1.32452937721199
"A27MJOV91GA8R3",NA,NA,"ma","12178414","ma_12178414-as","ma_12178414-b","ma_12178414-bs",317.268,-1,26,8907,309,194,"1",8.907,0.949731452315707,0,0.949731452315707
"A27MJOV91GA8R3",NA,NA,"ma","95091295","ma_95091295-as","ma_95091295-b","ma_95091295-bs",328.708,-1,27,10584,229,169,"1",10.584,1.02464983117944,0,1.02464983117944
"A27MJOV91GA8R3",NA,NA,"ma","46635293","ma_46635293-as","ma_46635293-b","ma_46635293-bs",344.992,-1,28,15177,209,401,"1",15.177,1.18118593412823,0,1.18118593412823
"A27MJOV91GA8R3",NA,NA,"ma","85741618","ma_85741618-as","ma_85741618-b","ma_85741618-bs",352.425,-1,29,6836,225,164,"1",6.836,0.834802054048699,0,0.834802054048699
"A27MJOV91GA8R3",NA,NA,"ma","89354846","ma_89354846-as","ma_89354846-b","ma_89354846-bs",367.601,-1,31,6840,354,233,"1",6.84,0.835056101720116,0,0.835056101720116
"A27MJOV91GA8R3",NA,NA,"ma","97475929","ma_97475929-as","ma_97475929-b","ma_97475929-bs",379.468,-1,32,10782,374,397,"1",10.782,1.03269932749262,0,1.03269932749262
"A296WX3QFEK7A0",NA,NA,"ma","27857618","ma_27857618-as","ma_27857618-b","ma_27857618-bs",112.087,-1,12,6846,267,97,"1",6.846,0.835436894801858,0,0.835436894801858
"A2CHDWKAYZ3P3E",NA,NA,"ma","77345858","ma_77345858-as","ma_77345858-b","ma_77345858-bs",167.847,-1,3,8678,330,361,"1",8.678,0.938419645793193,0,0.938419645793193
"A2CHDWKAYZ3P3E",NA,NA,"ma","79222679","ma_79222679-as","ma_79222679-b","ma_79222679-bs",175.126,-1,4,6499,535,159,"1",6.499,0.812846536967071,0,0.812846536967071
"A2CHDWKAYZ3P3E",NA,NA,"ma","51856108","ma_51856108-as","ma_51856108-b","ma_51856108-bs",183.263,-1,5,7494,45,217,"1",7.494,0.874713688757779,0,0.874713688757779
"A2CHDWKAYZ3P3E",NA,NA,"ma","79241011","ma_79241011-as","ma_79241011-b","ma_79241011-bs",190.691,-1,6,6677,563,162,"1",6.677,0.824581376233483,0,0.824581376233483
"A2CHDWKAYZ3P3E",NA,NA,"ma","18169626","ma_18169626-as","ma_18169626-b","ma_18169626-bs",198.054,-1,7,6488,355,268,"1",6.488,0.8121108412031,0,0.8121108412031
"A2CHDWKAYZ3P3E",NA,NA,"ma","75958241","ma_75958241-as","ma_75958241-b","ma_75958241-bs",205.15,-1,8,6527,394,376,"1",6.527,0.814713612695977,0,0.814713612695977
"A2CHDWKAYZ3P3E",NA,NA,"ma","48486405","ma_48486405-as","ma_48486405-b","ma_48486405-bs",233.134,-1,11,6718,311,357,"1",6.718,0.827239999505646,0,0.827239999505646
"A2CHDWKAYZ3P3E",NA,NA,"ma","62224663","ma_62224663-as","ma_62224663-b","ma_62224663-bs",240.294,-1,12,6503,456,209,"1",6.503,0.813113754007899,0,0.813113754007899
"A2CHDWKAYZ3P3E",NA,NA,"ma","74173745","ma_74173745-as","ma_74173745-b","ma_74173745-bs",247.294,-1,13,6444,370,402,"1",6.444,0.80915553174718,0,0.80915553174718
"A2CHDWKAYZ3P3E",NA,NA,"ma","1191801","ma_1191801-as","ma_1191801-b","ma_1191801-bs",254.503,-1,14,6462,222,158,"1",6.462,0.810366953681625,0,0.810366953681625
"A2CHDWKAYZ3P3E",NA,NA,"ma","56835136","ma_56835136-as","ma_56835136-b","ma_56835136-bs",261.822,-1,15,6652,557,347,"1",6.652,0.822952240547482,0,0.822952240547482
"A2CHDWKAYZ3P3E",NA,NA,"ma","10810329","ma_10810329-as","ma_10810329-b","ma_10810329-bs",276.71,-1,17,6484,232,291,"1",6.484,0.811843006176477,0,0.811843006176477
"A2CHDWKAYZ3P3E",NA,NA,"ma","98156944","ma_98156944-as","ma_98156944-b","ma_98156944-bs",284.094,-1,18,6527,40,164,"1",6.527,0.814713612695977,0,0.814713612695977
"A2CHDWKAYZ3P3E",NA,NA,"ma","62096551","ma_62096551-as","ma_62096551-b","ma_62096551-bs",298.68,-1,20,6532,614,92,"1",6.532,0.815046176064631,0,0.815046176064631
"A2CHDWKAYZ3P3E",NA,NA,"ma","32289063","ma_32289063-as","ma_32289063-b","ma_32289063-bs",305.902,-1,21,6436,331,308,"1",6.436,0.808616035426992,0,0.808616035426992
"A2CHDWKAYZ3P3E",NA,NA,"ma","27857618","ma_27857618-as","ma_27857618-b","ma_27857618-bs",313.575,-1,22,6461,266,84,"1",6.461,0.810299741040169,0,0.810299741040169
"A2CHDWKAYZ3P3E",NA,NA,"ma","8974554","ma_8974554-as","ma_8974554-b","ma_8974554-bs",321.206,-1,23,6483,577,286,"1",6.483,0.811776021602904,0,0.811776021602904
"A2CHDWKAYZ3P3E",NA,NA,"ma","22020472","ma_22020472-as","ma_22020472-b","ma_22020472-bs",328.47,-1,24,6446,614,303,"1",6.446,0.809290301176316,0,0.809290301176316
"A2CHDWKAYZ3P3E",NA,NA,"ma","31236119","ma_31236119-as","ma_31236119-b","ma_31236119-bs",336.102,-1,25,6494,491,53,"1",6.494,0.812512284289983,0,0.812512284289983
"A2CHDWKAYZ3P3E",NA,NA,"ma","77793328","ma_77793328-as","ma_77793328-b","ma_77793328-bs",343.094,-1,26,6426,559,289,"1",6.426,0.807940721215499,0,0.807940721215499
"A2CHDWKAYZ3P3E",NA,NA,"ma","46475259","ma_46475259-as","ma_46475259-b","ma_46475259-bs",350.326,-1,27,6487,405,460,"1",6.487,0.812043897930227,0,0.812043897930227
"A2CHDWKAYZ3P3E",NA,NA,"ma","97475929","ma_97475929-as","ma_97475929-b","ma_97475929-bs",357.67,-1,28,6432,367,394,"1",6.432,0.808346035740395,0,0.808346035740395
"A2CHDWKAYZ3P3E",NA,NA,"ma","55174490","ma_55174490-as","ma_55174490-b","ma_55174490-bs",364.814,-1,29,6436,496,273,"1",6.436,0.808616035426992,0,0.808616035426992
"A2CHDWKAYZ3P3E",NA,NA,"ma","25107991","ma_25107991-as","ma_25107991-b","ma_25107991-bs",372.079,-1,30,6467,341,169,"1",6.467,0.810702860947117,0,0.810702860947117
"A2CHDWKAYZ3P3E",NA,NA,"ma","57861456","ma_57861456-as","ma_57861456-b","ma_57861456-bs",379.622,-1,31,6412,311,150,"1",6.412,0.806993513682107,0,0.806993513682107
"A2CHDWKAYZ3P3E",NA,NA,"ma","24383097","ma_24383097-as","ma_24383097-b","ma_24383097-bs",386.894,-1,32,6414,103,120,"1",6.414,0.807128955592422,0,0.807128955592422
"A2CK0OXMPOR9LE",NA,NA,"ma","57861456","ma_57861456-as","ma_57861456-b","ma_57861456-bs",42.202,-1,3,6750,316,112,"1",6.75,0.829303772831025,0,0.829303772831025
"A2CK0OXMPOR9LE",NA,NA,"ma","69128765","ma_69128765-as","ma_69128765-b","ma_69128765-bs",50.661,-1,4,7938,167,286,"1",7.938,0.899711094571145,0,0.899711094571145
"A2CK0OXMPOR9LE",NA,NA,"ma","23199105","ma_23199105-as","ma_23199105-b","ma_23199105-bs",60.327,-1,5,9001,549,67,"1",9.001,0.954290761701127,0,0.954290761701127
"A2CK0OXMPOR9LE",NA,NA,"ma","51856108","ma_51856108-as","ma_51856108-b","ma_51856108-bs",67.824,-1,6,7172,48,197,"1",7.172,0.855640280890145,0,0.855640280890145
"A2CK0OXMPOR9LE",NA,NA,"ma","75958241","ma_75958241-as","ma_75958241-b","ma_75958241-bs",76.055,-1,7,7789,404,369,"1",7.789,0.89148170383952,0,0.89148170383952
"A2CK0OXMPOR9LE",NA,NA,"ma","79191795","ma_79191795-as","ma_79191795-b","ma_79191795-bs",83.585,-1,8,7210,386,48,"1",7.21,0.857935264719429,0,0.857935264719429
"A2CK0OXMPOR9LE",NA,NA,"ma","83536470","ma_83536470-as","ma_83536470-b","ma_83536470-bs",91.101,-1,9,6951,200,205,"1",6.951,0.842047288509638,0,0.842047288509638
"A2CK0OXMPOR9LE",NA,NA,"ma","24383097","ma_24383097-as","ma_24383097-b","ma_24383097-bs",105.6,-1,11,6621,113,108,"1",6.621,0.820923587881317,0,0.820923587881317
"A2CK0OXMPOR9LE",NA,NA,"ma","75081153","ma_75081153-as","ma_75081153-b","ma_75081153-bs",113.22,-1,12,7255,213,381,"1",7.255,0.860637416773755,0,0.860637416773755
"A2CK0OXMPOR9LE",NA,NA,"ma","83691215","ma_83691215-as","ma_83691215-b","ma_83691215-bs",120.367,-1,13,6710,362,253,"1",6.71,0.826722520168992,0,0.826722520168992
"A2CK0OXMPOR9LE",NA,NA,"ma","86520382","ma_86520382-as","ma_86520382-b","ma_86520382-bs",132.048,-1,14,10725,629,342,"1",10.725,1.03039730085676,0,1.03039730085676
"A2CK0OXMPOR9LE",NA,NA,"ma","79222679","ma_79222679-as","ma_79222679-b","ma_79222679-bs",139.2,-1,15,6604,533,169,"1",6.604,0.819807064590756,0,0.819807064590756
"A2CK0OXMPOR9LE",NA,NA,"ma","77793328","ma_77793328-as","ma_77793328-b","ma_77793328-bs",146.615,-1,16,6616,574,275,"1",6.616,0.82059549654449,0,0.82059549654449
"A2CK0OXMPOR9LE",NA,NA,"ma","87983207","ma_87983207-as","ma_87983207-b","ma_87983207-bs",154.17,-1,17,6751,47,257,"1",6.751,0.82936810798882,0,0.82936810798882
"A2CK0OXMPOR9LE",NA,NA,"ma","1383096","ma_1383096-as","ma_1383096-b","ma_1383096-bs",162.039,-1,18,6714,469,13,"1",6.714,0.826981336911994,0,0.826981336911994
"A2CK0OXMPOR9LE",NA,NA,"ma","79573638","ma_79573638-as","ma_79573638-b","ma_79573638-bs",168.968,-1,19,6523,297,123,"1",6.523,0.814447378522488,0,0.814447378522488
"A2CK0OXMPOR9LE",NA,NA,"ma","98156944","ma_98156944-as","ma_98156944-b","ma_98156944-bs",183.559,-1,21,6781,27,113,"1",6.781,0.83129374437701,0,0.83129374437701
"A2CK0OXMPOR9LE",NA,NA,"ma","10504629","ma_10504629-as","ma_10504629-b","ma_10504629-bs",190.553,-1,22,6589,32,239,"1",6.589,0.818819507547536,0,0.818819507547536
"A2CK0OXMPOR9LE",NA,NA,"ma","62224663","ma_62224663-as","ma_62224663-b","ma_62224663-bs",197.77,-1,23,6710,463,212,"1",6.71,0.826722520168992,0,0.826722520168992
"A2CK0OXMPOR9LE",NA,NA,"ma","31236119","ma_31236119-as","ma_31236119-b","ma_31236119-bs",204.975,-1,24,6676,484,59,"1",6.676,0.824516328007209,0,0.824516328007209
"A2CK0OXMPOR9LE",NA,NA,"ma","77574131","ma_77574131-as","ma_77574131-b","ma_77574131-bs",212.104,-1,25,6607,63,96,"1",6.607,0.820004306808318,0,0.820004306808318
"A2CK0OXMPOR9LE",NA,NA,"ma","62096551","ma_62096551-as","ma_62096551-b","ma_62096551-bs",219.555,-1,26,6621,617,90,"1",6.621,0.820923587881317,0,0.820923587881317
"A2CK0OXMPOR9LE",NA,NA,"ma","77345858","ma_77345858-as","ma_77345858-b","ma_77345858-bs",226.927,-1,27,6767,296,361,"1",6.767,0.830396176483469,0,0.830396176483469
"A2CK0OXMPOR9LE",NA,NA,"ma","13873251","ma_13873251-as","ma_13873251-b","ma_13873251-bs",241.682,-1,29,6587,87,298,"1",6.587,0.818687663441514,0,0.818687663441514
"A2CK0OXMPOR9LE",NA,NA,"ma","72488522","ma_72488522-as","ma_72488522-b","ma_72488522-bs",248.772,-1,30,6701,371,271,"1",6.701,0.826139617935915,0,0.826139617935915
"A2CK0OXMPOR9LE",NA,NA,"ma","38466626","ma_38466626-as","ma_38466626-b","ma_38466626-bs",256.103,-1,31,6668,380,443,"1",6.668,0.823995591155968,0,0.823995591155968
"A2D9ZZDR43R34Q",NA,NA,"ma","90405028","ma_90405028-as","ma_90405028-b","ma_90405028-bs",73.356,-1,8,6788,321,344,"1",6.788,0.831741833645638,0,0.831741833645638
"A2D9ZZDR43R34Q",NA,NA,"ma","27857618","ma_27857618-as","ma_27857618-b","ma_27857618-bs",82.276,-1,9,7563,279,59,"1",7.563,0.878694100396108,0,0.878694100396108
"A2D9ZZDR43R34Q",NA,NA,"ma","79222679","ma_79222679-as","ma_79222679-b","ma_79222679-bs",215.366,-1,24,7208,547,140,"1",7.208,0.857814777971007,0,0.857814777971007
"A2EDTABT10HQA4",NA,NA,"ma","86520382","ma_86520382-as","ma_86520382-b","ma_86520382-bs",277.802,-1,4,31752,630,330,"1",31.752,1.50177108589911,0,1.50177108589911
"A2EDTABT10HQA4",NA,NA,"ma","27857618","ma_27857618-as","ma_27857618-b","ma_27857618-bs",339.441,-1,9,7854,242,54,"1",7.854,0.895090896934399,0,0.895090896934399
"A2EDTABT10HQA4",NA,NA,"ma","23199105","ma_23199105-as","ma_23199105-b","ma_23199105-bs",384.826,-1,13,9178,535,62,"1",9.178,0.962748053358641,0,0.962748053358641
"A2EDTABT10HQA4",NA,NA,"ma","23024660","ma_23024660-as","ma_23024660-b","ma_23024660-bs",436.699,-1,17,8907,390,215,"1",8.907,0.949731452315707,0,0.949731452315707
"A2EDTABT10HQA4",NA,NA,"ma","98156944","ma_98156944-as","ma_98156944-b","ma_98156944-bs",445.997,-1,18,8142,31,142,"1",8.142,0.910731098043381,0,0.910731098043381
"A2EDTABT10HQA4",NA,NA,"ma","51537628","ma_51537628-as","ma_51537628-b","ma_51537628-bs",472.719,-1,20,8870,517,217,"1",8.87,0.947923619831726,0,0.947923619831726
"A2EDTABT10HQA4",NA,NA,"ma","12115280","ma_12115280-as","ma_12115280-b","ma_12115280-bs",482.332,-1,21,8417,411,218,"1",8.417,0.925157327175898,0,0.925157327175898
"A2EDTABT10HQA4",NA,NA,"ma","48486405","ma_48486405-as","ma_48486405-b","ma_48486405-bs",496.532,-1,22,4337,342,346,"1",4.337,0.637189422148762,0,0.637189422148762
"A2EDTABT10HQA4",NA,NA,"ma","10504629","ma_10504629-as","ma_10504629-b","ma_10504629-bs",506.232,-1,23,8349,6,261,"1",8.349,0.921634461053705,0,0.921634461053705
"A2EDTABT10HQA4",NA,NA,"ma","38466626","ma_38466626-as","ma_38466626-b","ma_38466626-bs",516.366,-1,24,8690,358,442,"1",8.69,0.939019776448666,0,0.939019776448666
"A2EDTABT10HQA4",NA,NA,"ma","46635293","ma_46635293-as","ma_46635293-b","ma_46635293-bs",554.51,-1,27,9039,209,407,"1",9.039,0.95612038639302,0,0.95612038639302
"A2EDTABT10HQA4",NA,NA,"ma","67862299","ma_67862299-as","ma_67862299-b","ma_67862299-bs",565.83,-1,28,9598,108,225,"1",9.598,0.982180745596403,0,0.982180745596403
"A2FOUSWQDYHIE0",NA,NA,"ma","51537628","ma_51537628-as","ma_51537628-b","ma_51537628-bs",143.769,-1,9,10813,520,234,"1",10.813,1.03394620299036,0,1.03394620299036
"A2FOUSWQDYHIE0",NA,NA,"ma","72488522","ma_72488522-as","ma_72488522-b","ma_72488522-bs",152.978,-1,10,8419,373,272,"1",8.419,0.925260509519435,0,0.925260509519435
"A2FOUSWQDYHIE0",NA,NA,"ma","46635293","ma_46635293-as","ma_46635293-b","ma_46635293-bs",176.326,-1,12,10562,209,400,"1",10.562,1.02374616315248,0,1.02374616315248
"A2FOUSWQDYHIE0",NA,NA,"ma","23024660","ma_23024660-as","ma_23024660-b","ma_23024660-bs",186.12,-1,13,8651,384,204,"1",8.651,0.937066312017428,0,0.937066312017428
"A2FOUSWQDYHIE0",NA,NA,"ma","74173745","ma_74173745-as","ma_74173745-b","ma_74173745-bs",196.062,-1,14,8835,373,403,"1",8.835,0.946206553842783,0,0.946206553842783
"A2FOUSWQDYHIE0",NA,NA,"ma","75958241","ma_75958241-as","ma_75958241-b","ma_75958241-bs",207.201,-1,15,10078,395,374,"1",10.078,1.00337435401975,0,1.00337435401975
"A2FOUSWQDYHIE0",NA,NA,"ma","13141692","ma_13141692-as","ma_13141692-b","ma_13141692-bs",218.036,-1,16,9759,568,398,"1",9.759,0.989405318001516,0,0.989405318001516
"A2FOUSWQDYHIE0",NA,NA,"ma","4247084","ma_4247084-as","ma_4247084-b","ma_4247084-bs",231.444,-1,17,11606,231,36,"1",11.606,1.06468256622851,0,1.06468256622851
"A2FOUSWQDYHIE0",NA,NA,"ma","38466626","ma_38466626-as","ma_38466626-b","ma_38466626-bs",242.474,-1,18,9908,346,452,"1",9.908,0.995985997913799,0,0.995985997913799
"A2FOUSWQDYHIE0",NA,NA,"ma","67862299","ma_67862299-as","ma_67862299-b","ma_67862299-bs",258.907,-1,19,14741,86,227,"1",14.741,1.16852694619269,0,1.16852694619269
"A2FOUSWQDYHIE0",NA,NA,"ma","25107991","ma_25107991-as","ma_25107991-b","ma_25107991-bs",267.569,-1,20,7440,344,175,"1",7.44,0.871572935545879,0,0.871572935545879
"A2FOUSWQDYHIE0",NA,NA,"ma","12178414","ma_12178414-as","ma_12178414-b","ma_12178414-bs",279.649,-1,21,9763,303,197,"1",9.763,0.989583289311005,0,0.989583289311005
"A2FOUSWQDYHIE0",NA,NA,"ma","77345858","ma_77345858-as","ma_77345858-b","ma_77345858-bs",295.428,-1,22,14710,322,376,"1",14.71,1.16761267272753,0,1.16761267272753
"A2FOUSWQDYHIE0",NA,NA,"ma","95091295","ma_95091295-as","ma_95091295-b","ma_95091295-bs",307.089,-1,23,10683,211,157,"1",10.683,1.02869322839392,0,1.02869322839392
"A2FOUSWQDYHIE0",NA,NA,"ma","79573638","ma_79573638-as","ma_79573638-b","ma_79573638-bs",318.091,-1,24,7229,303,140,"1",7.229,0.859078224746969,0,0.859078224746969
"A2FOUSWQDYHIE0",NA,NA,"ma","3099758","ma_3099758-as","ma_3099758-b","ma_3099758-bs",327.952,-1,26,8751,337,413,"1",8.751,0.942057683841395,0,0.942057683841395
"A2FOUSWQDYHIE0",NA,NA,"ma","51856108","ma_51856108-as","ma_51856108-b","ma_51856108-bs",337.415,-1,27,8519,47,214,"1",8.519,0.930388618244322,0,0.930388618244322
"A2FOUSWQDYHIE0",NA,NA,"ma","23199105","ma_23199105-as","ma_23199105-b","ma_23199105-bs",363.626,-1,29,8033,546,76,"1",8.033,0.904877766963405,0,0.904877766963405
"A2FOUSWQDYHIE0",NA,NA,"ma","31236119","ma_31236119-as","ma_31236119-b","ma_31236119-bs",372.836,-1,30,7925,472,68,"1",7.925,0.898999270889789,0,0.898999270889789
"A2FOUSWQDYHIE0",NA,NA,"ma","18345691","ma_18345691-as","ma_18345691-b","ma_18345691-bs",382.577,-1,31,8586,281,54,"1",8.586,0.93379088414342,0,0.93379088414342
"A2FOUSWQDYHIE0",NA,NA,"ma","79241011","ma_79241011-as","ma_79241011-b","ma_79241011-bs",392.413,-1,32,9099,585,201,"1",9.099,0.958993665030326,0,0.958993665030326
"A2FUBB07Z98ZPC",NA,NA,"ma","62096551","ma_62096551-as","ma_62096551-b","ma_62096551-bs",37.696,-1,3,6510,623,85,"1",6.51,0.813580988568192,0,0.813580988568192
"A2FUBB07Z98ZPC",NA,NA,"ma","13141692","ma_13141692-as","ma_13141692-b","ma_13141692-bs",45.406,-1,4,6587,565,386,"1",6.587,0.818687663441514,0,0.818687663441514
