"workerId","assignmentId","hitId","database","image","unmod_image_splash","mod_image","mod_image_splash","expTimer","response","trial_number","rt","x","y","click_acc","rt_s","log_rt","outliers","removed_RT"
"A10MSB9X1UFLJ5",NA,NA,"rensink","Beach","rensink_Beach-as","rensink_Beach-b","rensink_Beach-bs",94.309,-1,3,6951,524,404,"1",6.951,0.842047288509638,0,0.842047288509638
"A10MSB9X1UFLJ5",NA,NA,"rensink","Station","rensink_Station-as","rensink_Station-b","rensink_Station-bs",106.023,-1,4,10766,588,229,"1",10.766,1.03205437547967,0,1.03205437547967
"A10MSB9X1UFLJ5",NA,NA,"rensink","Camel","rensink_Camel-as","rensink_Camel-b","rensink_Camel-bs",114.289,-1,5,7083,676,230,"1",7.083,0.850217241798389,0,0.850217241798389
"A10MSB9X1UFLJ5",NA,NA,"rensink","BarnTrack","rensink_BarnTrack-as","rensink_BarnTrack-b","rensink_BarnTrack-bs",122.295,-1,6,6850,232,463,"1",6.85,0.835690571492426,0,0.835690571492426
"A10MSB9X1UFLJ5",NA,NA,"rensink","Lake","rensink_Lake-as","rensink_Lake-b","rensink_Lake-bs",133.129,-1,7,6795,465,287,"1",6.795,0.832189461068513,0,0.832189461068513
"A10MSB9X1UFLJ5",NA,NA,"rensink","Barrels","rensink_Barrels-as","rensink_Barrels-b","rensink_Barrels-bs",141.455,-1,9,7216,663,484,"1",7.216,0.858296524533885,0,0.858296524533885
"A10MSB9X1UFLJ5",NA,NA,"rensink","Chopper","rensink_Chopper-as","rensink_Chopper-b","rensink_Chopper-bs",155.541,-1,10,13102,129,445,"1",13.102,1.11733759509592,0,1.11733759509592
"A10MSB9X1UFLJ5",NA,NA,"rensink","Description","rensink_Description-as","rensink_Description-b","rensink_Description-bs",171.473,-1,11,14929,654,152,"1",14.929,1.17403071803803,0,1.17403071803803
"A10MSB9X1UFLJ5",NA,NA,"rensink","Kayak","rensink_Kayak-as","rensink_Kayak-b","rensink_Kayak-bs",179.477,-1,12,6857,271,328,"1",6.857,0.836134149465375,0,0.836134149465375
"A10MSB9X1UFLJ5",NA,NA,"rensink","Window","rensink_Window-as","rensink_Window-b","rensink_Window-bs",190.089,-1,13,10049,57,406,"1",10.049,1.00212284622516,0,1.00212284622516
"A10MSB9X1UFLJ5",NA,NA,"rensink","Kids","rensink_Kids-as","rensink_Kids-b","rensink_Kids-bs",198.88,-1,14,7144,98,308,"1",7.144,0.85394144588049,0,0.85394144588049
"A10MSB9X1UFLJ5",NA,NA,"rensink","Army","rensink_Army-as","rensink_Army-b","rensink_Army-bs",208.905,-1,15,8910,645,210,"1",8.91,0.949877704036875,0,0.949877704036875
"A10MSB9X1UFLJ5",NA,NA,"rensink","Market","rensink_Market-as","rensink_Market-b","rensink_Market-bs",217.159,-1,16,6715,68,315,"1",6.715,0.827046017004734,0,0.827046017004734
"A10MSB9X1UFLJ5",NA,NA,"rensink","Cactus","rensink_Cactus-as","rensink_Cactus-b","rensink_Cactus-bs",225.756,-1,17,6694,101,229,"1",6.694,0.825685708021758,0,0.825685708021758
"A10MSB9X1UFLJ5",NA,NA,"rensink","FarmByPond","rensink_FarmByPond-as","rensink_FarmByPond-b","rensink_FarmByPond-bs",235.913,-1,19,9666,239,411,"1",9.666,0.985246790802862,0,0.985246790802862
"A10MSB9X1UFLJ5",NA,NA,"rensink","Nurses","rensink_Nurses-as","rensink_Nurses-b","rensink_Nurses-bs",243.895,-1,20,7082,622,131,"1",7.082,0.850155922422092,0,0.850155922422092
"A10MSB9X1UFLJ5",NA,NA,"rensink","Barns","rensink_Barns-as","rensink_Barns-b","rensink_Barns-bs",252.067,-1,21,6804,185,360,"1",6.804,0.832764304940531,0,0.832764304940531
"A10MSB9X1UFLJ5",NA,NA,"rensink","Cockpit","rensink_Cockpit-as","rensink_Cockpit-b","rensink_Cockpit-bs",261.816,-1,22,8866,374,173,"1",8.866,0.947727726963316,0,0.947727726963316
"A10MSB9X1UFLJ5",NA,NA,"rensink","Dinner","rensink_Dinner-as","rensink_Dinner-b","rensink_Dinner-bs",269.554,-1,23,6851,307,267,"1",6.851,0.835753967519383,0,0.835753967519383
"A10MSB9X1UFLJ5",NA,NA,"rensink","Eating","rensink_Eating-as","rensink_Eating-b","rensink_Eating-bs",279.652,-1,24,8921,337,250,"1",8.921,0.950413539369381,0,0.950413539369381
"A10MSB9X1UFLJ5",NA,NA,"rensink","Fishing","rensink_Fishing-as","rensink_Fishing-b","rensink_Fishing-bs",287.688,-1,25,6870,219,312,"1",6.87,0.83695673705955,0,0.83695673705955
"A10MSB9X1UFLJ5",NA,NA,"rensink","NotreDame","rensink_NotreDame-as","rensink_NotreDame-b","rensink_NotreDame-bs",295.446,-1,26,6808,345,160,"1",6.808,0.833019547076531,0,0.833019547076531
"A10MSB9X1UFLJ5",NA,NA,"rensink","Obelisk","rensink_Obelisk-as","rensink_Obelisk-b","rensink_Obelisk-bs",309.116,-1,27,13184,612,258,"1",13.184,1.12004719435304,0,1.12004719435304
"A10MSB9X1UFLJ5",NA,NA,"rensink","Floatplane","rensink_Floatplane-as","rensink_Floatplane-b","rensink_Floatplane-bs",316.93,-1,28,6992,229,317,"1",6.992,0.844601419626347,0,0.844601419626347
"A10MSB9X1UFLJ5",NA,NA,"rensink","Amish","rensink_Amish-as","rensink_Amish-b","rensink_Amish-bs",325.188,-1,29,6846,272,219,"1",6.846,0.835436894801858,0,0.835436894801858
"A10MSB9X1UFLJ5",NA,NA,"rensink","Ice","rensink_Ice-as","rensink_Ice-b","rensink_Ice-bs",335.338,-1,30,8911,77,241,"1",8.911,0.949926443667912,0,0.949926443667912
"A10MSB9X1UFLJ5",NA,NA,"rensink","Birds","rensink_Birds-as","rensink_Birds-b","rensink_Birds-bs",345.458,-1,31,8821,329,15,"1",8.821,0.94551782207784,0,0.94551782207784
"A10MSB9X1UFLJ5",NA,NA,"rensink","Horizon","rensink_Horizon-as","rensink_Horizon-b","rensink_Horizon-bs",356.894,-1,32,10723,327,66,"1",10.723,1.03031630598859,0,1.03031630598859
"A171RZ3O028XF6",NA,NA,"rensink","Turtle","rensink_Turtle-as","rensink_Turtle-b","rensink_Turtle-bs",43.165,-1,3,6455,201,27,"1",6.455,0.809896246602439,0,0.809896246602439
"A171RZ3O028XF6",NA,NA,"rensink","Market","rensink_Market-as","rensink_Market-b","rensink_Market-bs",59.805,-1,5,6588,50,380,"1",6.588,0.818753590497717,0,0.818753590497717
"A171RZ3O028XF6",NA,NA,"rensink","Pilots","rensink_Pilots-as","rensink_Pilots-b","rensink_Pilots-bs",79.145,-1,7,8591,689,207,"1",8.591,0.934043719035525,0,0.934043719035525
"A171RZ3O028XF6",NA,NA,"rensink","OtherDiver","rensink_OtherDiver-as","rensink_OtherDiver-b","rensink_OtherDiver-bs",88.829,-1,8,8494,622,262,"1",8.494,0.929112256654661,0,0.929112256654661
"A171RZ3O028XF6",NA,NA,"rensink","Description","rensink_Description-as","rensink_Description-b","rensink_Description-bs",96.441,-1,9,6521,650,150,"1",6.521,0.81431420020746,0,0.81431420020746
"A171RZ3O028XF6",NA,NA,"rensink","NotreDame","rensink_NotreDame-as","rensink_NotreDame-b","rensink_NotreDame-bs",115.759,-1,11,7466,360,171,"1",7.466,0.873087985590286,0,0.873087985590286
"A171RZ3O028XF6",NA,NA,"rensink","Lake","rensink_Lake-as","rensink_Lake-b","rensink_Lake-bs",123.774,-1,12,6709,480,292,"1",6.709,0.826657791875869,0,0.826657791875869
"A171RZ3O028XF6",NA,NA,"rensink","SummerLake","rensink_SummerLake-as","rensink_SummerLake-b","rensink_SummerLake-bs",132.493,-1,13,7393,531,329,"1",7.393,0.868820706197517,0,0.868820706197517
"A171RZ3O028XF6",NA,NA,"rensink","FarmByPond","rensink_FarmByPond-as","rensink_FarmByPond-b","rensink_FarmByPond-bs",141.453,-1,14,7737,228,414,"1",7.737,0.8885725968576,0,0.8885725968576
"A171RZ3O028XF6",NA,NA,"rensink","Harbor","rensink_Harbor-as","rensink_Harbor-b","rensink_Harbor-bs",149.499,-1,15,6738,363,329,"1",6.738,0.828531006645101,0,0.828531006645101
"A171RZ3O028XF6",NA,NA,"rensink","Dinner","rensink_Dinner-as","rensink_Dinner-b","rensink_Dinner-bs",158.267,-1,16,7739,310,257,"1",7.739,0.888684846659699,0,0.888684846659699
"A171RZ3O028XF6",NA,NA,"rensink","Kayaker","rensink_Kayaker-as","rensink_Kayaker-b","rensink_Kayaker-bs",167.18,-1,17,7057,442,184,"1",7.057,0.848620117434134,0,0.848620117434134
"A171RZ3O028XF6",NA,NA,"rensink","Station","rensink_Station-as","rensink_Station-b","rensink_Station-bs",184.283,-1,19,6937,585,225,"1",6.937,0.841171694499532,0,0.841171694499532
"A171RZ3O028XF6",NA,NA,"rensink","Seal","rensink_Seal-as","rensink_Seal-b","rensink_Seal-bs",194.278,-1,20,8728,379,232,"1",8.728,0.940914737580285,0,0.940914737580285
"A171RZ3O028XF6",NA,NA,"rensink","Window","rensink_Window-as","rensink_Window-b","rensink_Window-bs",202.054,-1,21,6576,67,418,"1",6.576,0.817961804531994,0,0.817961804531994
"A171RZ3O028XF6",NA,NA,"rensink","Kids","rensink_Kids-as","rensink_Kids-b","rensink_Kids-bs",210.138,-1,22,6594,94,308,"1",6.594,0.819148942807134,0,0.819148942807134
"A171RZ3O028XF6",NA,NA,"rensink","Army","rensink_Army-as","rensink_Army-b","rensink_Army-bs",219.061,-1,23,7761,638,205,"1",7.761,0.889917683436206,0,0.889917683436206
"A171RZ3O028XF6",NA,NA,"rensink","Floatplane","rensink_Floatplane-as","rensink_Floatplane-b","rensink_Floatplane-bs",227.269,-1,24,6677,278,319,"1",6.677,0.824581376233483,0,0.824581376233483
"A171RZ3O028XF6",NA,NA,"rensink","Egypt","rensink_Egypt-as","rensink_Egypt-b","rensink_Egypt-bs",235.198,-1,25,6641,361,190,"1",6.641,0.822233480238844,0,0.822233480238844
"A171RZ3O028XF6",NA,NA,"rensink","Horizon","rensink_Horizon-as","rensink_Horizon-b","rensink_Horizon-bs",242.934,-1,26,6559,341,69,"1",6.559,0.816837630902035,0,0.816837630902035
"A171RZ3O028XF6",NA,NA,"rensink","Farmer","rensink_Farmer-as","rensink_Farmer-b","rensink_Farmer-bs",250.96,-1,27,6617,289,198,"1",6.617,0.820661134643595,0,0.820661134643595
"A171RZ3O028XF6",NA,NA,"rensink","Cockpit","rensink_Cockpit-as","rensink_Cockpit-b","rensink_Cockpit-bs",258.841,-1,28,6799,408,112,"1",6.799,0.832445041174111,0,0.832445041174111
"A171RZ3O028XF6",NA,NA,"rensink","Barrels","rensink_Barrels-as","rensink_Barrels-b","rensink_Barrels-bs",267.321,-1,29,6561,629,483,"1",6.561,0.816970037757299,0,0.816970037757299
"A171RZ3O028XF6",NA,NA,"rensink","Diver","rensink_Diver-as","rensink_Diver-b","rensink_Diver-bs",274.963,-1,30,6549,195,362,"1",6.549,0.816174990428802,0,0.816174990428802
"A171RZ3O028XF6",NA,NA,"rensink","Boat","rensink_Boat-as","rensink_Boat-b","rensink_Boat-bs",282.911,-1,31,6860,209,277,"1",6.86,0.836324115706752,0,0.836324115706752
"A171RZ3O028XF6",NA,NA,"rensink","Obelisk","rensink_Obelisk-as","rensink_Obelisk-b","rensink_Obelisk-bs",292.75,-1,32,8658,582,248,"1",8.658,0.937417581477138,0,0.937417581477138
"A1ESQQT4HBLB52",NA,NA,"rensink","Horizon","rensink_Horizon-as","rensink_Horizon-b","rensink_Horizon-bs",74.737,-1,4,12721,326,68,"1",12.721,1.10452125261833,0,1.10452125261833
"A1ESQQT4HBLB52",NA,NA,"rensink","Water","rensink_Water-as","rensink_Water-b","rensink_Water-bs",83.359,-1,5,7386,436,407,"1",7.386,0.86840930331496,0,0.86840930331496
"A1ESQQT4HBLB52",NA,NA,"rensink","Obelisk","rensink_Obelisk-as","rensink_Obelisk-b","rensink_Obelisk-bs",98.852,-1,6,14679,597,253,"1",14.679,1.1666964704796,0,1.1666964704796
"A1ESQQT4HBLB52",NA,NA,"rensink","Fountain","rensink_Fountain-as","rensink_Fountain-b","rensink_Fountain-bs",107.201,-1,7,7367,441,126,"1",7.367,0.867290669854884,0,0.867290669854884
"A1ESQQT4HBLB52",NA,NA,"rensink","Mosque","rensink_Mosque-as","rensink_Mosque-b","rensink_Mosque-bs",115.481,-1,8,7289,373,156,"1",7.289,0.862667950228588,0,0.862667950228588
"A1ESQQT4HBLB52",NA,NA,"rensink","Egypt","rensink_Egypt-as","rensink_Egypt-b","rensink_Egypt-bs",123.136,-1,9,6620,394,286,"1",6.62,0.8208579894397,0,0.8208579894397
"A1ESQQT4HBLB52",NA,NA,"rensink","Diver","rensink_Diver-as","rensink_Diver-b","rensink_Diver-bs",134.349,-1,10,9815,131,377,"1",9.815,0.991890303936025,0,0.991890303936025
"A1ESQQT4HBLB52",NA,NA,"rensink","Window","rensink_Window-as","rensink_Window-b","rensink_Window-bs",153.951,-1,13,10525,76,388,"1",10.525,1.02222210450771,0,1.02222210450771
"A1ESQQT4HBLB52",NA,NA,"rensink","Turtle","rensink_Turtle-as","rensink_Turtle-b","rensink_Turtle-bs",161.929,-1,14,6965,240,60,"1",6.965,0.842921120759982,0,0.842921120759982
"A1ESQQT4HBLB52",NA,NA,"rensink","FarmByPond","rensink_FarmByPond-as","rensink_FarmByPond-b","rensink_FarmByPond-bs",170.136,-1,15,7120,222,419,"1",7.12,0.852479993636856,0,0.852479993636856
"A1ESQQT4HBLB52",NA,NA,"rensink","OtherDiver","rensink_OtherDiver-as","rensink_OtherDiver-b","rensink_OtherDiver-bs",180.318,-1,16,9337,583,267,"1",9.337,0.970207358806855,0,0.970207358806855
"A1ESQQT4HBLB52",NA,NA,"rensink","Birds","rensink_Birds-as","rensink_Birds-b","rensink_Birds-bs",190.683,-1,17,9307,300,23,"1",9.307,0.968809713912858,0,0.968809713912858
"A1ESQQT4HBLB52",NA,NA,"rensink","Chopper","rensink_Chopper-as","rensink_Chopper-b","rensink_Chopper-bs",204.463,-1,18,12539,163,444,"1",12.539,1.09826290237993,0,1.09826290237993
"A1ESQQT4HBLB52",NA,NA,"rensink","Castle","rensink_Castle-as","rensink_Castle-b","rensink_Castle-bs",214.887,-1,19,9432,403,411,"1",9.432,0.974603792087033,0,0.974603792087033
"A1ESQQT4HBLB52",NA,NA,"rensink","Floatplane","rensink_Floatplane-as","rensink_Floatplane-b","rensink_Floatplane-bs",224.902,-1,20,8859,265,309,"1",8.859,0.947384701684741,0,0.947384701684741
"A1ESQQT4HBLB52",NA,NA,"rensink","SummerLake","rensink_SummerLake-as","rensink_SummerLake-b","rensink_SummerLake-bs",234.622,-1,21,8656,489,311,"1",8.656,0.937317247762494,0,0.937317247762494
"A1ESQQT4HBLB52",NA,NA,"rensink","Cockpit","rensink_Cockpit-as","rensink_Cockpit-b","rensink_Cockpit-bs",242.628,-1,22,6410,395,122,"1",6.41,0.806858029518817,0,0.806858029518817
"A1ESQQT4HBLB52",NA,NA,"rensink","Kids","rensink_Kids-as","rensink_Kids-b","rensink_Kids-bs",253.551,-1,23,9095,83,372,"1",9.095,0.958802703399502,0,0.958802703399502
"A1ESQQT4HBLB52",NA,NA,"rensink","Description","rensink_Description-as","rensink_Description-b","rensink_Description-bs",269.668,-1,24,14765,625,119,"1",14.765,1.1692334513011,0,1.1692334513011
"A1ESQQT4HBLB52",NA,NA,"rensink","CanalBridge","rensink_CanalBridge-as","rensink_CanalBridge-b","rensink_CanalBridge-bs",277.504,-1,25,6638,527,378,"1",6.638,0.822037248072585,0,0.822037248072585
"A1ESQQT4HBLB52",NA,NA,"rensink","Boat","rensink_Boat-as","rensink_Boat-b","rensink_Boat-bs",285.244,-1,26,6904,293,266,"1",6.904,0.839100782707153,0,0.839100782707153
"A1ESQQT4HBLB52",NA,NA,"rensink","Amish","rensink_Amish-as","rensink_Amish-b","rensink_Amish-bs",293.889,-1,27,7670,249,213,"1",7.67,0.884795363948981,0,0.884795363948981
"A1ESQQT4HBLB52",NA,NA,"rensink","Cactus","rensink_Cactus-as","rensink_Cactus-b","rensink_Cactus-bs",301.98,-1,28,7136,85,212,"1",7.136,0.853454841368067,0,0.853454841368067
"A1ESQQT4HBLB52",NA,NA,"rensink","Lake","rensink_Lake-as","rensink_Lake-b","rensink_Lake-bs",311.121,-1,29,8180,459,310,"1",8.18,0.912753303671323,0,0.912753303671323
"A1ESQQT4HBLB52",NA,NA,"rensink","Kayak","rensink_Kayak-as","rensink_Kayak-b","rensink_Kayak-bs",319.088,-1,30,7160,271,290,"1",7.16,0.854913022307856,0,0.854913022307856
"A1ESQQT4HBLB52",NA,NA,"rensink","Army","rensink_Army-as","rensink_Army-b","rensink_Army-bs",327.805,-1,31,7832,627,204,"1",7.832,0.893872678795081,0,0.893872678795081
"A1ESQQT4HBLB52",NA,NA,"rensink","Fishing","rensink_Fishing-as","rensink_Fishing-b","rensink_Fishing-bs",336.105,-1,32,7480,211,332,"1",7.48,0.873901597864461,0,0.873901597864461
"A1G187YBG0DVMQ",NA,NA,"rensink","Harbor","rensink_Harbor-as","rensink_Harbor-b","rensink_Harbor-bs",60.706,-1,4,7671,409,321,"1",7.671,0.884851982745998,0,0.884851982745998
"A1G187YBG0DVMQ",NA,NA,"rensink","Fountain","rensink_Fountain-as","rensink_Fountain-b","rensink_Fountain-bs",67.319,-1,5,5759,452,119,"1",5.759,0.760347078529906,0,0.760347078529906
"A1G187YBG0DVMQ",NA,NA,"rensink","Amish","rensink_Amish-as","rensink_Amish-b","rensink_Amish-bs",74.185,-1,6,5281,264,217,"1",5.281,0.722716167488495,0,0.722716167488495
"A1G187YBG0DVMQ",NA,NA,"rensink","Marling","rensink_Marling-as","rensink_Marling-b","rensink_Marling-bs",81.076,-1,7,5684,250,456,"1",5.684,0.754654069255432,0,0.754654069255432
"A1G187YBG0DVMQ",NA,NA,"rensink","Camel","rensink_Camel-as","rensink_Camel-b","rensink_Camel-bs",87.979,-1,8,5365,670,224,"1",5.365,0.72956972630197,0,0.72956972630197
"A1G187YBG0DVMQ",NA,NA,"rensink","BarnTrack","rensink_BarnTrack-as","rensink_BarnTrack-b","rensink_BarnTrack-bs",94.253,-1,9,5020,279,484,"1",5.02,0.700703717145019,0,0.700703717145019
"A1G187YBG0DVMQ",NA,NA,"rensink","Turtle","rensink_Turtle-as","rensink_Turtle-b","rensink_Turtle-bs",102.852,-1,10,6476,223,26,"1",6.476,0.811306840081336,0,0.811306840081336
"A1G187YBG0DVMQ",NA,NA,"rensink","Barns","rensink_Barns-as","rensink_Barns-b","rensink_Barns-bs",110.637,-1,11,6537,161,372,"1",6.537,0.815378484965918,0,0.815378484965918
"A1G187YBG0DVMQ",NA,NA,"rensink","Market","rensink_Market-as","rensink_Market-b","rensink_Market-bs",154.154,-1,13,6580,61,338,"1",6.58,0.818225893613955,0,0.818225893613955
"A1G187YBG0DVMQ",NA,NA,"rensink","Cockpit","rensink_Cockpit-as","rensink_Cockpit-b","rensink_Cockpit-bs",163.54,-1,14,8629,371,172,"1",8.629,0.935960468989166,0,0.935960468989166
"A1G187YBG0DVMQ",NA,NA,"rensink","Seal","rensink_Seal-as","rensink_Seal-b","rensink_Seal-bs",169.391,-1,15,4853,369,238,"1",4.853,0.686010291315286,0,0.686010291315286
"A1G187YBG0DVMQ",NA,NA,"rensink","Beach","rensink_Beach-as","rensink_Beach-b","rensink_Beach-bs",177.604,-1,16,6582,454,372,"1",6.582,0.818357877958355,0,0.818357877958355
"A1G187YBG0DVMQ",NA,NA,"rensink","Eating","rensink_Eating-as","rensink_Eating-b","rensink_Eating-bs",184.055,-1,17,5244,314,194,"1",5.244,0.719662683018047,0,0.719662683018047
"A1G187YBG0DVMQ",NA,NA,"rensink","Mosque","rensink_Mosque-as","rensink_Mosque-b","rensink_Mosque-bs",192.177,-1,18,6744,355,186,"1",6.744,0.828917561616686,0,0.828917561616686
"A1G187YBG0DVMQ",NA,NA,"rensink","Ice","rensink_Ice-as","rensink_Ice-b","rensink_Ice-bs",200.087,-1,19,6526,79,248,"1",6.526,0.814647069451856,0,0.814647069451856
"A1G187YBG0DVMQ",NA,NA,"rensink","Soldiers","rensink_Soldiers-as","rensink_Soldiers-b","rensink_Soldiers-bs",208.167,-1,20,6485,150,194,"1",6.485,0.811909980420099,0,0.811909980420099
"A1G187YBG0DVMQ",NA,NA,"rensink","Egypt","rensink_Egypt-as","rensink_Egypt-b","rensink_Egypt-bs",214.079,-1,21,4717,325,180,"1",4.717,0.673665876245702,0,0.673665876245702
"A1G187YBG0DVMQ",NA,NA,"rensink","Horizon","rensink_Horizon-as","rensink_Horizon-b","rensink_Horizon-bs",220.138,-1,22,4733,318,50,"1",4.733,0.675136504467994,0,0.675136504467994
"A1G187YBG0DVMQ",NA,NA,"rensink","Castle","rensink_Castle-as","rensink_Castle-b","rensink_Castle-bs",226.4,-1,23,4705,399,398,"1",4.705,0.672559627763276,0,0.672559627763276
"A1G187YBG0DVMQ",NA,NA,"rensink","NotreDame","rensink_NotreDame-as","rensink_NotreDame-b","rensink_NotreDame-bs",232.547,-1,24,4742,288,205,"1",4.742,0.675961549642169,0,0.675961549642169
"A1G187YBG0DVMQ",NA,NA,"rensink","Window","rensink_Window-as","rensink_Window-b","rensink_Window-bs",240.568,-1,25,6642,108,438,"1",6.642,0.822298871262366,0,0.822298871262366
"A1G187YBG0DVMQ",NA,NA,"rensink","Station","rensink_Station-as","rensink_Station-b","rensink_Station-bs",246.625,-1,26,4712,579,230,"1",4.712,0.673205281779045,0,0.673205281779045
"A1G187YBG0DVMQ",NA,NA,"rensink","Army","rensink_Army-as","rensink_Army-b","rensink_Army-bs",254.477,-1,27,6510,611,204,"1",6.51,0.813580988568192,0,0.813580988568192
"A1G187YBG0DVMQ",NA,NA,"rensink","Wine","rensink_Wine-as","rensink_Wine-b","rensink_Wine-bs",260.585,-1,28,4683,494,295,"1",4.683,0.67052415778208,0,0.67052415778208
"A1G187YBG0DVMQ",NA,NA,"rensink","Pilots","rensink_Pilots-as","rensink_Pilots-b","rensink_Pilots-bs",268.325,-1,29,5981,614,225,"1",5.981,0.776773802412107,0,0.776773802412107
"A1G187YBG0DVMQ",NA,NA,"rensink","Nurses","rensink_Nurses-as","rensink_Nurses-b","rensink_Nurses-bs",275.039,-1,30,5404,556,68,"1",5.404,0.732715340349993,0,0.732715340349993
"A1G187YBG0DVMQ",NA,NA,"rensink","Farmer","rensink_Farmer-as","rensink_Farmer-b","rensink_Farmer-bs",281.111,-1,31,4733,271,189,"1",4.733,0.675136504467994,0,0.675136504467994
"A1G187YBG0DVMQ",NA,NA,"rensink","Kayaker","rensink_Kayaker-as","rensink_Kayaker-b","rensink_Kayaker-bs",286.979,-1,32,4701,418,157,"1",4.701,0.672190251188252,0,0.672190251188252
"A1GKD3NG1NNHRP",NA,NA,"rensink","Camel","rensink_Camel-as","rensink_Camel-b","rensink_Camel-bs",604.443,-1,4,12959,672,234,"1",12.959,1.11257148986498,0,1.11257148986498
"A1GKD3NG1NNHRP",NA,NA,"rensink","Kids","rensink_Kids-as","rensink_Kids-b","rensink_Kids-bs",625.683,-1,5,19311,91,311,"1",19.311,1.28580476384863,0,1.28580476384863
"A1GKD3NG1NNHRP",NA,NA,"rensink","Beach","rensink_Beach-as","rensink_Beach-b","rensink_Beach-bs",633.651,-1,6,7087,525,384,"1",7.087,0.850462432761517,0,0.850462432761517
"A1GKD3NG1NNHRP",NA,NA,"rensink","SummerLake","rensink_SummerLake-as","rensink_SummerLake-b","rensink_SummerLake-bs",643.595,-1,7,9111,534,299,"1",9.111,0.959566046637928,0,0.959566046637928
"A1GKD3NG1NNHRP",NA,NA,"rensink","Amish","rensink_Amish-as","rensink_Amish-b","rensink_Amish-bs",651.987,-1,8,7008,264,220,"1",7.008,0.845594093160024,0,0.845594093160024
"A1GKD3NG1NNHRP",NA,NA,"rensink","NotreDame","rensink_NotreDame-as","rensink_NotreDame-b","rensink_NotreDame-bs",664.466,-1,9,11392,330,170,"1",11.392,1.05659997629278,0,1.05659997629278
"A1GKD3NG1NNHRP",NA,NA,"rensink","Water","rensink_Water-as","rensink_Water-b","rensink_Water-bs",673.386,-1,10,7848,323,412,"1",7.848,0.894758994371892,0,0.894758994371892
"A1GKD3NG1NNHRP",NA,NA,"rensink","Turtle","rensink_Turtle-as","rensink_Turtle-b","rensink_Turtle-bs",685.123,-1,11,10904,234,45,"1",10.904,1.03758584282662,0,1.03758584282662
"A1GKD3NG1NNHRP",NA,NA,"rensink","Dinner","rensink_Dinner-as","rensink_Dinner-b","rensink_Dinner-bs",696.499,-1,12,10575,315,259,"1",10.575,1.02428037604708,0,1.02428037604708
"A1GKD3NG1NNHRP",NA,NA,"rensink","FarmByPond","rensink_FarmByPond-as","rensink_FarmByPond-b","rensink_FarmByPond-bs",704.53,-1,13,7304,241,424,"1",7.304,0.863560764526243,0,0.863560764526243
"A1GKD3NG1NNHRP",NA,NA,"rensink","Army","rensink_Army-as","rensink_Army-b","rensink_Army-bs",714.843,-1,14,9408,608,203,"1",9.408,0.973497308732063,0,0.973497308732063
"A1GKD3NG1NNHRP",NA,NA,"rensink","Station","rensink_Station-as","rensink_Station-b","rensink_Station-bs",724.154,-1,15,8584,575,216,"1",8.584,0.933689708957895,0,0.933689708957895
"A1GKD3NG1NNHRP",NA,NA,"rensink","Mosque","rensink_Mosque-as","rensink_Mosque-b","rensink_Mosque-bs",769.019,-1,17,6711,355,208,"1",6.711,0.826787238816292,0,0.826787238816292
"A1GKD3NG1NNHRP",NA,NA,"rensink","Boat","rensink_Boat-as","rensink_Boat-b","rensink_Boat-bs",841.666,-1,19,9424,295,274,"1",9.424,0.974235277443026,0,0.974235277443026
"A1GKD3NG1NNHRP",NA,NA,"rensink","BarnTrack","rensink_BarnTrack-as","rensink_BarnTrack-b","rensink_BarnTrack-bs",851.25,-1,20,8760,185,463,"1",8.76,0.942504106168081,0,0.942504106168081
"A1GKD3NG1NNHRP",NA,NA,"rensink","Cockpit","rensink_Cockpit-as","rensink_Cockpit-b","rensink_Cockpit-bs",859.89,-1,21,7552,360,199,"1",7.552,0.878061981290013,0,0.878061981290013
"A1GKD3NG1NNHRP",NA,NA,"rensink","Description","rensink_Description-as","rensink_Description-b","rensink_Description-bs",873.491,-1,22,12832,649,166,"1",12.832,1.10829435094009,0,1.10829435094009
"A1GKD3NG1NNHRP",NA,NA,"rensink","Diver","rensink_Diver-as","rensink_Diver-b","rensink_Diver-bs",897.722,-1,24,13864,141,364,"1",13.864,1.14188854970586,0,1.14188854970586
"A1GKD3NG1NNHRP",NA,NA,"rensink","Fishing","rensink_Fishing-as","rensink_Fishing-b","rensink_Fishing-bs",907.266,-1,25,8624,174,282,"1",8.624,0.935708747842664,0,0.935708747842664
"A1GKD3NG1NNHRP",NA,NA,"rensink","Fountain","rensink_Fountain-as","rensink_Fountain-b","rensink_Fountain-bs",917.034,-1,26,8872,443,118,"1",8.872,0.948021533141104,0,0.948021533141104
"A1GKD3NG1NNHRP",NA,NA,"rensink","Obelisk","rensink_Obelisk-as","rensink_Obelisk-b","rensink_Obelisk-bs",926.722,-1,27,8832,600,255,"1",8.832,0.946059060385124,0,0.946059060385124
"A1GKD3NG1NNHRP",NA,NA,"rensink","Farmer","rensink_Farmer-as","rensink_Farmer-b","rensink_Farmer-bs",934.538,-1,28,7151,280,185,"1",7.151,0.85436677804087,0,0.85436677804087
"A1GKD3NG1NNHRP",NA,NA,"rensink","Window","rensink_Window-as","rensink_Window-b","rensink_Window-bs",944.41,-1,29,9184,88,403,"1",9.184,0.963031875053898,0,0.963031875053898
"A1GKD3NG1NNHRP",NA,NA,"rensink","Wine","rensink_Wine-as","rensink_Wine-b","rensink_Wine-bs",954.498,-1,30,9424,571,309,"1",9.424,0.974235277443026,0,0.974235277443026
"A1GKD3NG1NNHRP",NA,NA,"rensink","Castle","rensink_Castle-as","rensink_Castle-b","rensink_Castle-bs",966.178,-1,31,10768,526,395,"1",10.768,1.0321350468799,0,1.0321350468799
"A1GKD3NG1NNHRP",NA,NA,"rensink","Harbor","rensink_Harbor-as","rensink_Harbor-b","rensink_Harbor-bs",975.73,-1,32,8752,352,332,"1",8.752,0.942107308989356,0,0.942107308989356
"A1GS7LBNOKOIPI",NA,NA,"rensink","Farmer","rensink_Farmer-as","rensink_Farmer-b","rensink_Farmer-bs",69.608,-1,4,8535,285,170,"1",8.535,0.931203525450752,0,0.931203525450752
"A1GS7LBNOKOIPI",NA,NA,"rensink","Market","rensink_Market-as","rensink_Market-b","rensink_Market-bs",81.255,-1,5,10822,75,315,"1",10.822,1.03430752959656,0,1.03430752959656
"A1GS7LBNOKOIPI",NA,NA,"rensink","Bus","rensink_Bus-as","rensink_Bus-b","rensink_Bus-bs",91.072,-1,6,8589,401,137,"1",8.589,0.933942602741261,0,0.933942602741261
"A1GS7LBNOKOIPI",NA,NA,"rensink","Barns","rensink_Barns-as","rensink_Barns-b","rensink_Barns-bs",122.432,-1,8,11263,183,382,"1",11.263,1.05165408411329,0,1.05165408411329
"A1GS7LBNOKOIPI",NA,NA,"rensink","Boat","rensink_Boat-as","rensink_Boat-b","rensink_Boat-bs",136.12,-1,9,12623,229,270,"1",12.623,1.10116258221484,0,1.10116258221484
"A1GS7LBNOKOIPI",NA,NA,"rensink","Birds","rensink_Birds-as","rensink_Birds-b","rensink_Birds-bs",156.92,-1,10,19206,355,20,"1",19.206,1.28343692452778,0,1.28343692452778
"A1GS7LBNOKOIPI",NA,NA,"rensink","FarmByPond","rensink_FarmByPond-as","rensink_FarmByPond-b","rensink_FarmByPond-bs",168.88,-1,11,10814,232,418,"1",10.814,1.03398636523961,0,1.03398636523961
"A1GS7LBNOKOIPI",NA,NA,"rensink","Ice","rensink_Ice-as","rensink_Ice-b","rensink_Ice-bs",180.087,-1,12,9006,83,244,"1",9.006,0.954531942626914,0,0.954531942626914
"A1GS7LBNOKOIPI",NA,NA,"rensink","Kids","rensink_Kids-as","rensink_Kids-b","rensink_Kids-bs",200.295,-1,14,8820,99,303,"1",8.82,0.94546858513182,0,0.94546858513182
"A1GS7LBNOKOIPI",NA,NA,"rensink","Mosque","rensink_Mosque-as","rensink_Mosque-b","rensink_Mosque-bs",213.008,-1,15,10831,358,187,"1",10.831,1.03466855583424,0,1.03466855583424
"A1GS7LBNOKOIPI",NA,NA,"rensink","Chopper","rensink_Chopper-as","rensink_Chopper-b","rensink_Chopper-bs",224.432,-1,16,10808,118,448,"1",10.808,1.03374533601397,0,1.03374533601397
"A1GS7LBNOKOIPI",NA,NA,"rensink","Soldiers","rensink_Soldiers-as","rensink_Soldiers-b","rensink_Soldiers-bs",236.263,-1,17,11094,152,197,"1",11.094,1.04508816154282,0,1.04508816154282
"A1GS7LBNOKOIPI",NA,NA,"rensink","Castle","rensink_Castle-as","rensink_Castle-b","rensink_Castle-bs",248.744,-1,18,11336,379,409,"1",11.336,1.0544598372394,0,1.0544598372394
"A1GS7LBNOKOIPI",NA,NA,"rensink","Egypt","rensink_Egypt-as","rensink_Egypt-b","rensink_Egypt-bs",258.464,-1,19,8774,389,176,"1",8.774,0.943197630068926,0,0.943197630068926
"A1GS7LBNOKOIPI",NA,NA,"rensink","Kayaker","rensink_Kayaker-as","rensink_Kayaker-b","rensink_Kayaker-bs",267.855,-1,20,8637,425,170,"1",8.637,0.936362919597744,0,0.936362919597744
"A1GS7LBNOKOIPI",NA,NA,"rensink","Fountain","rensink_Fountain-as","rensink_Fountain-b","rensink_Fountain-bs",275.448,-1,21,6650,436,148,"1",6.65,0.822821645303105,0,0.822821645303105
"A1GS7LBNOKOIPI",NA,NA,"rensink","Cactus","rensink_Cactus-as","rensink_Cactus-b","rensink_Cactus-bs",283.32,-1,22,6581,139,244,"1",6.581,0.818291890799996,0,0.818291890799996
"A1GS7LBNOKOIPI",NA,NA,"rensink","OtherDiver","rensink_OtherDiver-as","rensink_OtherDiver-b","rensink_OtherDiver-bs",297.072,-1,23,12968,638,261,"1",12.968,1.11287300184046,0,1.11287300184046
"A1GS7LBNOKOIPI",NA,NA,"rensink","Army","rensink_Army-as","rensink_Army-b","rensink_Army-bs",313.048,-1,24,14968,634,205,"1",14.968,1.17516377449195,0,1.17516377449195
"A1GS7LBNOKOIPI",NA,NA,"rensink","Camel","rensink_Camel-as","rensink_Camel-b","rensink_Camel-bs",325.327,-1,25,11399,668,222,"1",11.399,1.05686675365831,0,1.05686675365831
"A1GS7LBNOKOIPI",NA,NA,"rensink","Water","rensink_Water-as","rensink_Water-b","rensink_Water-bs",334.432,-1,26,8622,387,411,"1",8.622,0.935608018517869,0,0.935608018517869
"A1GS7LBNOKOIPI",NA,NA,"rensink","Harbor","rensink_Harbor-as","rensink_Harbor-b","rensink_Harbor-bs",343.96,-1,27,8728,412,328,"1",8.728,0.940914737580285,0,0.940914737580285
"A1GS7LBNOKOIPI",NA,NA,"rensink","Wine","rensink_Wine-as","rensink_Wine-b","rensink_Wine-bs",357.775,-1,28,13342,549,317,"1",13.342,1.12522093631656,0,1.12522093631656
"A1GS7LBNOKOIPI",NA,NA,"rensink","Seal","rensink_Seal-as","rensink_Seal-b","rensink_Seal-bs",367.584,-1,29,8575,391,225,"1",8.575,0.933234128714808,0,0.933234128714808
"A1GS7LBNOKOIPI",NA,NA,"rensink","Lake","rensink_Lake-as","rensink_Lake-b","rensink_Lake-bs",375.831,-1,30,6998,466,288,"1",6.998,0.844973938146888,0,0.844973938146888
"A1GS7LBNOKOIPI",NA,NA,"rensink","Amish","rensink_Amish-as","rensink_Amish-b","rensink_Amish-bs",384.456,-1,31,7200,277,212,"1",7.2,0.857332496431269,0,0.857332496431269
"A1GS7LBNOKOIPI",NA,NA,"rensink","Pilots","rensink_Pilots-as","rensink_Pilots-b","rensink_Pilots-bs",394.951,-1,32,9895,660,208,"1",9.895,0.995415798542415,0,0.995415798542415
"A1NR3COO33J99C",NA,NA,"rensink","Fountain","rensink_Fountain-as","rensink_Fountain-b","rensink_Fountain-bs",126.478,-1,3,6623,457,111,"1",6.623,0.821054755046888,0,0.821054755046888
"A1NR3COO33J99C",NA,NA,"rensink","Cockpit","rensink_Cockpit-as","rensink_Cockpit-b","rensink_Cockpit-bs",134.931,-1,4,7058,407,112,"1",7.058,0.84868165402395,0,0.84868165402395
"A1NR3COO33J99C",NA,NA,"rensink","Kayaker","rensink_Kayaker-as","rensink_Kayaker-b","rensink_Kayaker-bs",142.884,-1,5,7373,424,155,"1",7.373,0.867644233903099,0,0.867644233903099
"A1NR3COO33J99C",NA,NA,"rensink","Station","rensink_Station-as","rensink_Station-b","rensink_Station-bs",151.033,-1,6,6596,596,207,"1",6.596,0.819280646972481,0,0.819280646972481
"A1NR3COO33J99C",NA,NA,"rensink","Bus","rensink_Bus-as","rensink_Bus-b","rensink_Bus-bs",159.408,-1,7,7234,408,132,"1",7.234,0.859378504425601,0,0.859378504425601
"A1NR3COO33J99C",NA,NA,"rensink","Diver","rensink_Diver-as","rensink_Diver-b","rensink_Diver-bs",167.152,-1,8,6796,126,363,"1",6.796,0.832253370197008,0,0.832253370197008
"A1NR3COO33J99C",NA,NA,"rensink","Ice","rensink_Ice-as","rensink_Ice-b","rensink_Ice-bs",176.174,-1,9,7053,93,259,"1",7.053,0.848373883844602,0,0.848373883844602
"A1NR3COO33J99C",NA,NA,"rensink","Cactus","rensink_Cactus-as","rensink_Cactus-b","rensink_Cactus-bs",183.947,-1,10,6524,127,257,"1",6.524,0.814513952368238,0,0.814513952368238
"A1NR3COO33J99C",NA,NA,"rensink","Chopper","rensink_Chopper-as","rensink_Chopper-b","rensink_Chopper-bs",191.813,-1,11,6745,229,473,"1",6.745,0.828981954007923,0,0.828981954007923
"A1NR3COO33J99C",NA,NA,"rensink","Mosque","rensink_Mosque-as","rensink_Mosque-b","rensink_Mosque-bs",199.641,-1,12,7304,362,210,"1",7.304,0.863560764526243,0,0.863560764526243
"A1NR3COO33J99C",NA,NA,"rensink","Amish","rensink_Amish-as","rensink_Amish-b","rensink_Amish-bs",217.067,-1,14,6712,267,217,"1",6.712,0.826851947820644,0,0.826851947820644
"A1NR3COO33J99C",NA,NA,"rensink","Egypt","rensink_Egypt-as","rensink_Egypt-b","rensink_Egypt-bs",236.308,-1,16,6760,367,358,"1",6.76,0.829946695941636,0,0.829946695941636
"A1NR3COO33J99C",NA,NA,"rensink","Seal","rensink_Seal-as","rensink_Seal-b","rensink_Seal-bs",251.961,-1,18,6787,388,232,"1",6.787,0.831677849191467,0,0.831677849191467
"A1NR3COO33J99C",NA,NA,"rensink","Nurses","rensink_Nurses-as","rensink_Nurses-b","rensink_Nurses-bs",259.698,-1,19,6783,641,145,"1",6.783,0.831421817065022,0,0.831421817065022
"A1NR3COO33J99C",NA,NA,"rensink","Birds","rensink_Birds-as","rensink_Birds-b","rensink_Birds-bs",289.097,-1,22,7096,412,19,"1",7.096,0.85101360682367,0,0.85101360682367
"A1NR3COO33J99C",NA,NA,"rensink","Soldiers","rensink_Soldiers-as","rensink_Soldiers-b","rensink_Soldiers-bs",297.455,-1,23,6621,207,203,"1",6.621,0.820923587881317,0,0.820923587881317
"A1NR3COO33J99C",NA,NA,"rensink","Boat","rensink_Boat-as","rensink_Boat-b","rensink_Boat-bs",305.227,-1,24,6543,349,273,"1",6.543,0.815776920298363,0,0.815776920298363
"A1NR3COO33J99C",NA,NA,"rensink","Beach","rensink_Beach-as","rensink_Beach-b","rensink_Beach-bs",313.109,-1,25,6727,477,398,"1",6.727,0.827821427682802,0,0.827821427682802
"A1NR3COO33J99C",NA,NA,"rensink","Camel","rensink_Camel-as","rensink_Camel-b","rensink_Camel-bs",321.303,-1,26,6694,690,232,"1",6.694,0.825685708021758,0,0.825685708021758
"A1NR3COO33J99C",NA,NA,"rensink","Lake","rensink_Lake-as","rensink_Lake-b","rensink_Lake-bs",329.584,-1,27,6782,469,361,"1",6.782,0.831357785442068,0,0.831357785442068
"A1NR3COO33J99C",NA,NA,"rensink","Kayak","rensink_Kayak-as","rensink_Kayak-b","rensink_Kayak-bs",337.312,-1,28,6761,278,297,"1",6.761,0.830010935936118,0,0.830010935936118
"A1NR3COO33J99C",NA,NA,"rensink","Water","rensink_Water-as","rensink_Water-b","rensink_Water-bs",345.083,-1,29,6993,369,404,"1",6.993,0.844663528240239,0,0.844663528240239
"A1NR3COO33J99C",NA,NA,"rensink","NotreDame","rensink_NotreDame-as","rensink_NotreDame-b","rensink_NotreDame-bs",352.615,-1,30,6587,248,158,"1",6.587,0.818687663441514,0,0.818687663441514
"A1NR3COO33J99C",NA,NA,"rensink","Floatplane","rensink_Floatplane-as","rensink_Floatplane-b","rensink_Floatplane-bs",360.377,-1,31,6724,258,317,"1",6.724,0.827627704767433,0,0.827627704767433
"A1NR3COO33J99C",NA,NA,"rensink","SummerLake","rensink_SummerLake-as","rensink_SummerLake-b","rensink_SummerLake-bs",368.245,-1,32,6929,494,332,"1",6.929,0.840670561333409,0,0.840670561333409
"A1PY8ZXYIJYLQO",NA,NA,"rensink","Cactus","rensink_Cactus-as","rensink_Cactus-b","rensink_Cactus-bs",465.376,-1,3,5995,128,230,"1",5.995,0.777789187434867,0,0.777789187434867
"A1PY8ZXYIJYLQO",NA,NA,"rensink","Obelisk","rensink_Obelisk-as","rensink_Obelisk-b","rensink_Obelisk-bs",475.802,-1,6,9285,587,251,"1",9.285,0.967781908075799,0,0.967781908075799
"A1PY8ZXYIJYLQO",NA,NA,"rensink","FarmByPond","rensink_FarmByPond-as","rensink_FarmByPond-b","rensink_FarmByPond-bs",494.396,-1,8,7841,298,431,"1",7.841,0.894371453856238,0,0.894371453856238
"A1PY8ZXYIJYLQO",NA,NA,"rensink","Kayaker","rensink_Kayaker-as","rensink_Kayaker-b","rensink_Kayaker-bs",514.565,-1,10,7549,425,144,"1",7.549,0.877889425371484,0,0.877889425371484
"A1PY8ZXYIJYLQO",NA,NA,"rensink","BarnTrack","rensink_BarnTrack-as","rensink_BarnTrack-b","rensink_BarnTrack-bs",526.337,-1,11,10186,224,447,"1",10.186,1.00800367184016,0,1.00800367184016
"A1PY8ZXYIJYLQO",NA,NA,"rensink","Army","rensink_Army-as","rensink_Army-b","rensink_Army-bs",536.485,-1,12,7643,593,197,"1",7.643,0.883263859584974,0,0.883263859584974
"A1PY8ZXYIJYLQO",NA,NA,"rensink","Description","rensink_Description-as","rensink_Description-b","rensink_Description-bs",545.067,-1,13,7590,614,149,"1",7.59,0.88024177589548,0,0.88024177589548
"A1PY8ZXYIJYLQO",NA,NA,"rensink","Boat","rensink_Boat-as","rensink_Boat-b","rensink_Boat-bs",556.654,-1,14,8753,350,261,"1",8.753,0.94215692846749,0,0.94215692846749
"A1PY8ZXYIJYLQO",NA,NA,"rensink","Eating","rensink_Eating-as","rensink_Eating-b","rensink_Eating-bs",570.584,-1,15,12091,248,178,"1",12.091,1.08246222116863,0,1.08246222116863
"A1PY8ZXYIJYLQO",NA,NA,"rensink","Castle","rensink_Castle-as","rensink_Castle-b","rensink_Castle-bs",579.15,-1,16,7378,346,423,"1",7.378,0.867938650890785,0,0.867938650890785
"A1PY8ZXYIJYLQO",NA,NA,"rensink","Seal","rensink_Seal-as","rensink_Seal-b","rensink_Seal-bs",587.775,-1,17,7231,385,241,"1",7.231,0.859198361533877,0,0.859198361533877
"A1PY8ZXYIJYLQO",NA,NA,"rensink","Horizon","rensink_Horizon-as","rensink_Horizon-b","rensink_Horizon-bs",600.513,-1,18,11021,331,57,"1",11.021,1.04222100239038,0,1.04222100239038
"A1PY8ZXYIJYLQO",NA,NA,"rensink","Dinner","rensink_Dinner-as","rensink_Dinner-b","rensink_Dinner-bs",608.989,-1,19,7087,321,253,"1",7.087,0.850462432761517,0,0.850462432761517
"A1PY8ZXYIJYLQO",NA,NA,"rensink","Nurses","rensink_Nurses-as","rensink_Nurses-b","rensink_Nurses-bs",620.172,-1,20,9659,575,68,"1",9.659,0.984932166067412,0,0.984932166067412
"A1PY8ZXYIJYLQO",NA,NA,"rensink","Camel","rensink_Camel-as","rensink_Camel-b","rensink_Camel-bs",628.648,-1,21,7306,656,199,"1",7.306,0.863679667875898,0,0.863679667875898
"A1PY8ZXYIJYLQO",NA,NA,"rensink","Fountain","rensink_Fountain-as","rensink_Fountain-b","rensink_Fountain-bs",637.426,-1,22,7426,439,108,"1",7.426,0.87075494489014,0,0.87075494489014
"A1PY8ZXYIJYLQO",NA,NA,"rensink","Egypt","rensink_Egypt-as","rensink_Egypt-b","rensink_Egypt-bs",647.301,-1,23,7138,369,278,"1",7.138,0.853576543619642,0,0.853576543619642
"A1PY8ZXYIJYLQO",NA,NA,"rensink","Wine","rensink_Wine-as","rensink_Wine-b","rensink_Wine-bs",655.721,-1,24,7048,472,291,"1",7.048,0.848065895403991,0,0.848065895403991
"A1PY8ZXYIJYLQO",NA,NA,"rensink","Harbor","rensink_Harbor-as","rensink_Harbor-b","rensink_Harbor-bs",666.659,-1,25,9630,374,303,"1",9.63,0.983626287124535,0,0.983626287124535
"A1PY8ZXYIJYLQO",NA,NA,"rensink","Water","rensink_Water-as","rensink_Water-b","rensink_Water-bs",675.814,-1,26,7093,458,437,"1",7.093,0.850829959848531,0,0.850829959848531
"A1PY8ZXYIJYLQO",NA,NA,"rensink","Barns","rensink_Barns-as","rensink_Barns-b","rensink_Barns-bs",685.363,-1,27,7496,194,357,"1",7.496,0.874829577879722,0,0.874829577879722
"A1PY8ZXYIJYLQO",NA,NA,"rensink","Floatplane","rensink_Floatplane-as","rensink_Floatplane-b","rensink_Floatplane-bs",694.238,-1,28,7212,277,319,"1",7.212,0.858055718050364,0,0.858055718050364
"A1PY8ZXYIJYLQO",NA,NA,"rensink","Turtle","rensink_Turtle-as","rensink_Turtle-b","rensink_Turtle-bs",702.888,-1,29,6893,191,34,"1",6.893,0.838408278494187,0,0.838408278494187
"A1PY8ZXYIJYLQO",NA,NA,"rensink","Kayak","rensink_Kayak-as","rensink_Kayak-b","rensink_Kayak-bs",712.011,-1,30,7424,273,296,"1",7.424,0.870637963210806,0,0.870637963210806
"A1PY8ZXYIJYLQO",NA,NA,"rensink","Station","rensink_Station-as","rensink_Station-b","rensink_Station-bs",720.622,-1,31,6941,575,218,"1",6.941,0.841422044402359,0,0.841422044402359
"A1PY8ZXYIJYLQO",NA,NA,"rensink","Fishing","rensink_Fishing-as","rensink_Fishing-b","rensink_Fishing-bs",729.379,-1,32,7350,215,328,"1",7.35,0.866287339084195,0,0.866287339084195
"A1QC1K71RGKZBI",NA,NA,"rensink","NotreDame","rensink_NotreDame-as","rensink_NotreDame-b","rensink_NotreDame-bs",115.751,-1,5,7804,397,145,"1",7.804,0.892317260722481,0,0.892317260722481
"A1QC1K71RGKZBI",NA,NA,"rensink","Marling","rensink_Marling-as","rensink_Marling-b","rensink_Marling-bs",126.938,-1,6,7662,275,442,"1",7.662,0.884342147647059,0,0.884342147647059
"A1QC1K71RGKZBI",NA,NA,"rensink","Cactus","rensink_Cactus-as","rensink_Cactus-b","rensink_Cactus-bs",138.875,-1,8,9418,118,242,"1",9.418,0.973958686106704,0,0.973958686106704
"A1QC1K71RGKZBI",NA,NA,"rensink","Water","rensink_Water-as","rensink_Water-b","rensink_Water-bs",153.202,-1,9,9261,340,375,"1",9.261,0.966657884201758,0,0.966657884201758
"A1QC1K71RGKZBI",NA,NA,"rensink","Army","rensink_Army-as","rensink_Army-b","rensink_Army-bs",164.775,-1,10,10287,661,207,"1",10.287,1.01228873983461,0,1.01228873983461
"A1QC1K71RGKZBI",NA,NA,"rensink","Dinner","rensink_Dinner-as","rensink_Dinner-b","rensink_Dinner-bs",172.865,-1,11,5907,350,272,"1",5.907,0.771366970857781,0,0.771366970857781
"A1QC1K71RGKZBI",NA,NA,"rensink","Ice","rensink_Ice-as","rensink_Ice-b","rensink_Ice-bs",184.289,-1,12,9728,128,242,"1",9.728,0.98802356192866,0,0.98802356192866
"A1QC1K71RGKZBI",NA,NA,"rensink","Seal","rensink_Seal-as","rensink_Seal-b","rensink_Seal-bs",192.862,-1,13,7375,363,251,"1",7.375,0.867762024650201,0,0.867762024650201
"A1QC1K71RGKZBI",NA,NA,"rensink","Pilots","rensink_Pilots-as","rensink_Pilots-b","rensink_Pilots-bs",231.849,-1,15,7677,639,239,"1",7.677,0.885191540606848,0,0.885191540606848
"A1QC1K71RGKZBI",NA,NA,"rensink","Floatplane","rensink_Floatplane-as","rensink_Floatplane-b","rensink_Floatplane-bs",242.744,-1,16,9083,241,310,"1",9.083,0.958229314188382,0,0.958229314188382
"A1QC1K71RGKZBI",NA,NA,"rensink","Turtle","rensink_Turtle-as","rensink_Turtle-b","rensink_Turtle-bs",253.633,-1,17,9177,209,23,"1",9.177,0.962700731704341,0,0.962700731704341
"A1QC1K71RGKZBI",NA,NA,"rensink","Lake","rensink_Lake-as","rensink_Lake-b","rensink_Lake-bs",292.409,-1,19,6974,474,298,"1",6.974,0.843481943039958,0,0.843481943039958
"A1QC1K71RGKZBI",NA,NA,"rensink","Wine","rensink_Wine-as","rensink_Wine-b","rensink_Wine-bs",300.696,-1,20,6984,529,226,"1",6.984,0.844104230697513,0,0.844104230697513
"A1QC1K71RGKZBI",NA,NA,"rensink","Beach","rensink_Beach-as","rensink_Beach-b","rensink_Beach-bs",322.175,-1,22,7714,510,412,"1",7.714,0.887279634530023,0,0.887279634530023
"A1QC1K71RGKZBI",NA,NA,"rensink","Birds","rensink_Birds-as","rensink_Birds-b","rensink_Birds-bs",333.989,-1,23,9637,332,17,"1",9.637,0.983941858983888,0,0.983941858983888
"A1QC1K71RGKZBI",NA,NA,"rensink","Amish","rensink_Amish-as","rensink_Amish-b","rensink_Amish-bs",342.433,-1,24,6848,261,212,"1",6.848,0.835563751669097,0,0.835563751669097
"A1QC1K71RGKZBI",NA,NA,"rensink","Harbor","rensink_Harbor-as","rensink_Harbor-b","rensink_Harbor-bs",350.539,-1,25,6986,357,322,"1",6.986,0.844228581301628,0,0.844228581301628
"A1QC1K71RGKZBI",NA,NA,"rensink","Eating","rensink_Eating-as","rensink_Eating-b","rensink_Eating-bs",359.402,-1,26,6940,334,175,"1",6.94,0.841359470454855,0,0.841359470454855
"A1QC1K71RGKZBI",NA,NA,"rensink","Kayak","rensink_Kayak-as","rensink_Kayak-b","rensink_Kayak-bs",367.603,-1,27,6862,255,270,"1",6.862,0.836450713720155,0,0.836450713720155
"A1QC1K71RGKZBI",NA,NA,"rensink","Chopper","rensink_Chopper-as","rensink_Chopper-b","rensink_Chopper-bs",378.185,-1,28,9836,275,448,"1",9.836,0.99281852006668,0,0.99281852006668
"A1QC1K71RGKZBI",NA,NA,"rensink","Kayaker","rensink_Kayaker-as","rensink_Kayaker-b","rensink_Kayaker-bs",388.94,-1,29,9408,427,169,"1",9.408,0.973497308732063,0,0.973497308732063
"A1QC1K71RGKZBI",NA,NA,"rensink","OtherDiver","rensink_OtherDiver-as","rensink_OtherDiver-b","rensink_OtherDiver-bs",399.189,-1,30,9055,575,266,"1",9.055,0.956888454650077,0,0.956888454650077
"A1QC1K71RGKZBI",NA,NA,"rensink","CanalBridge","rensink_CanalBridge-as","rensink_CanalBridge-b","rensink_CanalBridge-bs",407.504,-1,31,6841,551,320,"1",6.841,0.83511959042455,0,0.83511959042455
"A1QUBLZCONL4QD",NA,NA,"rensink","Boat","rensink_Boat-as","rensink_Boat-b","rensink_Boat-bs",50.781,-1,4,7240,244,276,"1",7.24,0.859738566197147,0,0.859738566197147
"A1QUBLZCONL4QD",NA,NA,"rensink","Fishing","rensink_Fishing-as","rensink_Fishing-b","rensink_Fishing-bs",58.093,-1,5,6569,225,315,"1",6.569,0.817499261867758,0,0.817499261867758
"A1QUBLZCONL4QD",NA,NA,"rensink","Water","rensink_Water-as","rensink_Water-b","rensink_Water-bs",67.859,-1,6,6579,373,403,"1",6.579,0.818159886397185,0,0.818159886397185
"A1QUBLZCONL4QD",NA,NA,"rensink","Fountain","rensink_Fountain-as","rensink_Fountain-b","rensink_Fountain-bs",136.099,-1,16,6480,472,148,"1",6.48,0.811575005870593,0,0.811575005870593
"A1QUBLZCONL4QD",NA,NA,"rensink","NotreDame","rensink_NotreDame-as","rensink_NotreDame-b","rensink_NotreDame-bs",164.401,-1,20,4998,404,245,"1",4.998,0.698796251790431,0,0.698796251790431
"A1QUBLZCONL4QD",NA,NA,"rensink","Kayak","rensink_Kayak-as","rensink_Kayak-b","rensink_Kayak-bs",173.809,-1,22,4336,294,250,"1",4.336,0.637089273530331,0,0.637089273530331
"A1RJIOHZFBH3GJ",NA,NA,"rensink","Barns","rensink_Barns-as","rensink_Barns-b","rensink_Barns-bs",102.451,-1,3,10029,176,363,"1",10.029,1.00125763131223,0,1.00125763131223
"A1RJIOHZFBH3GJ",NA,NA,"rensink","Floatplane","rensink_Floatplane-as","rensink_Floatplane-b","rensink_Floatplane-bs",111.211,-1,4,7201,280,319,"1",7.201,0.857392810920901,0,0.857392810920901
"A1RJIOHZFBH3GJ",NA,NA,"rensink","Kids","rensink_Kids-as","rensink_Kids-b","rensink_Kids-bs",119.574,-1,5,7166,97,307,"1",7.166,0.855276803830092,0,0.855276803830092
"A1RJIOHZFBH3GJ",NA,NA,"rensink","Fountain","rensink_Fountain-as","rensink_Fountain-b","rensink_Fountain-bs",127.428,-1,6,7174,441,118,"1",7.174,0.855761372339948,0,0.855761372339948
"A1RJIOHZFBH3GJ",NA,NA,"rensink","Bus","rensink_Bus-as","rensink_Bus-b","rensink_Bus-bs",140.749,-1,7,7759,410,125,"1",7.759,0.889805751868085,0,0.889805751868085
"A1RJIOHZFBH3GJ",NA,NA,"rensink","Window","rensink_Window-as","rensink_Window-b","rensink_Window-bs",150.435,-1,8,8846,41,403,"1",8.846,0.946746935033585,0,0.946746935033585
"A1RJIOHZFBH3GJ",NA,NA,"rensink","BarnTrack","rensink_BarnTrack-as","rensink_BarnTrack-b","rensink_BarnTrack-bs",160.228,-1,9,8999,198,471,"1",8.999,0.954194251815862,0,0.954194251815862
"A1RJIOHZFBH3GJ",NA,NA,"rensink","NotreDame","rensink_NotreDame-as","rensink_NotreDame-b","rensink_NotreDame-bs",171.962,-1,10,10959,337,163,"1",10.959,1.03977092693158,0,1.03977092693158
"A1RJIOHZFBH3GJ",NA,NA,"rensink","Eating","rensink_Eating-as","rensink_Eating-b","rensink_Eating-bs",182.375,-1,11,8954,651,281,"1",8.954,0.952017090047426,0,0.952017090047426
"A1RJIOHZFBH3GJ",NA,NA,"rensink","Cockpit","rensink_Cockpit-as","rensink_Cockpit-b","rensink_Cockpit-bs",190.979,-1,12,6891,404,119,"1",6.891,0.838282249914688,0,0.838282249914688
"A1RJIOHZFBH3GJ",NA,NA,"rensink","Marling","rensink_Marling-as","rensink_Marling-b","rensink_Marling-bs",200.868,-1,13,9056,276,424,"1",9.056,0.956936413844196,0,0.956936413844196
"A1RJIOHZFBH3GJ",NA,NA,"rensink","Farmer","rensink_Farmer-as","rensink_Farmer-b","rensink_Farmer-bs",208.739,-1,14,7071,290,184,"1",7.071,0.849480837243986,0,0.849480837243986
"A1RJIOHZFBH3GJ",NA,NA,"rensink","Chopper","rensink_Chopper-as","rensink_Chopper-b","rensink_Chopper-bs",224.453,-1,15,14753,96,436,"1",14.753,1.16888034241364,0,1.16888034241364
"A1RJIOHZFBH3GJ",NA,NA,"rensink","Seal","rensink_Seal-as","rensink_Seal-b","rensink_Seal-bs",234.184,-1,16,8702,396,232,"1",8.702,0.939619078956698,0,0.939619078956698
"A1RJIOHZFBH3GJ",NA,NA,"rensink","Ice","rensink_Ice-as","rensink_Ice-b","rensink_Ice-bs",244.079,-1,17,8627,78,242,"1",8.627,0.93585979803788,0,0.93585979803788
"A1RJIOHZFBH3GJ",NA,NA,"rensink","Water","rensink_Water-as","rensink_Water-b","rensink_Water-bs",272.625,-1,19,6813,330,415,"1",6.813,0.833338388939398,0,0.833338388939398
"A1RJIOHZFBH3GJ",NA,NA,"rensink","Boat","rensink_Boat-as","rensink_Boat-b","rensink_Boat-bs",283.709,-1,20,9562,318,259,"1",9.562,0.980548739359771,0,0.980548739359771
"A1RJIOHZFBH3GJ",NA,NA,"rensink","Turtle","rensink_Turtle-as","rensink_Turtle-b","rensink_Turtle-bs",291.579,-1,21,7078,208,39,"1",7.078,0.849910558301496,0,0.849910558301496
"A1RJIOHZFBH3GJ",NA,NA,"rensink","Mosque","rensink_Mosque-as","rensink_Mosque-b","rensink_Mosque-bs",301.289,-1,22,8705,354,217,"1",8.705,0.93976877545335,0,0.93976877545335
"A1RJIOHZFBH3GJ",NA,NA,"rensink","Station","rensink_Station-as","rensink_Station-b","rensink_Station-bs",311.03,-1,23,8802,570,221,"1",8.802,0.944581364226926,0,0.944581364226926
"A1RJIOHZFBH3GJ",NA,NA,"rensink","CanalBridge","rensink_CanalBridge-as","rensink_CanalBridge-b","rensink_CanalBridge-bs",322.814,-1,24,10806,544,358,"1",10.806,1.03366496320318,0,1.03366496320318
"A1RJIOHZFBH3GJ",NA,NA,"rensink","Obelisk","rensink_Obelisk-as","rensink_Obelisk-b","rensink_Obelisk-bs",333.93,-1,25,10566,597,277,"1",10.566,1.02391060635092,0,1.02391060635092
"A1RJIOHZFBH3GJ",NA,NA,"rensink","Camel","rensink_Camel-as","rensink_Camel-b","rensink_Camel-bs",346.137,-1,26,11714,675,229,"1",11.714,1.06870521969194,0,1.06870521969194
"A1RJIOHZFBH3GJ",NA,NA,"rensink","Amish","rensink_Amish-as","rensink_Amish-b","rensink_Amish-bs",353.915,-1,27,6762,274,221,"1",6.762,0.83007516642975,0,0.83007516642975
"A1RJIOHZFBH3GJ",NA,NA,"rensink","Soldiers","rensink_Soldiers-as","rensink_Soldiers-b","rensink_Soldiers-bs",363.543,-1,28,8873,166,202,"1",8.873,0.948070481518941,0,0.948070481518941
"A1RJIOHZFBH3GJ",NA,NA,"rensink","Dinner","rensink_Dinner-as","rensink_Dinner-b","rensink_Dinner-bs",370.95,-1,29,6724,320,248,"1",6.724,0.827627704767433,0,0.827627704767433
"A1RJIOHZFBH3GJ",NA,NA,"rensink","Cactus","rensink_Cactus-as","rensink_Cactus-b","rensink_Cactus-bs",380.262,-1,30,8565,99,242,"1",8.565,0.932727367301529,0,0.932727367301529
"A1RJIOHZFBH3GJ",NA,NA,"rensink","Harbor","rensink_Harbor-as","rensink_Harbor-b","rensink_Harbor-bs",388.437,-1,31,7357,415,326,"1",7.357,0.866700756042499,0,0.866700756042499
"A1RJIOHZFBH3GJ",NA,NA,"rensink","Market","rensink_Market-as","rensink_Market-b","rensink_Market-bs",398.374,-1,32,8957,61,335,"1",8.957,0.952162574214463,0,0.952162574214463
"A1WPCXNFENBSY4",NA,NA,"rensink","Floatplane","rensink_Floatplane-as","rensink_Floatplane-b","rensink_Floatplane-bs",93.474,-1,4,6499,232,315,"1",6.499,0.812846536967071,0,0.812846536967071
"A1WPCXNFENBSY4",NA,NA,"rensink","Fishing","rensink_Fishing-as","rensink_Fishing-b","rensink_Fishing-bs",107.482,-1,8,5002,210,309,"1",5.002,0.699143687394484,0,0.699143687394484
"A1YV6W4EZP9T4Q",NA,NA,"rensink","Ice","rensink_Ice-as","rensink_Ice-b","rensink_Ice-bs",182.013,-1,5,10733,76,228,"1",10.733,1.03072112936046,0,1.03072112936046
"A1YV6W4EZP9T4Q",NA,NA,"rensink","Cockpit","rensink_Cockpit-as","rensink_Cockpit-b","rensink_Cockpit-bs",190.549,-1,6,8135,409,104,"1",8.135,0.910357557272878,0,0.910357557272878
"A1YV6W4EZP9T4Q",NA,NA,"rensink","Harbor","rensink_Harbor-as","rensink_Harbor-b","rensink_Harbor-bs",203.928,-1,7,12970,410,322,"1",12.97,1.11293997608408,0,1.11293997608408
"A1YV6W4EZP9T4Q",NA,NA,"rensink","Description","rensink_Description-as","rensink_Description-b","rensink_Description-bs",290.548,-1,14,12811,642,176,"1",12.811,1.10758303119132,0,1.10758303119132
"A1YV6W4EZP9T4Q",NA,NA,"rensink","FarmByPond","rensink_FarmByPond-as","rensink_FarmByPond-b","rensink_FarmByPond-bs",322.526,-1,16,23555,236,419,"1",23.555,1.37208310857425,0,1.37208310857425
"A1YV6W4EZP9T4Q",NA,NA,"rensink","Turtle","rensink_Turtle-as","rensink_Turtle-b","rensink_Turtle-bs",414.994,-1,18,7515,229,46,"1",7.515,0.875928984922927,0,0.875928984922927
"A1YV6W4EZP9T4Q",NA,NA,"rensink","Soldiers","rensink_Soldiers-as","rensink_Soldiers-b","rensink_Soldiers-bs",483.281,-1,22,6783,172,185,"1",6.783,0.831421817065022,0,0.831421817065022
"A1YV6W4EZP9T4Q",NA,NA,"rensink","Diver","rensink_Diver-as","rensink_Diver-b","rensink_Diver-bs",496.352,-1,23,12779,190,367,"1",12.779,1.10649687013897,0,1.10649687013897
"A1YV6W4EZP9T4Q",NA,NA,"rensink","Dinner","rensink_Dinner-as","rensink_Dinner-b","rensink_Dinner-bs",511.95,-1,24,15274,289,255,"1",15.274,1.18395278626658,0,1.18395278626658
"A1YV6W4EZP9T4Q",NA,NA,"rensink","Kayak","rensink_Kayak-as","rensink_Kayak-b","rensink_Kayak-bs",827.941,-1,29,7315,292,310,"1",7.315,0.86421433046133,0,0.86421433046133
"A26L0OBAWF7EHQ",NA,NA,"rensink","FarmByPond","rensink_FarmByPond-as","rensink_FarmByPond-b","rensink_FarmByPond-bs",68.793,-1,3,6894,219,430,"1",6.894,0.838471279071929,0,0.838471279071929
"A26L0OBAWF7EHQ",NA,NA,"rensink","Kayak","rensink_Kayak-as","rensink_Kayak-b","rensink_Kayak-bs",119.432,-1,8,7028,285,321,"1",7.028,0.846831752823257,0,0.846831752823257
"A26L0OBAWF7EHQ",NA,NA,"rensink","Harbor","rensink_Harbor-as","rensink_Harbor-b","rensink_Harbor-bs",127.978,-1,9,6802,359,336,"1",6.802,0.832636627596703,0,0.832636627596703
"A26L0OBAWF7EHQ",NA,NA,"rensink","Egypt","rensink_Egypt-as","rensink_Egypt-b","rensink_Egypt-bs",136.479,-1,10,6785,373,223,"1",6.785,0.831549851995756,0,0.831549851995756
"A26L0OBAWF7EHQ",NA,NA,"rensink","Castle","rensink_Castle-as","rensink_Castle-b","rensink_Castle-bs",161.52,-1,12,8990,377,402,"1",8.99,0.953759691733229,0,0.953759691733229
"A26L0OBAWF7EHQ",NA,NA,"rensink","NotreDame","rensink_NotreDame-as","rensink_NotreDame-b","rensink_NotreDame-bs",169.509,-1,13,6709,309,178,"1",6.709,0.826657791875869,0,0.826657791875869
"A26L0OBAWF7EHQ",NA,NA,"rensink","Lake","rensink_Lake-as","rensink_Lake-b","rensink_Lake-bs",177.877,-1,14,6678,461,325,"1",6.678,0.824646414718352,0,0.824646414718352
"A26L0OBAWF7EHQ",NA,NA,"rensink","Dinner","rensink_Dinner-as","rensink_Dinner-b","rensink_Dinner-bs",186.531,-1,15,6732,318,266,"1",6.732,0.828144107303786,0,0.828144107303786
"A26L0OBAWF7EHQ",NA,NA,"rensink","Diver","rensink_Diver-as","rensink_Diver-b","rensink_Diver-bs",208.023,-1,17,6700,153,342,"1",6.7,0.826074802700826,0,0.826074802700826
"A26L0OBAWF7EHQ",NA,NA,"rensink","Description","rensink_Description-as","rensink_Description-b","rensink_Description-bs",216.12,-1,18,6789,619,141,"1",6.789,0.831805808674391,0,0.831805808674391
"A26L0OBAWF7EHQ",NA,NA,"rensink","Soldiers","rensink_Soldiers-as","rensink_Soldiers-b","rensink_Soldiers-bs",226.698,-1,19,8849,157,208,"1",8.849,0.946894195102327,0,0.946894195102327
"A26L0OBAWF7EHQ",NA,NA,"rensink","Bus","rensink_Bus-as","rensink_Bus-b","rensink_Bus-bs",234.887,-1,20,6606,390,137,"1",6.606,0.819938569355395,0,0.819938569355395
"A26L0OBAWF7EHQ",NA,NA,"rensink","Fountain","rensink_Fountain-as","rensink_Fountain-b","rensink_Fountain-bs",242.937,-1,21,6705,456,125,"1",6.705,0.826398782187618,0,0.826398782187618
"A26L0OBAWF7EHQ",NA,NA,"rensink","Cactus","rensink_Cactus-as","rensink_Cactus-b","rensink_Cactus-bs",251.769,-1,22,6488,99,208,"1",6.488,0.8121108412031,0,0.8121108412031
"A26L0OBAWF7EHQ",NA,NA,"rensink","Farmer","rensink_Farmer-as","rensink_Farmer-b","rensink_Farmer-bs",260.339,-1,23,6823,280,170,"1",6.823,0.833975371279906,0,0.833975371279906
"A26L0OBAWF7EHQ",NA,NA,"rensink","Horizon","rensink_Horizon-as","rensink_Horizon-b","rensink_Horizon-bs",269.056,-1,24,6808,326,89,"1",6.808,0.833019547076531,0,0.833019547076531
"A26L0OBAWF7EHQ",NA,NA,"rensink","Boat","rensink_Boat-as","rensink_Boat-b","rensink_Boat-bs",277.385,-1,25,6712,253,270,"1",6.712,0.826851947820644,0,0.826851947820644
"A26L0OBAWF7EHQ",NA,NA,"rensink","Seal","rensink_Seal-as","rensink_Seal-b","rensink_Seal-bs",285.892,-1,26,6847,372,239,"1",6.847,0.835500327867319,0,0.835500327867319
"A26L0OBAWF7EHQ",NA,NA,"rensink","Kayaker","rensink_Kayaker-as","rensink_Kayaker-b","rensink_Kayaker-bs",294.904,-1,27,6674,419,189,"1",6.674,0.824386202318774,0,0.824386202318774
"A26L0OBAWF7EHQ",NA,NA,"rensink","Station","rensink_Station-as","rensink_Station-b","rensink_Station-bs",305.08,-1,28,8826,558,225,"1",8.826,0.945763923111174,0,0.945763923111174
"A26L0OBAWF7EHQ",NA,NA,"rensink","Beach","rensink_Beach-as","rensink_Beach-b","rensink_Beach-bs",313.232,-1,29,6700,553,397,"1",6.7,0.826074802700826,0,0.826074802700826
"A26L0OBAWF7EHQ",NA,NA,"rensink","Wine","rensink_Wine-as","rensink_Wine-b","rensink_Wine-bs",321.328,-1,30,6682,548,302,"1",6.682,0.824906471302112,0,0.824906471302112
"A26L0OBAWF7EHQ",NA,NA,"rensink","Kids","rensink_Kids-as","rensink_Kids-b","rensink_Kids-bs",330.185,-1,31,6797,90,325,"1",6.797,0.832317269922262,0,0.832317269922262
"A26L0OBAWF7EHQ",NA,NA,"rensink","Fishing","rensink_Fishing-as","rensink_Fishing-b","rensink_Fishing-bs",338.305,-1,32,6713,219,331,"1",6.713,0.82691664718492,0,0.82691664718492
"A28HDBWFTOID89",NA,NA,"rensink","Fishing","rensink_Fishing-as","rensink_Fishing-b","rensink_Fishing-bs",31.764,-1,3,6663,241,292,"1",6.663,0.823669813268136,0,0.823669813268136
"A28HDBWFTOID89",NA,NA,"rensink","Cactus","rensink_Cactus-as","rensink_Cactus-b","rensink_Cactus-bs",187.533,-1,18,8321,107,236,"1",8.321,0.920175522010023,0,0.920175522010023
"A28HDBWFTOID89",NA,NA,"rensink","Camel","rensink_Camel-as","rensink_Camel-b","rensink_Camel-bs",196.508,-1,19,7012,673,250,"1",7.012,0.845841907421757,0,0.845841907421757
"A28HDBWFTOID89",NA,NA,"rensink","Chopper","rensink_Chopper-as","rensink_Chopper-b","rensink_Chopper-bs",206.186,-1,20,8453,292,449,"1",8.453,0.927010868975651,0,0.927010868975651
"A28HDBWFTOID89",NA,NA,"rensink","Description","rensink_Description-as","rensink_Description-b","rensink_Description-bs",214.638,-1,21,7147,640,152,"1",7.147,0.854123782101167,0,0.854123782101167
"A28HDBWFTOID89",NA,NA,"rensink","Egypt","rensink_Egypt-as","rensink_Egypt-b","rensink_Egypt-bs",222.444,-1,22,6874,361,207,"1",6.874,0.837209527801206,0,0.837209527801206
"A28HDBWFTOID89",NA,NA,"rensink","Castle","rensink_Castle-as","rensink_Castle-b","rensink_Castle-bs",232.147,-1,23,6994,429,383,"1",6.994,0.844725627973226,0,0.844725627973226
"A28HDBWFTOID89",NA,NA,"rensink","Dinner","rensink_Dinner-as","rensink_Dinner-b","rensink_Dinner-bs",240.201,-1,24,7043,318,250,"1",7.043,0.847757688392331,0,0.847757688392331
"A28HDBWFTOID89",NA,NA,"rensink","Eating","rensink_Eating-as","rensink_Eating-b","rensink_Eating-bs",250.192,-1,25,9445,318,250,"1",9.445,0.975201962257852,0,0.975201962257852
"A28HDBWFTOID89",NA,NA,"rensink","Harbor","rensink_Harbor-as","rensink_Harbor-b","rensink_Harbor-bs",261.471,-1,26,9855,444,324,"1",9.855,0.993656628615462,0,0.993656628615462
"A28HDBWFTOID89",NA,NA,"rensink","BarnTrack","rensink_BarnTrack-as","rensink_BarnTrack-b","rensink_BarnTrack-bs",269.918,-1,27,8136,268,462,"1",8.136,0.910410939914688,0,0.910410939914688
"A28HDBWFTOID89",NA,NA,"rensink","Amish","rensink_Amish-as","rensink_Amish-b","rensink_Amish-bs",279.524,-1,28,7336,280,222,"1",7.336,0.865459322661965,0,0.865459322661965
"A28HDBWFTOID89",NA,NA,"rensink","Floatplane","rensink_Floatplane-as","rensink_Floatplane-b","rensink_Floatplane-bs",288.314,-1,29,7650,251,314,"1",7.65,0.883661435153618,0,0.883661435153618
"A28HDBWFTOID89",NA,NA,"rensink","Cockpit","rensink_Cockpit-as","rensink_Cockpit-b","rensink_Cockpit-bs",296.577,-1,30,6909,393,128,"1",6.909,0.839415192683894,0,0.839415192683894
"A28HDBWFTOID89",NA,NA,"rensink","FarmByPond","rensink_FarmByPond-as","rensink_FarmByPond-b","rensink_FarmByPond-bs",306.24,-1,31,8957,297,436,"1",8.957,0.952162574214463,0,0.952162574214463
"A28HDBWFTOID89",NA,NA,"rensink","Farmer","rensink_Farmer-as","rensink_Farmer-b","rensink_Farmer-bs",314.159,-1,32,6934,287,181,"1",6.934,0.840983837320378,0,0.840983837320378
"A2AM62BHO8G9MB",NA,NA,"rensink","Fishing","rensink_Fishing-as","rensink_Fishing-b","rensink_Fishing-bs",48.137,-1,3,6747,218,304,"1",6.747,0.829110710155295,0,0.829110710155295
"A2AM62BHO8G9MB",NA,NA,"rensink","Water","rensink_Water-as","rensink_Water-b","rensink_Water-bs",92.39,-1,5,6862,318,406,"1",6.862,0.836450713720155,0,0.836450713720155
"A2AM62BHO8G9MB",NA,NA,"rensink","Dinner","rensink_Dinner-as","rensink_Dinner-b","rensink_Dinner-bs",101.696,-1,6,6635,315,267,"1",6.635,0.821840927200454,0,0.821840927200454
"A2AM62BHO8G9MB",NA,NA,"rensink","Obelisk","rensink_Obelisk-as","rensink_Obelisk-b","rensink_Obelisk-bs",112.852,-1,7,8967,614,265,"1",8.967,0.952647169758943,0,0.952647169758943
"A2AM62BHO8G9MB",NA,NA,"rensink","Cactus","rensink_Cactus-as","rensink_Cactus-b","rensink_Cactus-bs",121.616,-1,8,6635,117,234,"1",6.635,0.821840927200454,0,0.821840927200454
"A2AM62BHO8G9MB",NA,NA,"rensink","FarmByPond","rensink_FarmByPond-as","rensink_FarmByPond-b","rensink_FarmByPond-bs",131.111,-1,9,7188,238,394,"1",7.188,0.856608068436936,0,0.856608068436936
"A2AM62BHO8G9MB",NA,NA,"rensink","CanalBridge","rensink_CanalBridge-as","rensink_CanalBridge-b","rensink_CanalBridge-bs",142.037,-1,10,8802,553,364,"1",8.802,0.944581364226926,0,0.944581364226926
"A2AM62BHO8G9MB",NA,NA,"rensink","Barrels","rensink_Barrels-as","rensink_Barrels-b","rensink_Barrels-bs",154.718,-1,11,10676,651,467,"1",10.676,1.02840856511547,0,1.02840856511547
"A2AM62BHO8G9MB",NA,NA,"rensink","Soldiers","rensink_Soldiers-as","rensink_Soldiers-b","rensink_Soldiers-bs",167.811,-1,12,10941,141,172,"1",10.941,1.03905701803344,0,1.03905701803344
"A2AM62BHO8G9MB",NA,NA,"rensink","Ice","rensink_Ice-as","rensink_Ice-b","rensink_Ice-bs",178.845,-1,13,8816,77,241,"1",8.816,0.94527158150771,0,0.94527158150771
"A2AM62BHO8G9MB",NA,NA,"rensink","Wine","rensink_Wine-as","rensink_Wine-b","rensink_Wine-bs",187.588,-1,14,6874,516,290,"1",6.874,0.837209527801206,0,0.837209527801206
"A2AM62BHO8G9MB",NA,NA,"rensink","Market","rensink_Market-as","rensink_Market-b","rensink_Market-bs",204.606,-1,15,15035,70,350,"1",15.035,1.17710343243654,0,1.17710343243654
"A2AM62BHO8G9MB",NA,NA,"rensink","Floatplane","rensink_Floatplane-as","rensink_Floatplane-b","rensink_Floatplane-bs",213.43,-1,16,6778,268,315,"1",6.778,0.831101564501359,0,0.831101564501359
"A2AM62BHO8G9MB",NA,NA,"rensink","Nurses","rensink_Nurses-as","rensink_Nurses-b","rensink_Nurses-bs",225.134,-1,17,8553,641,118,"1",8.553,0.932118472029122,0,0.932118472029122
"A2AM62BHO8G9MB",NA,NA,"rensink","Beach","rensink_Beach-as","rensink_Beach-b","rensink_Beach-bs",233.708,-1,18,6809,522,413,"1",6.809,0.833083334178343,0,0.833083334178343
"A2AM62BHO8G9MB",NA,NA,"rensink","Lake","rensink_Lake-as","rensink_Lake-b","rensink_Lake-bs",242.905,-1,19,6978,474,317,"1",6.978,0.843730965112092,0,0.843730965112092
"A2AM62BHO8G9MB",NA,NA,"rensink","Barns","rensink_Barns-as","rensink_Barns-b","rensink_Barns-bs",255.491,-1,20,10675,183,370,"1",10.675,1.02836788369706,0,1.02836788369706
"A2AM62BHO8G9MB",NA,NA,"rensink","Birds","rensink_Birds-as","rensink_Birds-b","rensink_Birds-bs",266.7,-1,21,8646,358,20,"1",8.646,0.936815231197633,0,0.936815231197633
"A2AM62BHO8G9MB",NA,NA,"rensink","Description","rensink_Description-as","rensink_Description-b","rensink_Description-bs",279.618,-1,22,10823,627,115,"1",10.823,1.03434765844685,0,1.03434765844685
"A2AM62BHO8G9MB",NA,NA,"rensink","Pilots","rensink_Pilots-as","rensink_Pilots-b","rensink_Pilots-bs",293.036,-1,23,12162,676,199,"1",12.162,1.08500499907665,0,1.08500499907665
"A2AM62BHO8G9MB",NA,NA,"rensink","SummerLake","rensink_SummerLake-as","rensink_SummerLake-b","rensink_SummerLake-bs",318.358,-1,24,23428,544,311,"1",23.428,1.36973521535592,0,1.36973521535592
"A2AM62BHO8G9MB",NA,NA,"rensink","Boat","rensink_Boat-as","rensink_Boat-b","rensink_Boat-bs",327.283,-1,25,6744,284,262,"1",6.744,0.828917561616686,0,0.828917561616686
"A2AM62BHO8G9MB",NA,NA,"rensink","Station","rensink_Station-as","rensink_Station-b","rensink_Station-bs",338.466,-1,26,8822,595,220,"1",8.822,0.945567053442388,0,0.945567053442388
"A2AM62BHO8G9MB",NA,NA,"rensink","Kayak","rensink_Kayak-as","rensink_Kayak-b","rensink_Kayak-bs",347.283,-1,27,6851,269,313,"1",6.851,0.835753967519383,0,0.835753967519383
"A2AM62BHO8G9MB",NA,NA,"rensink","Eating","rensink_Eating-as","rensink_Eating-b","rensink_Eating-bs",358.438,-1,28,8856,343,246,"1",8.856,0.947237607870666,0,0.947237607870666
"A2AM62BHO8G9MB",NA,NA,"rensink","Farmer","rensink_Farmer-as","rensink_Farmer-b","rensink_Farmer-bs",367.952,-1,29,6905,289,164,"1",6.905,0.83916368291465,0,0.83916368291465
"A2AM62BHO8G9MB",NA,NA,"rensink","Kids","rensink_Kids-as","rensink_Kids-b","rensink_Kids-bs",377.32,-1,30,6793,98,302,"1",6.793,0.832061614590727,0,0.832061614590727
"A2AM62BHO8G9MB",NA,NA,"rensink","Marling","rensink_Marling-as","rensink_Marling-b","rensink_Marling-bs",390.52,-1,31,11035,286,456,"1",11.035,1.04277233749767,0,1.04277233749767
"A2AM62BHO8G9MB",NA,NA,"rensink","Diver","rensink_Diver-as","rensink_Diver-b","rensink_Diver-bs",400.726,-1,32,8750,185,343,"1",8.75,0.942008053022313,0,0.942008053022313
"A2GOS6NF74E2ST",NA,NA,"rensink","Bus","rensink_Bus-as","rensink_Bus-b","rensink_Bus-bs",79.378,-1,3,6646,401,121,"1",6.646,0.822560336942692,0,0.822560336942692
"A2GOS6NF74E2ST",NA,NA,"rensink","SummerLake","rensink_SummerLake-as","rensink_SummerLake-b","rensink_SummerLake-bs",98.987,-1,5,7402,492,305,"1",7.402,0.869349080759093,0,0.869349080759093
"A2GOS6NF74E2ST",NA,NA,"rensink","Ice","rensink_Ice-as","rensink_Ice-b","rensink_Ice-bs",114.461,-1,6,14873,76,237,"1",14.873,1.1723985779393,0,1.1723985779393
"A2GOS6NF74E2ST",NA,NA,"rensink","Barns","rensink_Barns-as","rensink_Barns-b","rensink_Barns-bs",129.803,-1,7,14752,172,381,"1",14.752,1.16885090370955,0,1.16885090370955
"A2GOS6NF74E2ST",NA,NA,"rensink","Horizon","rensink_Horizon-as","rensink_Horizon-b","rensink_Horizon-bs",143.573,-1,8,13298,322,63,"1",13.298,1.12378632861537,0,1.12378632861537
"A2GOS6NF74E2ST",NA,NA,"rensink","Lake","rensink_Lake-as","rensink_Lake-b","rensink_Lake-bs",150.841,-1,9,6722,486,305,"1",6.722,0.827498508133459,0,0.827498508133459
"A2GOS6NF74E2ST",NA,NA,"rensink","Birds","rensink_Birds-as","rensink_Birds-b","rensink_Birds-bs",160.69,-1,10,9267,196,27,"1",9.267,0.966939163021113,0,0.966939163021113
"A2GOS6NF74E2ST",NA,NA,"rensink","Obelisk","rensink_Obelisk-as","rensink_Obelisk-b","rensink_Obelisk-bs",169.897,-1,11,8738,606,267,"1",8.738,0.94141204037355,0,0.94141204037355
"A2GOS6NF74E2ST",NA,NA,"rensink","FarmByPond","rensink_FarmByPond-as","rensink_FarmByPond-b","rensink_FarmByPond-bs",179.035,-1,12,8538,223,429,"1",8.538,0.931356150467928,0,0.931356150467928
"A2GOS6NF74E2ST",NA,NA,"rensink","Cockpit","rensink_Cockpit-as","rensink_Cockpit-b","rensink_Cockpit-bs",187.195,-1,13,7814,382,161,"1",7.814,0.892873406888766,0,0.892873406888766
"A2GOS6NF74E2ST",NA,NA,"rensink","Nurses","rensink_Nurses-as","rensink_Nurses-b","rensink_Nurses-bs",194.952,-1,14,7267,567,121,"1",7.267,0.86135516019326,0,0.86135516019326
"A2GOS6NF74E2ST",NA,NA,"rensink","Description","rensink_Description-as","rensink_Description-b","rensink_Description-bs",214.089,-1,16,8651,645,77,"1",8.651,0.937066312017428,0,0.937066312017428
"A2GOS6NF74E2ST",NA,NA,"rensink","Station","rensink_Station-as","rensink_Station-b","rensink_Station-bs",221.723,-1,17,7316,574,219,"1",7.316,0.864273696804379,0,0.864273696804379
"A2GOS6NF74E2ST",NA,NA,"rensink","Camel","rensink_Camel-as","rensink_Camel-b","rensink_Camel-bs",230.682,-1,18,8527,673,243,"1",8.527,0.9307962629833,0,0.9307962629833
"A2GOS6NF74E2ST",NA,NA,"rensink","Mosque","rensink_Mosque-as","rensink_Mosque-b","rensink_Mosque-bs",237.88,-1,19,6651,358,166,"1",6.651,0.822886947834151,0,0.822886947834151
"A2GOS6NF74E2ST",NA,NA,"rensink","Amish","rensink_Amish-as","rensink_Amish-b","rensink_Amish-bs",245.275,-1,20,6903,247,218,"1",6.903,0.839037873388306,0,0.839037873388306
"A2GOS6NF74E2ST",NA,NA,"rensink","Army","rensink_Army-as","rensink_Army-b","rensink_Army-bs",254.413,-1,21,8711,631,215,"1",8.711,0.940068013739353,0,0.940068013739353
"A2GOS6NF74E2ST",NA,NA,"rensink","Castle","rensink_Castle-as","rensink_Castle-b","rensink_Castle-bs",265.849,-1,22,11069,442,390,"1",11.069,1.04410838744612,0,1.04410838744612
"A2GOS6NF74E2ST",NA,NA,"rensink","Farmer","rensink_Farmer-as","rensink_Farmer-b","rensink_Farmer-bs",274.806,-1,23,8616,278,193,"1",8.616,0.935305690289925,0,0.935305690289925
"A2GOS6NF74E2ST",NA,NA,"rensink","Kayaker","rensink_Kayaker-as","rensink_Kayaker-b","rensink_Kayaker-bs",283.919,-1,24,8646,426,156,"1",8.646,0.936815231197633,0,0.936815231197633
"A2GOS6NF74E2ST",NA,NA,"rensink","CanalBridge","rensink_CanalBridge-as","rensink_CanalBridge-b","rensink_CanalBridge-bs",293.138,-1,25,8836,513,376,"1",8.836,0.946255707199397,0,0.946255707199397
"A2GOS6NF74E2ST",NA,NA,"rensink","Market","rensink_Market-as","rensink_Market-b","rensink_Market-bs",302.617,-1,26,8781,63,340,"1",8.781,0.943543977153454,0,0.943543977153454
"A2GOS6NF74E2ST",NA,NA,"rensink","Beach","rensink_Beach-as","rensink_Beach-b","rensink_Beach-bs",309.942,-1,27,6765,528,413,"1",6.765,0.830267800933642,0,0.830267800933642
"A2GOS6NF74E2ST",NA,NA,"rensink","Turtle","rensink_Turtle-as","rensink_Turtle-b","rensink_Turtle-bs",317.086,-1,28,6705,206,33,"1",6.705,0.826398782187618,0,0.826398782187618
"A2GOS6NF74E2ST",NA,NA,"rensink","Water","rensink_Water-as","rensink_Water-b","rensink_Water-bs",324.4,-1,29,6800,390,427,"1",6.8,0.832508912706236,0,0.832508912706236
"A2GOS6NF74E2ST",NA,NA,"rensink","Chopper","rensink_Chopper-as","rensink_Chopper-b","rensink_Chopper-bs",333.933,-1,30,8990,251,455,"1",8.99,0.953759691733229,0,0.953759691733229
"A2GOS6NF74E2ST",NA,NA,"rensink","Boat","rensink_Boat-as","rensink_Boat-b","rensink_Boat-bs",341.356,-1,31,6816,280,271,"1",6.816,0.833529581758644,0,0.833529581758644
"A2GOS6NF74E2ST",NA,NA,"rensink","Fountain","rensink_Fountain-as","rensink_Fountain-b","rensink_Fountain-bs",348.794,-1,32,6900,441,122,"1",6.9,0.838849090737255,0,0.838849090737255
"A2JDYN6QM8M5UN",NA,NA,"rensink","SummerLake","rensink_SummerLake-as","rensink_SummerLake-b","rensink_SummerLake-bs",45.644,-1,3,6811,524,309,"1",6.811,0.833210880282609,0,0.833210880282609
"A2JDYN6QM8M5UN",NA,NA,"rensink","Kids","rensink_Kids-as","rensink_Kids-b","rensink_Kids-bs",53.802,-1,4,6682,92,323,"1",6.682,0.824906471302112,0,0.824906471302112
"A2JDYN6QM8M5UN",NA,NA,"rensink","Fishing","rensink_Fishing-as","rensink_Fishing-b","rensink_Fishing-bs",62.284,-1,5,6440,292,327,"1",6.44,0.808885867359812,0,0.808885867359812
"A2JDYN6QM8M5UN",NA,NA,"rensink","Farmer","rensink_Farmer-as","rensink_Farmer-b","rensink_Farmer-bs",69.569,-1,6,6641,275,204,"1",6.641,0.822233480238844,0,0.822233480238844
"A2JDYN6QM8M5UN",NA,NA,"rensink","Birds","rensink_Birds-as","rensink_Birds-b","rensink_Birds-bs",93.425,-1,9,7486,406,14,"1",7.486,0.874249822778403,0,0.874249822778403
"A2JDYN6QM8M5UN",NA,NA,"rensink","Kayaker","rensink_Kayaker-as","rensink_Kayaker-b","rensink_Kayaker-bs",101.051,-1,10,6759,418,176,"1",6.759,0.829882446443493,0,0.829882446443493
"A2JDYN6QM8M5UN",NA,NA,"rensink","Mosque","rensink_Mosque-as","rensink_Mosque-b","rensink_Mosque-bs",125.946,-1,13,8180,351,204,"1",8.18,0.912753303671323,0,0.912753303671323
"A2JDYN6QM8M5UN",NA,NA,"rensink","Obelisk","rensink_Obelisk-as","rensink_Obelisk-b","rensink_Obelisk-bs",144.287,-1,15,8216,609,253,"1",8.216,0.914660430589222,0,0.914660430589222
"A2JDYN6QM8M5UN",NA,NA,"rensink","Floatplane","rensink_Floatplane-as","rensink_Floatplane-b","rensink_Floatplane-bs",151.764,-1,16,6869,275,316,"1",6.869,0.836893516376434,0,0.836893516376434
"A2JDYN6QM8M5UN",NA,NA,"rensink","FarmByPond","rensink_FarmByPond-as","rensink_FarmByPond-b","rensink_FarmByPond-bs",159.633,-1,17,6912,146,396,"1",6.912,0.839603729470837,0,0.839603729470837
"A2JDYN6QM8M5UN",NA,NA,"rensink","Cockpit","rensink_Cockpit-as","rensink_Cockpit-b","rensink_Cockpit-bs",171.608,-1,18,11331,403,121,"1",11.331,1.05426823954719,0,1.05426823954719
"A2JDYN6QM8M5UN",NA,NA,"rensink","Egypt","rensink_Egypt-as","rensink_Egypt-b","rensink_Egypt-bs",178.951,-1,19,6822,352,194,"1",6.822,0.833911715071378,0,0.833911715071378
"A2JDYN6QM8M5UN",NA,NA,"rensink","Lake","rensink_Lake-as","rensink_Lake-b","rensink_Lake-bs",186.362,-1,20,6766,471,272,"1",6.766,0.830331993451962,0,0.830331993451962
"A2JDYN6QM8M5UN",NA,NA,"rensink","Diver","rensink_Diver-as","rensink_Diver-b","rensink_Diver-bs",193.549,-1,21,6708,172,354,"1",6.708,0.826593053934048,0,0.826593053934048
"A2JDYN6QM8M5UN",NA,NA,"rensink","Barrels","rensink_Barrels-as","rensink_Barrels-b","rensink_Barrels-bs",204.689,-1,22,10709,659,483,"1",10.709,1.02974891856684,0,1.02974891856684
"A2JDYN6QM8M5UN",NA,NA,"rensink","Nurses","rensink_Nurses-as","rensink_Nurses-b","rensink_Nurses-bs",212.011,-1,23,6849,648,141,"1",6.849,0.835627166209898,0,0.835627166209898
"A2JDYN6QM8M5UN",NA,NA,"rensink","Chopper","rensink_Chopper-as","rensink_Chopper-b","rensink_Chopper-bs",224.306,-1,24,10801,275,447,"1",10.801,1.03346396607741,0,1.03346396607741
"A2JDYN6QM8M5UN",NA,NA,"rensink","NotreDame","rensink_NotreDame-as","rensink_NotreDame-b","rensink_NotreDame-bs",231.666,-1,25,6949,299,155,"1",6.949,0.841922311679451,0,0.841922311679451
"A2JDYN6QM8M5UN",NA,NA,"rensink","Boat","rensink_Boat-as","rensink_Boat-b","rensink_Boat-bs",239.523,-1,26,6752,234,271,"1",6.752,0.829432433617599,0,0.829432433617599
"A2JDYN6QM8M5UN",NA,NA,"rensink","Soldiers","rensink_Soldiers-as","rensink_Soldiers-b","rensink_Soldiers-bs",247.741,-1,27,6644,145,186,"1",6.644,0.822429623779357,0,0.822429623779357
"A2JDYN6QM8M5UN",NA,NA,"rensink","Turtle","rensink_Turtle-as","rensink_Turtle-b","rensink_Turtle-bs",254.991,-1,28,6783,253,25,"1",6.783,0.831421817065022,0,0.831421817065022
"A2JDYN6QM8M5UN",NA,NA,"rensink","BarnTrack","rensink_BarnTrack-as","rensink_BarnTrack-b","rensink_BarnTrack-bs",264.4,-1,29,8675,209,463,"1",8.675,0.938269483462911,0,0.938269483462911
"A2JDYN6QM8M5UN",NA,NA,"rensink","Wine","rensink_Wine-as","rensink_Wine-b","rensink_Wine-bs",272.308,-1,30,6716,444,279,"1",6.716,0.827110687466011,0,0.827110687466011
"A2JDYN6QM8M5UN",NA,NA,"rensink","Station","rensink_Station-as","rensink_Station-b","rensink_Station-bs",281.615,-1,31,8581,591,224,"1",8.581,0.933537901971705,0,0.933537901971705
"A2JDYN6QM8M5UN",NA,NA,"rensink","Window","rensink_Window-as","rensink_Window-b","rensink_Window-bs",290.586,-1,32,8603,59,408,"1",8.603,0.934649922900711,0,0.934649922900711
"A2V4DP31BEVABF",NA,NA,"rensink","SummerLake","rensink_SummerLake-as","rensink_SummerLake-b","rensink_SummerLake-bs",76.46,-1,3,8677,515,303,"1",8.677,0.938369597451806,0,0.938369597451806
"A2V4DP31BEVABF",NA,NA,"rensink","Castle","rensink_Castle-as","rensink_Castle-b","rensink_Castle-bs",89.582,-1,4,12572,426,392,"1",12.572,1.09940437234554,0,1.09940437234554
"A2V4DP31BEVABF",NA,NA,"rensink","Beach","rensink_Beach-as","rensink_Beach-b","rensink_Beach-bs",98.407,-1,5,8458,538,391,"1",8.458,0.927267680810882,0,0.927267680810882
"A2V4DP31BEVABF",NA,NA,"rensink","Camel","rensink_Camel-as","rensink_Camel-b","rensink_Camel-bs",111.649,-1,6,12730,676,231,"1",12.73,1.10482840365366,0,1.10482840365366
"A2V4DP31BEVABF",NA,NA,"rensink","Egypt","rensink_Egypt-as","rensink_Egypt-b","rensink_Egypt-bs",120.602,-1,7,8471,379,211,"1",8.471,0.927934681741179,0,0.927934681741179
"A2V4DP31BEVABF",NA,NA,"rensink","FarmByPond","rensink_FarmByPond-as","rensink_FarmByPond-b","rensink_FarmByPond-bs",131.715,-1,8,10639,235,416,"1",10.639,1.02690080889026,0,1.02690080889026
"A2V4DP31BEVABF",NA,NA,"rensink","NotreDame","rensink_NotreDame-as","rensink_NotreDame-b","rensink_NotreDame-bs",145.261,-1,9,13110,293,155,"1",13.11,1.11760269169008,0,1.11760269169008
"A2V4DP31BEVABF",NA,NA,"rensink","Dinner","rensink_Dinner-as","rensink_Dinner-b","rensink_Dinner-bs",152.71,-1,10,6891,308,266,"1",6.891,0.838282249914688,0,0.838282249914688
"A2V4DP31BEVABF",NA,NA,"rensink","Birds","rensink_Birds-as","rensink_Birds-b","rensink_Birds-bs",164.047,-1,11,10724,494,10,"1",10.724,1.03035680531084,0,1.03035680531084
"A2V4DP31BEVABF",NA,NA,"rensink","Market","rensink_Market-as","rensink_Market-b","rensink_Market-bs",183.65,-1,12,19050,36,312,"1",19.05,1.27989498001164,0,1.27989498001164
"A2V4DP31BEVABF",NA,NA,"rensink","Amish","rensink_Amish-as","rensink_Amish-b","rensink_Amish-bs",192.275,-1,13,6831,270,212,"1",6.831,0.834484285334805,0,0.834484285334805
"A2V4DP31BEVABF",NA,NA,"rensink","BarnTrack","rensink_BarnTrack-as","rensink_BarnTrack-b","rensink_BarnTrack-bs",203.684,-1,14,10958,295,471,"1",10.958,1.03973129609869,0,1.03973129609869
"A2V4DP31BEVABF",NA,NA,"rensink","Mosque","rensink_Mosque-as","rensink_Mosque-b","rensink_Mosque-bs",215.965,-1,15,11373,348,236,"1",11.373,1.0558750391461,0,1.0558750391461
"A2V4DP31BEVABF",NA,NA,"rensink","Soldiers","rensink_Soldiers-as","rensink_Soldiers-b","rensink_Soldiers-bs",226.023,-1,16,9180,160,184,"1",9.18,0.962842681201242,0,0.962842681201242
"A2V4DP31BEVABF",NA,NA,"rensink","Nurses","rensink_Nurses-as","rensink_Nurses-b","rensink_Nurses-bs",243.753,-1,17,17355,576,61,"1",17.355,1.23942461800743,0,1.23942461800743
"A2V4DP31BEVABF",NA,NA,"rensink","Kayak","rensink_Kayak-as","rensink_Kayak-b","rensink_Kayak-bs",251.186,-1,18,6952,279,278,"1",6.952,0.84210976344061,0,0.84210976344061
"A2V4DP31BEVABF",NA,NA,"rensink","OtherDiver","rensink_OtherDiver-as","rensink_OtherDiver-b","rensink_OtherDiver-bs",270.964,-1,19,19383,584,270,"1",19.383,1.28742099575983,0,1.28742099575983
"A2V4DP31BEVABF",NA,NA,"rensink","Kayaker","rensink_Kayaker-as","rensink_Kayaker-b","rensink_Kayaker-bs",288.438,-1,20,16908,401,127,"1",16.908,1.22809223915698,0,1.22809223915698
"A2V4DP31BEVABF",NA,NA,"rensink","Seal","rensink_Seal-as","rensink_Seal-b","rensink_Seal-bs",297.727,-1,21,8914,393,232,"1",8.914,0.950072629750157,0,0.950072629750157
"A2V4DP31BEVABF",NA,NA,"rensink","Barns","rensink_Barns-as","rensink_Barns-b","rensink_Barns-bs",315.385,-1,22,17257,198,366,"1",17.257,1.23696529910298,0,1.23696529910298
"A2V4DP31BEVABF",NA,NA,"rensink","Farmer","rensink_Farmer-as","rensink_Farmer-b","rensink_Farmer-bs",330.931,-1,23,15119,286,180,"1",15.119,1.17952306703529,0,1.17952306703529
"A2V4DP31BEVABF",NA,NA,"rensink","Fountain","rensink_Fountain-as","rensink_Fountain-b","rensink_Fountain-bs",341.853,-1,24,10542,458,119,"1",10.542,1.02292301187894,0,1.02292301187894
"A2V4DP31BEVABF",NA,NA,"rensink","Lake","rensink_Lake-as","rensink_Lake-b","rensink_Lake-bs",350.718,-1,25,8499,478,258,"1",8.499,0.9293678292401,0,0.9293678292401
"A2V4DP31BEVABF",NA,NA,"rensink","Bus","rensink_Bus-as","rensink_Bus-b","rensink_Bus-bs",360.023,-1,26,8507,404,126,"1",8.507,0.929776432804902,0,0.929776432804902
"A2V4DP31BEVABF",NA,NA,"rensink","Description","rensink_Description-as","rensink_Description-b","rensink_Description-bs",371.592,-1,27,11130,629,134,"1",11.13,1.04649516433471,0,1.04649516433471
"A2V4DP31BEVABF",NA,NA,"rensink","Horizon","rensink_Horizon-as","rensink_Horizon-b","rensink_Horizon-bs",382.41,-1,28,10513,424,59,"1",10.513,1.02172666441378,0,1.02172666441378
"A2V4DP31BEVABF",NA,NA,"rensink","Chopper","rensink_Chopper-as","rensink_Chopper-b","rensink_Chopper-bs",395.411,-1,29,12599,480,471,"1",12.599,1.1003360759337,0,1.1003360759337
"A2V4DP31BEVABF",NA,NA,"rensink","Diver","rensink_Diver-as","rensink_Diver-b","rensink_Diver-bs",404.636,-1,30,8741,150,342,"1",8.741,0.941561120236071,0,0.941561120236071
"A2V4DP31BEVABF",NA,NA,"rensink","Harbor","rensink_Harbor-as","rensink_Harbor-b","rensink_Harbor-bs",412.085,-1,31,6925,354,331,"1",6.925,0.840419777736486,0,0.840419777736486
"A2V4DP31BEVABF",NA,NA,"rensink","Station","rensink_Station-as","rensink_Station-b","rensink_Station-bs",425.255,-1,32,12588,578,220,"1",12.588,1.09995673424118,0,1.09995673424118
"A2XCEMBRPHIWEG",NA,NA,"rensink","Description","rensink_Description-as","rensink_Description-b","rensink_Description-bs",321.699,-1,4,7834,597,125,"1",7.834,0.893983567211847,0,0.893983567211847
"A2XCEMBRPHIWEG",NA,NA,"rensink","Birds","rensink_Birds-as","rensink_Birds-b","rensink_Birds-bs",329.523,-1,5,6835,440,28,"1",6.835,0.834738518903841,0,0.834738518903841
"A2XCEMBRPHIWEG",NA,NA,"rensink","Window","rensink_Window-as","rensink_Window-b","rensink_Window-bs",346.091,-1,8,6923,87,388,"1",6.923,0.840294331611436,0,0.840294331611436
"A2XCEMBRPHIWEG",NA,NA,"rensink","Cockpit","rensink_Cockpit-as","rensink_Cockpit-b","rensink_Cockpit-bs",1131.192,-1,18,4040,338,193,"1",4.04,0.606381365110605,0,0.606381365110605
"A2XCEMBRPHIWEG",NA,NA,"rensink","Egypt","rensink_Egypt-as","rensink_Egypt-b","rensink_Egypt-bs",1167.216,-1,24,17659,384,142,"1",17.659,1.24696610655874,0,1.24696610655874
"A2XCEMBRPHIWEG",NA,NA,"rensink","CanalBridge","rensink_CanalBridge-as","rensink_CanalBridge-b","rensink_CanalBridge-bs",1228.133,-1,31,8828,565,340,"1",8.828,0.945862324489617,0,0.945862324489617
"A2XCEMBRPHIWEG",NA,NA,"rensink","SummerLake","rensink_SummerLake-as","rensink_SummerLake-b","rensink_SummerLake-bs",1235.74,-1,32,6758,532,305,"1",6.758,0.829818187438877,0,0.829818187438877
"A2Y4UMAUYJM9GK",NA,NA,"rensink","Soldiers","rensink_Soldiers-as","rensink_Soldiers-b","rensink_Soldiers-bs",54.394,-1,3,5318,170,206,"1",5.318,0.725748332995548,0,0.725748332995548
"A2Y4UMAUYJM9GK",NA,NA,"rensink","Seal","rensink_Seal-as","rensink_Seal-b","rensink_Seal-bs",60.701,-1,4,5153,387,242,"1",5.153,0.712060142461075,0,0.712060142461075
"A2Y4UMAUYJM9GK",NA,NA,"rensink","Pilots","rensink_Pilots-as","rensink_Pilots-b","rensink_Pilots-bs",66.578,-1,5,5249,642,234,"1",5.249,0.720076572768141,0,0.720076572768141
"A2Y4UMAUYJM9GK",NA,NA,"rensink","Harbor","rensink_Harbor-as","rensink_Harbor-b","rensink_Harbor-bs",72.4,-1,6,4936,415,324,"1",4.936,0.693375151025185,0,0.693375151025185
"A2Y4UMAUYJM9GK",NA,NA,"rensink","Eating","rensink_Eating-as","rensink_Eating-b","rensink_Eating-bs",78.231,-1,7,4858,373,243,"1",4.858,0.686457510469112,0,0.686457510469112
"A2Y4UMAUYJM9GK",NA,NA,"rensink","Nurses","rensink_Nurses-as","rensink_Nurses-b","rensink_Nurses-bs",84.236,-1,8,4906,573,91,"1",4.906,0.690727543870367,0,0.690727543870367
"A2Y4UMAUYJM9GK",NA,NA,"rensink","Fishing","rensink_Fishing-as","rensink_Fishing-b","rensink_Fishing-bs",89.971,-1,9,4931,170,305,"1",4.931,0.692935002531138,0,0.692935002531138
"A2Y4UMAUYJM9GK",NA,NA,"rensink","Ice","rensink_Ice-as","rensink_Ice-b","rensink_Ice-bs",96.153,-1,10,4809,71,239,"1",4.809,0.682054777073807,0,0.682054777073807
"A2Y4UMAUYJM9GK",NA,NA,"rensink","CanalBridge","rensink_CanalBridge-as","rensink_CanalBridge-b","rensink_CanalBridge-bs",101.979,-1,11,5073,564,352,"1",5.073,0.705264862317404,0,0.705264862317404
"A2Y4UMAUYJM9GK",NA,NA,"rensink","Marling","rensink_Marling-as","rensink_Marling-b","rensink_Marling-bs",107.626,-1,12,4775,279,430,"1",4.775,0.678973375919765,0,0.678973375919765
"A2Y4UMAUYJM9GK",NA,NA,"rensink","Diver","rensink_Diver-as","rensink_Diver-b","rensink_Diver-bs",113.318,-1,13,4759,147,364,"1",4.759,0.677515704798758,0,0.677515704798758
"A2Y4UMAUYJM9GK",NA,NA,"rensink","Dinner","rensink_Dinner-as","rensink_Dinner-b","rensink_Dinner-bs",118.876,-1,14,4851,341,267,"1",4.851,0.685831274626064,0,0.685831274626064
"A2Y4UMAUYJM9GK",NA,NA,"rensink","BarnTrack","rensink_BarnTrack-as","rensink_BarnTrack-b","rensink_BarnTrack-bs",124.433,-1,15,4831,197,458,"1",4.831,0.68403703748652,0,0.68403703748652
"A2Y4UMAUYJM9GK",NA,NA,"rensink","Bus","rensink_Bus-as","rensink_Bus-b","rensink_Bus-bs",130.392,-1,16,4840,404,118,"1",4.84,0.684845361644412,0,0.684845361644412
"A2Y4UMAUYJM9GK",NA,NA,"rensink","Kayaker","rensink_Kayaker-as","rensink_Kayaker-b","rensink_Kayaker-bs",135.982,-1,17,4756,424,166,"1",4.756,0.677241845946654,0,0.677241845946654
"A2Y4UMAUYJM9GK",NA,NA,"rensink","Amish","rensink_Amish-as","rensink_Amish-b","rensink_Amish-bs",142.054,-1,18,4940,263,218,"1",4.94,0.693726948923647,0,0.693726948923647
"A2Y4UMAUYJM9GK",NA,NA,"rensink","Obelisk","rensink_Obelisk-as","rensink_Obelisk-b","rensink_Obelisk-bs",147.426,-1,19,4734,603,257,"1",4.734,0.675228253593064,0,0.675228253593064
"A2Y4UMAUYJM9GK",NA,NA,"rensink","Kayak","rensink_Kayak-as","rensink_Kayak-b","rensink_Kayak-bs",153.232,-1,20,4815,268,294,"1",4.815,0.682596291460553,0,0.682596291460553
"A2Y4UMAUYJM9GK",NA,NA,"rensink","Fountain","rensink_Fountain-as","rensink_Fountain-b","rensink_Fountain-bs",159.41,-1,21,4789,447,128,"1",4.789,0.680244837042608,0,0.680244837042608
"A2Y4UMAUYJM9GK",NA,NA,"rensink","Army","rensink_Army-as","rensink_Army-b","rensink_Army-bs",164.797,-1,22,4711,635,212,"1",4.711,0.673113104238234,0,0.673113104238234
"A2Y4UMAUYJM9GK",NA,NA,"rensink","Water","rensink_Water-as","rensink_Water-b","rensink_Water-bs",170.347,-1,23,4782,448,431,"1",4.782,0.679609571779756,0,0.679609571779756
"A2Y4UMAUYJM9GK",NA,NA,"rensink","Description","rensink_Description-as","rensink_Description-b","rensink_Description-bs",175.7,-1,24,4718,620,134,"1",4.718,0.673757936549577,0,0.673757936549577
"A2Y4UMAUYJM9GK",NA,NA,"rensink","Window","rensink_Window-as","rensink_Window-b","rensink_Window-bs",181.286,-1,25,4703,76,406,"1",4.703,0.67237497874608,0,0.67237497874608
"A2Y4UMAUYJM9GK",NA,NA,"rensink","Mosque","rensink_Mosque-as","rensink_Mosque-b","rensink_Mosque-bs",186.974,-1,26,4611,358,236,"1",4.611,0.663795122219408,0,0.663795122219408
"A2Y4UMAUYJM9GK",NA,NA,"rensink","Camel","rensink_Camel-as","rensink_Camel-b","rensink_Camel-bs",192.902,-1,27,4793,666,236,"1",4.793,0.680607428991788,0,0.680607428991788
"A2Y4UMAUYJM9GK",NA,NA,"rensink","Chopper","rensink_Chopper-as","rensink_Chopper-b","rensink_Chopper-bs",198.437,-1,28,4730,289,454,"1",4.73,0.674861140737812,0,0.674861140737812
"A2Y4UMAUYJM9GK",NA,NA,"rensink","Cactus","rensink_Cactus-as","rensink_Cactus-b","rensink_Cactus-bs",204.234,-1,29,4729,101,241,"1",4.729,0.674769314015426,0,0.674769314015426
"A2Y4UMAUYJM9GK",NA,NA,"rensink","Barns","rensink_Barns-as","rensink_Barns-b","rensink_Barns-bs",209.89,-1,30,4818,179,373,"1",4.818,0.682866795662325,0,0.682866795662325
"A2Y4UMAUYJM9GK",NA,NA,"rensink","Horizon","rensink_Horizon-as","rensink_Horizon-b","rensink_Horizon-bs",215.568,-1,31,4735,317,72,"1",4.735,0.675319983339292,0,0.675319983339292
"A2Y4UMAUYJM9GK",NA,NA,"rensink","Beach","rensink_Beach-as","rensink_Beach-b","rensink_Beach-bs",220.968,-1,32,4692,514,401,"1",4.692,0.671358003443492,0,0.671358003443492
"A33AZCOKCCTUXV",NA,NA,"rensink","Kayak","rensink_Kayak-as","rensink_Kayak-b","rensink_Kayak-bs",66.818,-1,3,7228,271,291,"1",7.228,0.859018143888894,0,0.859018143888894
"A33AZCOKCCTUXV",NA,NA,"rensink","Army","rensink_Army-as","rensink_Army-b","rensink_Army-bs",95.042,-1,5,7525,660,209,"1",7.525,0.876506504265881,0,0.876506504265881
"A33AZCOKCCTUXV",NA,NA,"rensink","OtherDiver","rensink_OtherDiver-as","rensink_OtherDiver-b","rensink_OtherDiver-bs",106.374,-1,6,10530,593,276,"1",10.53,1.02242837118549,0,1.02242837118549
"A33AZCOKCCTUXV",NA,NA,"rensink","Eating","rensink_Eating-as","rensink_Eating-b","rensink_Eating-bs",120.294,-1,7,13142,658,263,"1",13.142,1.1186614628545,0,1.1186614628545
"A33AZCOKCCTUXV",NA,NA,"rensink","Floatplane","rensink_Floatplane-as","rensink_Floatplane-b","rensink_Floatplane-bs",128.334,-1,8,6893,262,314,"1",6.893,0.838408278494187,0,0.838408278494187
"A33AZCOKCCTUXV",NA,NA,"rensink","Wine","rensink_Wine-as","rensink_Wine-b","rensink_Wine-bs",135.734,-1,9,6726,524,283,"1",6.726,0.827756862978617,0,0.827756862978617
"A33AZCOKCCTUXV",NA,NA,"rensink","Harbor","rensink_Harbor-as","rensink_Harbor-b","rensink_Harbor-bs",143.222,-1,10,6653,421,329,"1",6.653,0.823017523446049,0,0.823017523446049
"A33AZCOKCCTUXV",NA,NA,"rensink","Description","rensink_Description-as","rensink_Description-b","rensink_Description-bs",154.696,-1,11,10790,641,157,"1",10.79,1.03302144468291,0,1.03302144468291
"A33AZCOKCCTUXV",NA,NA,"rensink","SummerLake","rensink_SummerLake-as","rensink_SummerLake-b","rensink_SummerLake-bs",165.176,-1,12,9932,535,315,"1",9.932,0.997036710882527,0,0.997036710882527
"A33AZCOKCCTUXV",NA,NA,"rensink","Lake","rensink_Lake-as","rensink_Lake-b","rensink_Lake-bs",173.28,-1,13,7491,448,346,"1",7.491,0.87453979707101,0,0.87453979707101
"A33AZCOKCCTUXV",NA,NA,"rensink","Fishing","rensink_Fishing-as","rensink_Fishing-b","rensink_Fishing-bs",181.28,-1,14,6868,221,335,"1",6.868,0.836830286488879,0,0.836830286488879
"A33AZCOKCCTUXV",NA,NA,"rensink","BarnTrack","rensink_BarnTrack-as","rensink_BarnTrack-b","rensink_BarnTrack-bs",192.87,-1,15,10700,181,474,"1",10.7,1.02938377768521,0,1.02938377768521
"A33AZCOKCCTUXV",NA,NA,"rensink","Castle","rensink_Castle-as","rensink_Castle-b","rensink_Castle-bs",202.618,-1,16,8925,381,394,"1",8.925,0.950608224784231,0,0.950608224784231
"A33AZCOKCCTUXV",NA,NA,"rensink","Obelisk","rensink_Obelisk-as","rensink_Obelisk-b","rensink_Obelisk-bs",212.674,-1,17,9009,611,257,"1",9.009,0.954676586918644,0,0.954676586918644
"A33AZCOKCCTUXV",NA,NA,"rensink","Kids","rensink_Kids-as","rensink_Kids-b","rensink_Kids-bs",222.767,-1,18,8441,103,306,"1",8.441,0.926393900269682,0,0.926393900269682
"A33AZCOKCCTUXV",NA,NA,"rensink","Farmer","rensink_Farmer-as","rensink_Farmer-b","rensink_Farmer-bs",231.049,-1,19,6619,277,172,"1",6.619,0.820792381088204,0,0.820792381088204
"A33AZCOKCCTUXV",NA,NA,"rensink","Turtle","rensink_Turtle-as","rensink_Turtle-b","rensink_Turtle-bs",238.427,-1,20,6602,230,22,"1",6.602,0.819675519994293,0,0.819675519994293
"A33AZCOKCCTUXV",NA,NA,"rensink","Boat","rensink_Boat-as","rensink_Boat-b","rensink_Boat-bs",246.003,-1,21,6631,180,283,"1",6.631,0.821579027912009,0,0.821579027912009
"A33AZCOKCCTUXV",NA,NA,"rensink","Dinner","rensink_Dinner-as","rensink_Dinner-b","rensink_Dinner-bs",261.277,-1,23,6490,306,258,"1",6.49,0.812244696800369,0,0.812244696800369
"A33AZCOKCCTUXV",NA,NA,"rensink","FarmByPond","rensink_FarmByPond-as","rensink_FarmByPond-b","rensink_FarmByPond-bs",270.899,-1,24,8446,279,459,"1",8.446,0.926651077088889,0,0.926651077088889
"A33AZCOKCCTUXV",NA,NA,"rensink","Nurses","rensink_Nurses-as","rensink_Nurses-b","rensink_Nurses-bs",278.419,-1,25,6560,557,43,"1",6.56,0.81690383937566,0,0.81690383937566
"A33AZCOKCCTUXV",NA,NA,"rensink","Amish","rensink_Amish-as","rensink_Amish-b","rensink_Amish-bs",286.017,-1,26,6593,256,219,"1",6.593,0.819083075743703,0,0.819083075743703
"A33AZCOKCCTUXV",NA,NA,"rensink","CanalBridge","rensink_CanalBridge-as","rensink_CanalBridge-b","rensink_CanalBridge-bs",293.459,-1,27,6706,613,387,"1",6.706,0.826463549092801,0,0.826463549092801
"A33AZCOKCCTUXV",NA,NA,"rensink","Mosque","rensink_Mosque-as","rensink_Mosque-b","rensink_Mosque-bs",305.055,-1,28,11568,351,205,"1",11.568,1.06325827995046,0,1.06325827995046
"A33AZCOKCCTUXV",NA,NA,"rensink","Barns","rensink_Barns-as","rensink_Barns-b","rensink_Barns-bs",317.135,-1,29,11220,168,373,"1",11.22,1.04999285692014,0,1.04999285692014
"A33AZCOKCCTUXV",NA,NA,"rensink","Pilots","rensink_Pilots-as","rensink_Pilots-b","rensink_Pilots-bs",325.009,-1,30,6820,648,203,"1",6.82,0.833784374656479,0,0.833784374656479
"A33AZCOKCCTUXV",NA,NA,"rensink","Window","rensink_Window-as","rensink_Window-b","rensink_Window-bs",332.535,-1,31,6747,16,422,"1",6.747,0.829110710155295,0,0.829110710155295
"A33AZCOKCCTUXV",NA,NA,"rensink","Kayaker","rensink_Kayaker-as","rensink_Kayaker-b","rensink_Kayaker-bs",340.621,-1,32,6620,419,155,"1",6.62,0.8208579894397,0,0.8208579894397
"A3C1L496HD22M7",NA,NA,"rensink","Water","rensink_Water-as","rensink_Water-b","rensink_Water-bs",87.467,-1,3,6667,424,416,"1",6.667,0.823930455125564,0,0.823930455125564
"A3C1L496HD22M7",NA,NA,"rensink","Amish","rensink_Amish-as","rensink_Amish-b","rensink_Amish-bs",94.303,-1,4,4874,234,223,"1",4.874,0.687885524848705,0,0.687885524848705
"A3C1L496HD22M7",NA,NA,"rensink","Fountain","rensink_Fountain-as","rensink_Fountain-b","rensink_Fountain-bs",100.972,-1,5,4998,451,134,"1",4.998,0.698796251790431,0,0.698796251790431
"A3C1L496HD22M7",NA,NA,"rensink","Wine","rensink_Wine-as","rensink_Wine-b","rensink_Wine-bs",107.119,-1,6,4869,473,278,"1",4.869,0.687439774545894,0,0.687439774545894
"A3C1L496HD22M7",NA,NA,"rensink","Market","rensink_Market-as","rensink_Market-b","rensink_Market-bs",115.24,-1,7,6730,55,348,"1",6.73,0.828015064223977,0,0.828015064223977
"A3C1L496HD22M7",NA,NA,"rensink","Castle","rensink_Castle-as","rensink_Castle-b","rensink_Castle-bs",121.323,-1,8,4760,392,398,"1",4.76,0.677606952720493,0,0.677606952720493
"A3C1L496HD22M7",NA,NA,"rensink","Beach","rensink_Beach-as","rensink_Beach-b","rensink_Beach-bs",127.422,-1,9,4862,544,384,"1",4.862,0.686814954507317,0,0.686814954507317
"A3C1L496HD22M7",NA,NA,"rensink","Station","rensink_Station-as","rensink_Station-b","rensink_Station-bs",133.744,-1,10,4866,590,224,"1",4.866,0.6871721045948,0,0.6871721045948
"A3C1L496HD22M7",NA,NA,"rensink","Bus","rensink_Bus-as","rensink_Bus-b","rensink_Bus-bs",139.808,-1,11,4680,407,118,"1",4.68,0.670245853074124,0,0.670245853074124
"A3C1L496HD22M7",NA,NA,"rensink","Army","rensink_Army-as","rensink_Army-b","rensink_Army-bs",146.906,-1,12,5786,604,218,"1",5.786,0.762378429311964,0,0.762378429311964
"A3C1L496HD22M7",NA,NA,"rensink","Eating","rensink_Eating-as","rensink_Eating-b","rensink_Eating-bs",152.924,-1,13,4768,327,244,"1",4.768,0.67833624673218,0,0.67833624673218
"A3C1L496HD22M7",NA,NA,"rensink","SummerLake","rensink_SummerLake-as","rensink_SummerLake-b","rensink_SummerLake-bs",159.505,-1,14,5118,555,314,"1",5.118,0.709100281551167,0,0.709100281551167
"A3C1L496HD22M7",NA,NA,"rensink","Cockpit","rensink_Cockpit-as","rensink_Cockpit-b","rensink_Cockpit-bs",165.513,-1,15,4696,372,166,"1",4.696,0.671728088239558,0,0.671728088239558
"A3C1L496HD22M7",NA,NA,"rensink","CanalBridge","rensink_CanalBridge-as","rensink_CanalBridge-b","rensink_CanalBridge-bs",171.425,-1,16,4762,554,386,"1",4.762,0.677789391068861,0,0.677789391068861
"A3C1L496HD22M7",NA,NA,"rensink","Cactus","rensink_Cactus-as","rensink_Cactus-b","rensink_Cactus-bs",177.492,-1,17,4834,100,234,"1",4.834,0.684306646071631,0,0.684306646071631
"A3C1L496HD22M7",NA,NA,"rensink","Description","rensink_Description-as","rensink_Description-b","rensink_Description-bs",183.433,-1,18,4662,643,92,"1",4.662,0.668572269184558,0,0.668572269184558
"A3C1L496HD22M7",NA,NA,"rensink","Horizon","rensink_Horizon-as","rensink_Horizon-b","rensink_Horizon-bs",189.622,-1,19,4758,326,61,"1",4.758,0.677424437701247,0,0.677424437701247
"A3C1L496HD22M7",NA,NA,"rensink","BarnTrack","rensink_BarnTrack-as","rensink_BarnTrack-b","rensink_BarnTrack-bs",195.72,-1,20,4955,172,492,"1",4.955,0.695043658821294,0,0.695043658821294
"A3C1L496HD22M7",NA,NA,"rensink","Barns","rensink_Barns-as","rensink_Barns-b","rensink_Barns-bs",201.996,-1,21,4872,178,387,"1",4.872,0.687707279624819,0,0.687707279624819
"A3C1L496HD22M7",NA,NA,"rensink","Soldiers","rensink_Soldiers-as","rensink_Soldiers-b","rensink_Soldiers-bs",208.172,-1,22,4719,155,188,"1",4.719,0.673849977342949,0,0.673849977342949
"A3C1L496HD22M7",NA,NA,"rensink","Fishing","rensink_Fishing-as","rensink_Fishing-b","rensink_Fishing-bs",214.067,-1,23,4667,172,313,"1",4.667,0.669037800885156,0,0.669037800885156
"A3C1L496HD22M7",NA,NA,"rensink","Camel","rensink_Camel-as","rensink_Camel-b","rensink_Camel-bs",220.092,-1,24,4701,673,233,"1",4.701,0.672190251188252,0,0.672190251188252
"A3C1L496HD22M7",NA,NA,"rensink","Marling","rensink_Marling-as","rensink_Marling-b","rensink_Marling-bs",226.571,-1,25,5661,257,432,"1",5.661,0.752893154884594,0,0.752893154884594
"A3C1L496HD22M7",NA,NA,"rensink","Harbor","rensink_Harbor-as","rensink_Harbor-b","rensink_Harbor-bs",233.039,-1,26,5192,422,323,"1",5.192,0.715334683792313,0,0.715334683792313
"A3C1L496HD22M7",NA,NA,"rensink","Birds","rensink_Birds-as","rensink_Birds-b","rensink_Birds-bs",239.845,-1,27,4956,262,10,"1",4.956,0.695131297704026,0,0.695131297704026
"A3C1L496HD22M7",NA,NA,"rensink","Farmer","rensink_Farmer-as","rensink_Farmer-b","rensink_Farmer-bs",247.856,-1,28,6790,277,178,"1",6.79,0.831869774280502,0,0.831869774280502
"A3C1L496HD22M7",NA,NA,"rensink","Window","rensink_Window-as","rensink_Window-b","rensink_Window-bs",253.866,-1,29,4839,35,408,"1",4.839,0.684755622108624,0,0.684755622108624
"A3C1L496HD22M7",NA,NA,"rensink","Kayaker","rensink_Kayaker-as","rensink_Kayaker-b","rensink_Kayaker-bs",260.552,-1,30,4891,418,137,"1",4.891,0.689397662821282,0,0.689397662821282
"A3C1L496HD22M7",NA,NA,"rensink","Mosque","rensink_Mosque-as","rensink_Mosque-b","rensink_Mosque-bs",266.746,-1,31,4772,355,197,"1",4.772,0.678700434998304,0,0.678700434998304
"A3C1L496HD22M7",NA,NA,"rensink","Ice","rensink_Ice-as","rensink_Ice-b","rensink_Ice-bs",273.037,-1,32,4852,74,242,"1",4.852,0.685920792194535,0,0.685920792194535
"A3G6L97AX9KR7F",NA,NA,"rensink","Diver","rensink_Diver-as","rensink_Diver-b","rensink_Diver-bs",75.355,-1,3,7501,163,359,"1",7.501,0.875119165462568,0,0.875119165462568
"A3G6L97AX9KR7F",NA,NA,"rensink","NotreDame","rensink_NotreDame-as","rensink_NotreDame-b","rensink_NotreDame-bs",109.504,-1,5,9370,290,160,"1",9.37,0.971739590887778,0,0.971739590887778
"A3G6L97AX9KR7F",NA,NA,"rensink","Nurses","rensink_Nurses-as","rensink_Nurses-b","rensink_Nurses-bs",116.85,-1,6,6975,632,122,"1",6.975,0.843544211945635,0,0.843544211945635
"A3G6L97AX9KR7F",NA,NA,"rensink","Farmer","rensink_Farmer-as","rensink_Farmer-b","rensink_Farmer-bs",124.359,-1,7,7089,279,185,"1",7.089,0.850584976352031,0,0.850584976352031
"A3G6L97AX9KR7F",NA,NA,"rensink","Fountain","rensink_Fountain-as","rensink_Fountain-b","rensink_Fountain-bs",131.648,-1,8,6986,443,133,"1",6.986,0.844228581301628,0,0.844228581301628
"A3G6L97AX9KR7F",NA,NA,"rensink","Birds","rensink_Birds-as","rensink_Birds-b","rensink_Birds-bs",142.627,-1,9,10493,249,29,"1",10.493,1.02089967286254,0,1.02089967286254
"A3G6L97AX9KR7F",NA,NA,"rensink","Turtle","rensink_Turtle-as","rensink_Turtle-b","rensink_Turtle-bs",150.139,-1,10,7002,213,48,"1",7.002,0.845222106429014,0,0.845222106429014
"A3G6L97AX9KR7F",NA,NA,"rensink","Amish","rensink_Amish-as","rensink_Amish-b","rensink_Amish-bs",157.881,-1,11,7022,236,220,"1",7.022,0.846460825129332,0,0.846460825129332
"A3G6L97AX9KR7F",NA,NA,"rensink","Barrels","rensink_Barrels-as","rensink_Barrels-b","rensink_Barrels-bs",165.339,-1,12,7098,653,479,"1",7.098,0.851135995011574,0,0.851135995011574
"A3G6L97AX9KR7F",NA,NA,"rensink","Army","rensink_Army-as","rensink_Army-b","rensink_Army-bs",172.9,-1,13,6864,627,213,"1",6.864,0.836577274840649,0,0.836577274840649
"A3G6L97AX9KR7F",NA,NA,"rensink","OtherDiver","rensink_OtherDiver-as","rensink_OtherDiver-b","rensink_OtherDiver-bs",186.843,-1,14,13545,608,301,"1",13.545,1.13177900936919,0,1.13177900936919
"A3G6L97AX9KR7F",NA,NA,"rensink","Market","rensink_Market-as","rensink_Market-b","rensink_Market-bs",195.991,-1,15,8750,54,318,"1",8.75,0.942008053022313,0,0.942008053022313
"A3G6L97AX9KR7F",NA,NA,"rensink","Cactus","rensink_Cactus-as","rensink_Cactus-b","rensink_Cactus-bs",203.459,-1,16,6990,120,239,"1",6.99,0.844477175745681,0,0.844477175745681
"A3G6L97AX9KR7F",NA,NA,"rensink","Chopper","rensink_Chopper-as","rensink_Chopper-b","rensink_Chopper-bs",214.868,-1,17,10892,179,449,"1",10.892,1.03710763266793,0,1.03710763266793
"A3G6L97AX9KR7F",NA,NA,"rensink","Eating","rensink_Eating-as","rensink_Eating-b","rensink_Eating-bs",225.768,-1,18,10490,65,175,"1",10.49,1.02077548819356,0,1.02077548819356
"A3G6L97AX9KR7F",NA,NA,"rensink","Barns","rensink_Barns-as","rensink_Barns-b","rensink_Barns-bs",236.813,-1,19,10572,197,357,"1",10.572,1.02415715445967,0,1.02415715445967
"A3G6L97AX9KR7F",NA,NA,"rensink","Kids","rensink_Kids-as","rensink_Kids-b","rensink_Kids-bs",244.335,-1,20,6856,98,307,"1",6.856,0.836070808915142,0,0.836070808915142
"A3G6L97AX9KR7F",NA,NA,"rensink","Beach","rensink_Beach-as","rensink_Beach-b","rensink_Beach-bs",251.571,-1,21,6724,513,403,"1",6.724,0.827627704767433,0,0.827627704767433
"A3G6L97AX9KR7F",NA,NA,"rensink","Fishing","rensink_Fishing-as","rensink_Fishing-b","rensink_Fishing-bs",260.824,-1,22,8815,169,332,"1",8.815,0.945222316635341,0,0.945222316635341
"A3G6L97AX9KR7F",NA,NA,"rensink","Cockpit","rensink_Cockpit-as","rensink_Cockpit-b","rensink_Cockpit-bs",268.348,-1,23,7168,413,121,"1",7.168,0.855397996654069,0,0.855397996654069
"A3G6L97AX9KR7F",NA,NA,"rensink","Marling","rensink_Marling-as","rensink_Marling-b","rensink_Marling-bs",277.464,-1,24,8538,265,459,"1",8.538,0.931356150467928,0,0.931356150467928
"A3G6L97AX9KR7F",NA,NA,"rensink","CanalBridge","rensink_CanalBridge-as","rensink_CanalBridge-b","rensink_CanalBridge-bs",288.836,-1,25,10836,558,362,"1",10.836,1.03486899636113,0,1.03486899636113
"A3G6L97AX9KR7F",NA,NA,"rensink","Dinner","rensink_Dinner-as","rensink_Dinner-b","rensink_Dinner-bs",296.176,-1,26,7018,313,262,"1",7.018,0.846213363879387,0,0.846213363879387
"A3G6L97AX9KR7F",NA,NA,"rensink","Station","rensink_Station-as","rensink_Station-b","rensink_Station-bs",306.216,-1,27,9671,590,224,"1",9.671,0.985471383289588,0,0.985471383289588
"A3G6L97AX9KR7F",NA,NA,"rensink","SummerLake","rensink_SummerLake-as","rensink_SummerLake-b","rensink_SummerLake-bs",315.46,-1,28,8756,537,311,"1",8.756,0.942305752895894,0,0.942305752895894
"A3G6L97AX9KR7F",NA,NA,"rensink","Ice","rensink_Ice-as","rensink_Ice-b","rensink_Ice-bs",327.204,-1,29,10865,94,239,"1",10.865,1.03602973065654,0,1.03602973065654
"A3G6L97AX9KR7F",NA,NA,"rensink","Soldiers","rensink_Soldiers-as","rensink_Soldiers-b","rensink_Soldiers-bs",339.264,-1,30,10870,161,208,"1",10.87,1.03622954408629,0,1.03622954408629
"A3G6L97AX9KR7F",NA,NA,"rensink","Boat","rensink_Boat-as","rensink_Boat-b","rensink_Boat-bs",348.628,-1,31,8858,282,281,"1",8.858,0.94733567594874,0,0.94733567594874
"A3G6L97AX9KR7F",NA,NA,"rensink","Water","rensink_Water-as","rensink_Water-b","rensink_Water-bs",357.871,-1,32,8842,439,422,"1",8.842,0.946550510569855,0,0.946550510569855
"A3GUUW46FNRMS3",NA,NA,"rensink","Wine","rensink_Wine-as","rensink_Wine-b","rensink_Wine-bs",102.725,-1,4,11791,579,330,"1",11.791,1.07155063936693,0,1.07155063936693
"A3GUUW46FNRMS3",NA,NA,"rensink","Fishing","rensink_Fishing-as","rensink_Fishing-b","rensink_Fishing-bs",114.245,-1,5,10655,222,343,"1",10.655,1.02755345405022,0,1.02755345405022
"A3GUUW46FNRMS3",NA,NA,"rensink","Pilots","rensink_Pilots-as","rensink_Pilots-b","rensink_Pilots-bs",140.573,-1,6,25431,665,242,"1",25.431,1.40536343787697,0,1.40536343787697
"A3GUUW46FNRMS3",NA,NA,"rensink","BarnTrack","rensink_BarnTrack-as","rensink_BarnTrack-b","rensink_BarnTrack-bs",162.285,-1,7,21159,278,479,"1",21.159,1.32549513856426,0,1.32549513856426
"A3GUUW46FNRMS3",NA,NA,"rensink","NotreDame","rensink_NotreDame-as","rensink_NotreDame-b","rensink_NotreDame-bs",171.492,-1,8,8487,336,198,"1",8.487,0.928754202176653,0,0.928754202176653
