"workerId","assignmentId","hitId","database","image","unmod_image_splash","mod_image","mod_image_splash","expTimer","response","trial_number","rt","x","y","click_acc","rt_s","log_rt","outliers","removed_RT"
"A03172343NB8PHOPICC1",NA,NA,"wolfe","image-134","wolfe_image-134-as","wolfe_image-134-b","wolfe_image-134-bs",82.792,-1,3,6699,557,342,"1",6.699,0.8260099777911,0,0.8260099777911
"A03172343NB8PHOPICC1",NA,NA,"wolfe","image-088","wolfe_image-088-as","wolfe_image-088-b","wolfe_image-088-bs",112.685,-1,7,7575,448,369,"1",7.575,0.879382637174343,0,0.879382637174343
"A03172343NB8PHOPICC1",NA,NA,"wolfe","image-030","wolfe_image-030-as","wolfe_image-030-b","wolfe_image-030-bs",120.531,-1,8,7296,446,253,"1",7.296,0.86308482532036,0,0.86308482532036
"A03172343NB8PHOPICC1",NA,NA,"wolfe","image-037","wolfe_image-037-as","wolfe_image-037-b","wolfe_image-037-bs",135.87,-1,10,7433,214,362,"1",7.433,0.871164132802949,0,0.871164132802949
"A03172343NB8PHOPICC1",NA,NA,"wolfe","image-109","wolfe_image-109-as","wolfe_image-109-b","wolfe_image-109-bs",143.722,-1,11,6898,170,269,"1",6.898,0.838723190031372,0,0.838723190031372
"A03172343NB8PHOPICC1",NA,NA,"wolfe","image-118","wolfe_image-118-as","wolfe_image-118-b","wolfe_image-118-bs",160.99,-1,13,7963,616,310,"1",7.963,0.901076715726255,0,0.901076715726255
"A03172343NB8PHOPICC1",NA,NA,"wolfe","image-120","wolfe_image-120-as","wolfe_image-120-b","wolfe_image-120-bs",168.64,-1,14,6812,535,350,"1",6.812,0.833274639290563,0,0.833274639290563
"A03172343NB8PHOPICC1",NA,NA,"wolfe","image-125","wolfe_image-125-as","wolfe_image-125-b","wolfe_image-125-bs",176.761,-1,15,7090,109,376,"1",7.09,0.850646235183066,0,0.850646235183066
"A03172343NB8PHOPICC1",NA,NA,"wolfe","image-080","wolfe_image-080-as","wolfe_image-080-b","wolfe_image-080-bs",185.146,-1,16,7560,28,185,"1",7.56,0.878521795501206,0,0.878521795501206
"A03172343NB8PHOPICC1",NA,NA,"wolfe","image-115","wolfe_image-115-as","wolfe_image-115-b","wolfe_image-115-bs",192.869,-1,17,6629,135,332,"1",6.629,0.82144801901753,0,0.82144801901753
"A03172343NB8PHOPICC1",NA,NA,"wolfe","image-105","wolfe_image-105-as","wolfe_image-105-b","wolfe_image-105-bs",200.796,-1,18,7069,468,223,"1",7.069,0.849357981661299,0,0.849357981661299
"A03172343NB8PHOPICC1",NA,NA,"wolfe","image-039","wolfe_image-039-as","wolfe_image-039-b","wolfe_image-039-bs",241.75,-1,22,7053,563,189,"1",7.053,0.848373883844602,0,0.848373883844602
"A03172343NB8PHOPICC1",NA,NA,"wolfe","image-015","wolfe_image-015-as","wolfe_image-015-b","wolfe_image-015-bs",249.458,-1,23,6837,151,281,"1",6.837,0.834865579900038,0,0.834865579900038
"A03172343NB8PHOPICC1",NA,NA,"wolfe","image-006","wolfe_image-006-as","wolfe_image-006-b","wolfe_image-006-bs",278.162,-1,25,7283,611,149,"1",7.283,0.86231030995427,0,0.86231030995427
"A03172343NB8PHOPICC1",NA,NA,"wolfe","image-042","wolfe_image-042-as","wolfe_image-042-b","wolfe_image-042-bs",286.372,-1,26,7399,209,83,"1",7.399,0.869173027321683,0,0.869173027321683
"A03172343NB8PHOPICC1",NA,NA,"wolfe","image-100","wolfe_image-100-as","wolfe_image-100-b","wolfe_image-100-bs",294.34,-1,27,7643,611,323,"1",7.643,0.883263859584974,0,0.883263859584974
"A03172343NB8PHOPICC1",NA,NA,"wolfe","image-124","wolfe_image-124-as","wolfe_image-124-b","wolfe_image-124-bs",302.508,-1,28,7772,588,170,"1",7.772,0.890532791927745,0,0.890532791927745
"A03172343NB8PHOPICC1",NA,NA,"wolfe","image-025","wolfe_image-025-as","wolfe_image-025-b","wolfe_image-025-bs",310.496,-1,29,6882,463,168,"1",6.882,0.837714668284911,0,0.837714668284911
"A03172343NB8PHOPICC1",NA,NA,"wolfe","image-011","wolfe_image-011-as","wolfe_image-011-b","wolfe_image-011-bs",318.41,-1,30,6877,439,250,"1",6.877,0.837399024342023,0,0.837399024342023
"A03172343NB8PHOPICC1",NA,NA,"wolfe","image-096","wolfe_image-096-as","wolfe_image-096-b","wolfe_image-096-bs",326.202,-1,31,7361,309,372,"1",7.361,0.866936817731639,0,0.866936817731639
"A10AVWALIHR4UQ",NA,NA,"wolfe","image-088","wolfe_image-088-as","wolfe_image-088-b","wolfe_image-088-bs",126.615,-1,4,6537,448,362,"1",6.537,0.815378484965918,0,0.815378484965918
"A10AVWALIHR4UQ",NA,NA,"wolfe","image-019","wolfe_image-019-as","wolfe_image-019-b","wolfe_image-019-bs",141.191,-1,6,4780,55,162,"1",4.78,0.679427896612119,0,0.679427896612119
"A10AVWALIHR4UQ",NA,NA,"wolfe","image-124","wolfe_image-124-as","wolfe_image-124-b","wolfe_image-124-bs",151.893,-1,7,8577,588,189,"1",8.577,0.933335410077651,0,0.933335410077651
"A10AVWALIHR4UQ",NA,NA,"wolfe","image-049","wolfe_image-049-as","wolfe_image-049-b","wolfe_image-049-bs",158.269,-1,8,4836,116,65,"1",4.836,0.684486292188734,0,0.684486292188734
"A10AVWALIHR4UQ",NA,NA,"wolfe","image-096","wolfe_image-096-as","wolfe_image-096-b","wolfe_image-096-bs",167.171,-1,9,6430,323,365,"1",6.43,0.808210972924222,0,0.808210972924222
"A10AVWALIHR4UQ",NA,NA,"wolfe","image-021","wolfe_image-021-as","wolfe_image-021-b","wolfe_image-021-bs",178.209,-1,10,8765,372,299,"1",8.765,0.942751920429814,0,0.942751920429814
"A10AVWALIHR4UQ",NA,NA,"wolfe","image-133","wolfe_image-133-as","wolfe_image-133-b","wolfe_image-133-bs",186.225,-1,11,6388,471,171,"1",6.388,0.805364907466445,0,0.805364907466445
"A10AVWALIHR4UQ",NA,NA,"wolfe","image-078","wolfe_image-078-as","wolfe_image-078-b","wolfe_image-078-bs",192.263,-1,12,4733,376,169,"1",4.733,0.675136504467994,0,0.675136504467994
"A10AVWALIHR4UQ",NA,NA,"wolfe","image-030","wolfe_image-030-as","wolfe_image-030-b","wolfe_image-030-bs",198.741,-1,13,4735,441,268,"1",4.735,0.675319983339292,0,0.675319983339292
"A10AVWALIHR4UQ",NA,NA,"wolfe","image-018","wolfe_image-018-as","wolfe_image-018-b","wolfe_image-018-bs",205.079,-1,14,4730,497,262,"1",4.73,0.674861140737812,0,0.674861140737812
"A10AVWALIHR4UQ",NA,NA,"wolfe","image-017","wolfe_image-017-as","wolfe_image-017-b","wolfe_image-017-bs",211.887,-1,15,4817,138,319,"1",4.817,0.682776646314434,0,0.682776646314434
"A10AVWALIHR4UQ",NA,NA,"wolfe","image-046","wolfe_image-046-as","wolfe_image-046-b","wolfe_image-046-bs",219.979,-1,16,6385,66,489,"1",6.385,0.805160901599434,0,0.805160901599434
"A10AVWALIHR4UQ",NA,NA,"wolfe","image-110","wolfe_image-110-as","wolfe_image-110-b","wolfe_image-110-bs",227.089,-1,17,5293,559,237,"1",5.293,0.723701893991268,0,0.723701893991268
"A10AVWALIHR4UQ",NA,NA,"wolfe","image-005","wolfe_image-005-as","wolfe_image-005-b","wolfe_image-005-bs",234.073,-1,18,4785,294,273,"1",4.785,0.679881942112862,0,0.679881942112862
"A10AVWALIHR4UQ",NA,NA,"wolfe","image-033","wolfe_image-033-as","wolfe_image-033-b","wolfe_image-033-bs",240.217,-1,19,4857,16,78,"1",4.857,0.686368103473036,0,0.686368103473036
"A10AVWALIHR4UQ",NA,NA,"wolfe","image-109","wolfe_image-109-as","wolfe_image-109-b","wolfe_image-109-bs",246.869,-1,20,4785,173,250,"1",4.785,0.679881942112862,0,0.679881942112862
"A10AVWALIHR4UQ",NA,NA,"wolfe","image-115","wolfe_image-115-as","wolfe_image-115-b","wolfe_image-115-bs",253.111,-1,21,4764,130,333,"1",4.764,0.67797175281074,0,0.67797175281074
"A10AVWALIHR4UQ",NA,NA,"wolfe","image-086","wolfe_image-086-as","wolfe_image-086-b","wolfe_image-086-bs",264.105,-1,22,8783,451,78,"1",8.783,0.943642882752129,0,0.943642882752129
"A10AVWALIHR4UQ",NA,NA,"wolfe","image-022","wolfe_image-022-as","wolfe_image-022-b","wolfe_image-022-bs",272.675,-1,23,6399,206,277,"1",6.399,0.806112110169091,0,0.806112110169091
"A10AVWALIHR4UQ",NA,NA,"wolfe","image-081","wolfe_image-081-as","wolfe_image-081-b","wolfe_image-081-bs",280.703,-1,24,6455,470,375,"1",6.455,0.809896246602439,0,0.809896246602439
"A10AVWALIHR4UQ",NA,NA,"wolfe","image-011","wolfe_image-011-as","wolfe_image-011-b","wolfe_image-011-bs",286.971,-1,25,4689,451,254,"1",4.689,0.671080232738849,0,0.671080232738849
"A10AVWALIHR4UQ",NA,NA,"wolfe","image-026","wolfe_image-026-as","wolfe_image-026-b","wolfe_image-026-bs",295.054,-1,26,6374,160,303,"1",6.374,0.804412059137714,0,0.804412059137714
"A10AVWALIHR4UQ",NA,NA,"wolfe","image-106","wolfe_image-106-as","wolfe_image-106-b","wolfe_image-106-bs",301.551,-1,27,5004,455,146,"1",5.004,0.699317301021382,0,0.699317301021382
"A10AVWALIHR4UQ",NA,NA,"wolfe","image-121","wolfe_image-121-as","wolfe_image-121-b","wolfe_image-121-bs",312.396,-1,28,6468,240,330,"1",6.468,0.810770011234364,0,0.810770011234364
"A10AVWALIHR4UQ",NA,NA,"wolfe","image-016","wolfe_image-016-as","wolfe_image-016-b","wolfe_image-016-bs",320.101,-1,29,4808,409,321,"1",4.808,0.681964458994683,0,0.681964458994683
"A10AVWALIHR4UQ",NA,NA,"wolfe","image-117","wolfe_image-117-as","wolfe_image-117-b","wolfe_image-117-bs",330.689,-1,30,8777,192,232,"1",8.777,0.943346098356591,0,0.943346098356591
"A10AVWALIHR4UQ",NA,NA,"wolfe","image-083","wolfe_image-083-as","wolfe_image-083-b","wolfe_image-083-bs",337.691,-1,31,4777,224,253,"1",4.777,0.679155241283354,0,0.679155241283354
"A10AVWALIHR4UQ",NA,NA,"wolfe","image-013","wolfe_image-013-as","wolfe_image-013-b","wolfe_image-013-bs",344.465,-1,32,4826,77,52,"1",4.826,0.683587317572767,0,0.683587317572767
"A120URYFNZAZYW",NA,NA,"wolfe","image-114","wolfe_image-114-as","wolfe_image-114-b","wolfe_image-114-bs",81.57,-1,3,6652,636,166,"1",6.652,0.822952240547482,0,0.822952240547482
"A120URYFNZAZYW",NA,NA,"wolfe","image-125","wolfe_image-125-as","wolfe_image-125-b","wolfe_image-125-bs",109.462,-1,5,5603,104,371,"1",5.603,0.748420622467568,0,0.748420622467568
"A120URYFNZAZYW",NA,NA,"wolfe","image-119","wolfe_image-119-as","wolfe_image-119-b","wolfe_image-119-bs",115.016,-1,6,5147,61,362,"1",5.147,0.71155416825017,0,0.71155416825017
"A120URYFNZAZYW",NA,NA,"wolfe","image-111","wolfe_image-111-as","wolfe_image-111-b","wolfe_image-111-bs",120.523,-1,7,4843,245,244,"1",4.843,0.685114469046539,0,0.685114469046539
"A120URYFNZAZYW",NA,NA,"wolfe","image-016","wolfe_image-016-as","wolfe_image-016-b","wolfe_image-016-bs",126.766,-1,8,4771,408,320,"1",4.771,0.678609416558926,0,0.678609416558926
"A120URYFNZAZYW",NA,NA,"wolfe","image-109","wolfe_image-109-as","wolfe_image-109-b","wolfe_image-109-bs",152.654,-1,10,4721,170,255,"1",4.721,0.674034000431255,0,0.674034000431255
"A120URYFNZAZYW",NA,NA,"wolfe","image-050","wolfe_image-050-as","wolfe_image-050-b","wolfe_image-050-bs",158.366,-1,11,4850,163,199,"1",4.85,0.685741738602264,0,0.685741738602264
"A120URYFNZAZYW",NA,NA,"wolfe","image-026","wolfe_image-026-as","wolfe_image-026-b","wolfe_image-026-bs",163.907,-1,12,4701,165,293,"1",4.701,0.672190251188252,0,0.672190251188252
"A120URYFNZAZYW",NA,NA,"wolfe","image-025","wolfe_image-025-as","wolfe_image-025-b","wolfe_image-025-bs",169.219,-1,13,4720,441,160,"1",4.72,0.673941998634088,0,0.673941998634088
"A120URYFNZAZYW",NA,NA,"wolfe","image-110","wolfe_image-110-as","wolfe_image-110-b","wolfe_image-110-bs",176.962,-1,14,6535,553,231,"1",6.535,0.815245591916563,0,0.815245591916563
"A120URYFNZAZYW",NA,NA,"wolfe","image-038","wolfe_image-038-as","wolfe_image-038-b","wolfe_image-038-bs",182.586,-1,15,4827,574,319,"1",4.827,0.683677298818692,0,0.683677298818692
"A120URYFNZAZYW",NA,NA,"wolfe","image-031","wolfe_image-031-as","wolfe_image-031-b","wolfe_image-031-bs",187.976,-1,16,4666,180,262,"1",4.666,0.668944734457734,0,0.668944734457734
"A120URYFNZAZYW",NA,NA,"wolfe","image-133","wolfe_image-133-as","wolfe_image-133-b","wolfe_image-133-bs",193.653,-1,17,4749,473,167,"1",4.749,0.676602169582018,0,0.676602169582018
"A120URYFNZAZYW",NA,NA,"wolfe","image-094","wolfe_image-094-as","wolfe_image-094-b","wolfe_image-094-bs",198.848,-1,18,4659,238,211,"1",4.659,0.668292710448221,0,0.668292710448221
"A120URYFNZAZYW",NA,NA,"wolfe","image-113","wolfe_image-113-as","wolfe_image-113-b","wolfe_image-113-bs",204.372,-1,19,4672,315,302,"1",4.672,0.669502834104343,0,0.669502834104343
"A120URYFNZAZYW",NA,NA,"wolfe","image-086","wolfe_image-086-as","wolfe_image-086-b","wolfe_image-086-bs",212.053,-1,20,6733,449,77,"1",6.733,0.828208614467945,0,0.828208614467945
"A120URYFNZAZYW",NA,NA,"wolfe","image-137","wolfe_image-137-as","wolfe_image-137-b","wolfe_image-137-bs",217.22,-1,21,4692,216,252,"1",4.692,0.671358003443492,0,0.671358003443492
"A120URYFNZAZYW",NA,NA,"wolfe","image-034","wolfe_image-034-as","wolfe_image-034-b","wolfe_image-034-bs",233.639,-1,24,4724,458,349,"1",4.724,0.674309888941477,0,0.674309888941477
"A120URYFNZAZYW",NA,NA,"wolfe","image-041","wolfe_image-041-as","wolfe_image-041-b","wolfe_image-041-bs",238.985,-1,25,4725,70,380,"1",4.725,0.674401812845282,0,0.674401812845282
"A120URYFNZAZYW",NA,NA,"wolfe","image-123","wolfe_image-123-as","wolfe_image-123-b","wolfe_image-123-bs",244.745,-1,26,4860,76,354,"1",4.86,0.686636269262293,0,0.686636269262293
"A120URYFNZAZYW",NA,NA,"wolfe","image-030","wolfe_image-030-as","wolfe_image-030-b","wolfe_image-030-bs",250.318,-1,27,4710,446,253,"1",4.71,0.673020907128896,0,0.673020907128896
"A120URYFNZAZYW",NA,NA,"wolfe","image-003","wolfe_image-003-as","wolfe_image-003-b","wolfe_image-003-bs",255.492,-1,28,4809,70,38,"1",4.809,0.682054777073807,0,0.682054777073807
"A120URYFNZAZYW",NA,NA,"wolfe","image-136","wolfe_image-136-as","wolfe_image-136-b","wolfe_image-136-bs",260.865,-1,29,4843,121,347,"1",4.843,0.685114469046539,0,0.685114469046539
"A120URYFNZAZYW",NA,NA,"wolfe","image-108","wolfe_image-108-as","wolfe_image-108-b","wolfe_image-108-bs",266.279,-1,30,4719,264,178,"1",4.719,0.673849977342949,0,0.673849977342949
"A120URYFNZAZYW",NA,NA,"wolfe","image-088","wolfe_image-088-as","wolfe_image-088-b","wolfe_image-088-bs",271.57,-1,31,4881,450,355,"1",4.881,0.688508807656521,0,0.688508807656521
"A120URYFNZAZYW",NA,NA,"wolfe","image-100","wolfe_image-100-as","wolfe_image-100-b","wolfe_image-100-bs",276.938,-1,32,5056,617,319,"1",5.056,0.703807065274329,0,0.703807065274329
"A125AOX978LDG7",NA,NA,"wolfe","image-131","wolfe_image-131-as","wolfe_image-131-b","wolfe_image-131-bs",91.551,-1,4,6684,365,171,"1",6.684,0.825036441221354,0,0.825036441221354
"A125AOX978LDG7",NA,NA,"wolfe","image-080","wolfe_image-080-as","wolfe_image-080-b","wolfe_image-080-bs",119.797,-1,6,6904,23,194,"1",6.904,0.839100782707153,0,0.839100782707153
"A125AOX978LDG7",NA,NA,"wolfe","image-084","wolfe_image-084-as","wolfe_image-084-b","wolfe_image-084-bs",146.747,-1,8,7150,220,291,"1",7.15,0.854306041801081,0,0.854306041801081
"A125AOX978LDG7",NA,NA,"wolfe","image-029","wolfe_image-029-as","wolfe_image-029-b","wolfe_image-029-bs",156.263,-1,9,7464,301,123,"1",7.464,0.872971630738444,0,0.872971630738444
"A125AOX978LDG7",NA,NA,"wolfe","image-101","wolfe_image-101-as","wolfe_image-101-b","wolfe_image-101-bs",164.868,-1,10,7025,596,345,"1",7.025,0.846646328577118,0,0.846646328577118
"A125AOX978LDG7",NA,NA,"wolfe","image-026","wolfe_image-026-as","wolfe_image-026-b","wolfe_image-026-bs",190.546,-1,13,6891,167,295,"1",6.891,0.838282249914688,0,0.838282249914688
"A125AOX978LDG7",NA,NA,"wolfe","image-025","wolfe_image-025-as","wolfe_image-025-b","wolfe_image-025-bs",199.388,-1,14,7210,425,175,"1",7.21,0.857935264719429,0,0.857935264719429
"A125AOX978LDG7",NA,NA,"wolfe","image-002","wolfe_image-002-as","wolfe_image-002-b","wolfe_image-002-bs",216.85,-1,16,6810,292,220,"1",6.81,0.833147111912785,0,0.833147111912785
"A125AOX978LDG7",NA,NA,"wolfe","image-091","wolfe_image-091-as","wolfe_image-091-b","wolfe_image-091-bs",225.377,-1,17,6914,461,375,"1",6.914,0.839729375206388,0,0.839729375206388
"A125AOX978LDG7",NA,NA,"wolfe","image-019","wolfe_image-019-as","wolfe_image-019-b","wolfe_image-019-bs",234.06,-1,18,6864,53,182,"1",6.864,0.836577274840649,0,0.836577274840649
"A125AOX978LDG7",NA,NA,"wolfe","image-132","wolfe_image-132-as","wolfe_image-132-b","wolfe_image-132-bs",272.395,-1,22,6803,638,286,"1",6.803,0.832700470960567,0,0.832700470960567
"A125AOX978LDG7",NA,NA,"wolfe","image-077","wolfe_image-077-as","wolfe_image-077-b","wolfe_image-077-bs",281.112,-1,23,6894,376,322,"1",6.894,0.838471279071929,0,0.838471279071929
"A125AOX978LDG7",NA,NA,"wolfe","image-135","wolfe_image-135-as","wolfe_image-135-b","wolfe_image-135-bs",289.838,-1,24,6937,420,175,"1",6.937,0.841171694499532,0,0.841171694499532
"A125AOX978LDG7",NA,NA,"wolfe","image-023","wolfe_image-023-as","wolfe_image-023-b","wolfe_image-023-bs",298.093,-1,25,6817,82,388,"1",6.817,0.833593293998456,0,0.833593293998456
"A125AOX978LDG7",NA,NA,"wolfe","image-049","wolfe_image-049-as","wolfe_image-049-b","wolfe_image-049-bs",315.423,-1,27,6891,86,41,"1",6.891,0.838282249914688,0,0.838282249914688
"A125AOX978LDG7",NA,NA,"wolfe","image-040","wolfe_image-040-as","wolfe_image-040-b","wolfe_image-040-bs",323.908,-1,28,6792,114,115,"1",6.792,0.831997677235896,0,0.831997677235896
"A125AOX978LDG7",NA,NA,"wolfe","image-133","wolfe_image-133-as","wolfe_image-133-b","wolfe_image-133-bs",333.099,-1,29,6896,477,152,"1",6.896,0.838597252816656,0,0.838597252816656
"A125AOX978LDG7",NA,NA,"wolfe","image-083","wolfe_image-083-as","wolfe_image-083-b","wolfe_image-083-bs",341.684,-1,30,6792,227,252,"1",6.792,0.831997677235896,0,0.831997677235896
"A125AOX978LDG7",NA,NA,"wolfe","image-034","wolfe_image-034-as","wolfe_image-034-b","wolfe_image-034-bs",350.586,-1,31,6858,446,354,"1",6.858,0.836197480778925,0,0.836197480778925
"A125AOX978LDG7",NA,NA,"wolfe","image-087","wolfe_image-087-as","wolfe_image-087-b","wolfe_image-087-bs",359.518,-1,32,6863,208,275,"1",6.863,0.836513998890671,0,0.836513998890671
"A15SJZQBR8I3B3",NA,NA,"wolfe","image-120","wolfe_image-120-as","wolfe_image-120-b","wolfe_image-120-bs",129.382,-1,3,19892,534,352,"1",19.892,1.29867845056019,0,1.29867845056019
"A15SJZQBR8I3B3",NA,NA,"wolfe","image-099","wolfe_image-099-as","wolfe_image-099-b","wolfe_image-099-bs",149.382,-1,4,19071,578,222,"1",19.071,1.28037346615012,0,1.28037346615012
"A15SJZQBR8I3B3",NA,NA,"wolfe","image-032","wolfe_image-032-as","wolfe_image-032-b","wolfe_image-032-bs",227.983,-1,6,10758,595,476,"1",10.758,1.03173153994583,0,1.03173153994583
"A15SJZQBR8I3B3",NA,NA,"wolfe","image-082","wolfe_image-082-as","wolfe_image-082-b","wolfe_image-082-bs",296.873,-1,8,8980,309,273,"1",8.98,0.953276336667304,0,0.953276336667304
"A15SJZQBR8I3B3",NA,NA,"wolfe","image-092","wolfe_image-092-as","wolfe_image-092-b","wolfe_image-092-bs",313.854,-1,9,14182,74,368,"1",14.182,1.15173748103852,0,1.15173748103852
"A15SJZQBR8I3B3",NA,NA,"wolfe","image-045","wolfe_image-045-as","wolfe_image-045-b","wolfe_image-045-bs",327.888,-1,10,12320,312,404,"1",12.32,1.09061070782841,0,1.09061070782841
"A15SJZQBR8I3B3",NA,NA,"wolfe","image-115","wolfe_image-115-as","wolfe_image-115-b","wolfe_image-115-bs",338.628,-1,11,8640,136,333,"1",8.64,0.936513742478893,0,0.936513742478893
"A15SJZQBR8I3B3",NA,NA,"wolfe","image-019","wolfe_image-019-as","wolfe_image-019-b","wolfe_image-019-bs",349.177,-1,12,8548,61,163,"1",8.548,0.931864513492032,0,0.931864513492032
"A15SJZQBR8I3B3",NA,NA,"wolfe","image-100","wolfe_image-100-as","wolfe_image-100-b","wolfe_image-100-bs",360.094,-1,13,8749,618,309,"1",8.749,0.941958416530814,0,0.941958416530814
"A15SJZQBR8I3B3",NA,NA,"wolfe","image-020","wolfe_image-020-as","wolfe_image-020-b","wolfe_image-020-bs",370.937,-1,14,8757,313,340,"1",8.757,0.942355349707677,0,0.942355349707677
"A15SJZQBR8I3B3",NA,NA,"wolfe","image-113","wolfe_image-113-as","wolfe_image-113-b","wolfe_image-113-bs",381.988,-1,15,8865,315,303,"1",8.865,0.947678739936937,0,0.947678739936937
"A15SJZQBR8I3B3",NA,NA,"wolfe","image-096","wolfe_image-096-as","wolfe_image-096-b","wolfe_image-096-bs",393.334,-1,16,9625,327,376,"1",9.625,0.983400738180538,0,0.983400738180538
"A15SJZQBR8I3B3",NA,NA,"wolfe","image-108","wolfe_image-108-as","wolfe_image-108-b","wolfe_image-108-bs",404.806,-1,17,10254,260,175,"1",10.254,1.01089331310438,0,1.01089331310438
"A15SJZQBR8I3B3",NA,NA,"wolfe","image-021","wolfe_image-021-as","wolfe_image-021-b","wolfe_image-021-bs",415.796,-1,18,8641,372,289,"1",8.641,0.936564005135266,0,0.936564005135266
"A15SJZQBR8I3B3",NA,NA,"wolfe","image-034","wolfe_image-034-as","wolfe_image-034-b","wolfe_image-034-bs",439.485,-1,20,11000,461,351,"1",11,1.04139268515823,0,1.04139268515823
"A15SJZQBR8I3B3",NA,NA,"wolfe","image-081","wolfe_image-081-as","wolfe_image-081-b","wolfe_image-081-bs",459.743,-1,21,18205,473,370,"1",18.205,1.26019068326996,0,1.26019068326996
"A15SJZQBR8I3B3",NA,NA,"wolfe","image-078","wolfe_image-078-as","wolfe_image-078-b","wolfe_image-078-bs",469.635,-1,22,7614,389,162,"1",7.614,0.881612872478348,0,0.881612872478348
"A15SJZQBR8I3B3",NA,NA,"wolfe","image-126","wolfe_image-126-as","wolfe_image-126-b","wolfe_image-126-bs",489.382,-1,23,16136,627,300,"1",16.136,1.20779588520471,0,1.20779588520471
"A15SJZQBR8I3B3",NA,NA,"wolfe","image-101","wolfe_image-101-as","wolfe_image-101-b","wolfe_image-101-bs",498.961,-1,24,7646,594,336,"1",7.646,0.883434293683009,0,0.883434293683009
"A15SJZQBR8I3B3",NA,NA,"wolfe","image-090","wolfe_image-090-as","wolfe_image-090-b","wolfe_image-090-bs",510.116,-1,25,8685,105,348,"1",8.685,0.938769822783117,0,0.938769822783117
"A15SJZQBR8I3B3",NA,NA,"wolfe","image-010","wolfe_image-010-as","wolfe_image-010-b","wolfe_image-010-bs",520.908,-1,26,8657,67,158,"1",8.657,0.93736741751729,0,0.93736741751729
"A15SJZQBR8I3B3",NA,NA,"wolfe","image-030","wolfe_image-030-as","wolfe_image-030-b","wolfe_image-030-bs",531.444,-1,27,8727,445,259,"1",8.727,0.940864975966722,0,0.940864975966722
"A15SJZQBR8I3B3",NA,NA,"wolfe","image-049","wolfe_image-049-as","wolfe_image-049-b","wolfe_image-049-bs",556.311,-1,28,22394,122,64,"1",22.394,1.35013167387254,0,1.35013167387254
"A15SJZQBR8I3B3",NA,NA,"wolfe","image-122","wolfe_image-122-as","wolfe_image-122-b","wolfe_image-122-bs",565.887,-1,29,6972,209,403,"1",6.972,0.843357378437956,0,0.843357378437956
"A15SJZQBR8I3B3",NA,NA,"wolfe","image-016","wolfe_image-016-as","wolfe_image-016-b","wolfe_image-016-bs",578.97,-1,30,9245,410,320,"1",9.245,0.965906915495192,0,0.965906915495192
"A15SJZQBR8I3B3",NA,NA,"wolfe","image-085","wolfe_image-085-as","wolfe_image-085-b","wolfe_image-085-bs",590.32,-1,31,8776,67,189,"1",8.776,0.943296614566655,0,0.943296614566655
"A15SJZQBR8I3B3",NA,NA,"wolfe","image-084","wolfe_image-084-as","wolfe_image-084-b","wolfe_image-084-bs",599.933,-1,32,8533,217,294,"1",8.533,0.931101745632639,0,0.931101745632639
"A15T9HDPHV3X7Q",NA,NA,"wolfe","image-037","wolfe_image-037-as","wolfe_image-037-b","wolfe_image-037-bs",113.509,-1,11,8830,216,355,"1",8.83,0.945960703577569,0,0.945960703577569
"A15T9HDPHV3X7Q",NA,NA,"wolfe","image-120","wolfe_image-120-as","wolfe_image-120-b","wolfe_image-120-bs",129.261,-1,13,6389,509,341,"1",6.389,0.80543288813214,0,0.80543288813214
"A15T9HDPHV3X7Q",NA,NA,"wolfe","image-106","wolfe_image-106-as","wolfe_image-106-b","wolfe_image-106-bs",156.917,-1,16,9775,452,145,"1",9.775,0.990116766067904,0,0.990116766067904
"A15T9HDPHV3X7Q",NA,NA,"wolfe","image-031","wolfe_image-031-as","wolfe_image-031-b","wolfe_image-031-bs",176.628,-1,17,19059,172,262,"1",19.059,1.28010011005492,0,1.28010011005492
"A15T9HDPHV3X7Q",NA,NA,"wolfe","image-032","wolfe_image-032-as","wolfe_image-032-b","wolfe_image-032-bs",186.484,-1,18,8599,579,466,"1",8.599,0.93444794894897,0,0.93444794894897
"A15T9HDPHV3X7Q",NA,NA,"wolfe","image-028","wolfe_image-028-as","wolfe_image-028-b","wolfe_image-028-bs",195.853,-1,19,8565,354,473,"1",8.565,0.932727367301529,0,0.932727367301529
"A15T9HDPHV3X7Q",NA,NA,"wolfe","image-034","wolfe_image-034-as","wolfe_image-034-b","wolfe_image-034-bs",206.892,-1,20,10496,462,350,"1",10.496,1.02102382203159,0,1.02102382203159
"A15T9HDPHV3X7Q",NA,NA,"wolfe","image-041","wolfe_image-041-as","wolfe_image-041-b","wolfe_image-041-bs",218.021,-1,21,10540,81,385,"1",10.54,1.02284061087653,0,1.02284061087653
"A15T9HDPHV3X7Q",NA,NA,"wolfe","image-029","wolfe_image-029-as","wolfe_image-029-b","wolfe_image-029-bs",229.3,-1,22,10555,300,124,"1",10.555,1.02345823764368,0,1.02345823764368
"A15T9HDPHV3X7Q",NA,NA,"wolfe","image-011","wolfe_image-011-as","wolfe_image-011-b","wolfe_image-011-bs",238.484,-1,23,8503,455,258,"1",8.503,0.92957217907655,0,0.92957217907655
"A15T9HDPHV3X7Q",NA,NA,"wolfe","image-044","wolfe_image-044-as","wolfe_image-044-b","wolfe_image-044-bs",249.556,-1,24,10513,106,335,"1",10.513,1.02172666441378,0,1.02172666441378
"A15T9HDPHV3X7Q",NA,NA,"wolfe","image-117","wolfe_image-117-as","wolfe_image-117-b","wolfe_image-117-bs",259.22,-1,25,8984,182,229,"1",8.984,0.953469743253401,0,0.953469743253401
"A15T9HDPHV3X7Q",NA,NA,"wolfe","image-042","wolfe_image-042-as","wolfe_image-042-b","wolfe_image-042-bs",343.78,-1,28,10521,212,88,"1",10.521,1.02205702060116,0,1.02205702060116
"A15T9HDPHV3X7Q",NA,NA,"wolfe","image-130","wolfe_image-130-as","wolfe_image-130-b","wolfe_image-130-bs",353.292,-1,29,8531,620,373,"1",8.531,0.930999941956152,0,0.930999941956152
"A15T9HDPHV3X7Q",NA,NA,"wolfe","image-007","wolfe_image-007-as","wolfe_image-007-b","wolfe_image-007-bs",364.653,-1,30,10863,170,225,"1",10.863,1.03594977953667,0,1.03594977953667
"A15T9HDPHV3X7Q",NA,NA,"wolfe","image-134","wolfe_image-134-as","wolfe_image-134-b","wolfe_image-134-bs",383.677,-1,31,17315,554,328,"1",17.315,1.23842249588548,0,1.23842249588548
"A1BIJGB7XA0GME",NA,NA,"wolfe","image-137","wolfe_image-137-as","wolfe_image-137-b","wolfe_image-137-bs",87.404,-1,4,10325,213,254,"1",10.325,1.01389006032844,0,1.01389006032844
"A1BIJGB7XA0GME",NA,NA,"wolfe","image-024","wolfe_image-024-as","wolfe_image-024-b","wolfe_image-024-bs",127.06,-1,5,37112,354,433,"1",37.112,1.5695143595107,0,1.5695143595107
"A1BIJGB7XA0GME",NA,NA,"wolfe","image-035","wolfe_image-035-as","wolfe_image-035-b","wolfe_image-035-bs",273.591,-1,8,10071,67,182,"1",10.071,1.00307259596767,0,1.00307259596767
"A1BIJGB7XA0GME",NA,NA,"wolfe","image-045","wolfe_image-045-as","wolfe_image-045-b","wolfe_image-045-bs",288.039,-1,9,12574,310,402,"1",12.574,1.09947345601417,0,1.09947345601417
"A1BIJGB7XA0GME",NA,NA,"wolfe","image-006","wolfe_image-006-as","wolfe_image-006-b","wolfe_image-006-bs",318.076,-1,11,9814,605,155,"1",9.814,0.991846053644897,0,0.991846053644897
"A1BIJGB7XA0GME",NA,NA,"wolfe","image-100","wolfe_image-100-as","wolfe_image-100-b","wolfe_image-100-bs",329.64,-1,12,9440,614,304,"1",9.44,0.974971994298069,0,0.974971994298069
"A1BIJGB7XA0GME",NA,NA,"wolfe","image-132","wolfe_image-132-as","wolfe_image-132-b","wolfe_image-132-bs",341.988,-1,13,9461,638,286,"1",9.461,0.975937042483111,0,0.975937042483111
"A1BIJGB7XA0GME",NA,NA,"wolfe","image-001","wolfe_image-001-as","wolfe_image-001-b","wolfe_image-001-bs",354.476,-1,14,9848,139,346,"1",9.848,0.99334803992326,0,0.99334803992326
"A1BIJGB7XA0GME",NA,NA,"wolfe","image-011","wolfe_image-011-as","wolfe_image-011-b","wolfe_image-011-bs",432.633,-1,16,9250,442,250,"1",9.25,0.966141732739033,0,0.966141732739033
"A1BIJGB7XA0GME",NA,NA,"wolfe","image-017","wolfe_image-017-as","wolfe_image-017-b","wolfe_image-017-bs",508.992,-1,18,9317,142,317,"1",9.317,0.969276095488932,0,0.969276095488932
"A1BIJGB7XA0GME",NA,NA,"wolfe","image-135","wolfe_image-135-as","wolfe_image-135-b","wolfe_image-135-bs",531.166,-1,19,19717,422,181,"1",19.717,1.29484083643889,0,1.29484083643889
"A1BIJGB7XA0GME",NA,NA,"wolfe","image-103","wolfe_image-103-as","wolfe_image-103-b","wolfe_image-103-bs",558.036,-1,20,24179,150,329,"1",24.179,1.38343833525666,0,1.38343833525666
"A1BIJGB7XA0GME",NA,NA,"wolfe","image-037","wolfe_image-037-as","wolfe_image-037-b","wolfe_image-037-bs",568.716,-1,21,9276,223,356,"1",9.276,0.96736073996595,0,0.96736073996595
"A1BIJGB7XA0GME",NA,NA,"wolfe","image-039","wolfe_image-039-as","wolfe_image-039-b","wolfe_image-039-bs",635.563,-1,23,9264,554,200,"1",9.264,0.966798546383361,0,0.966798546383361
"A1BIJGB7XA0GME",NA,NA,"wolfe","image-087","wolfe_image-087-as","wolfe_image-087-b","wolfe_image-087-bs",723.356,-1,25,21673,211,270,"1",21.673,1.33591903099071,0,1.33591903099071
"A1BIJGB7XA0GME",NA,NA,"wolfe","image-042","wolfe_image-042-as","wolfe_image-042-b","wolfe_image-042-bs",739.388,-1,26,13419,210,82,"1",13.419,1.12772015289232,0,1.12772015289232
"A1BIJGB7XA0GME",NA,NA,"wolfe","image-080","wolfe_image-080-as","wolfe_image-080-b","wolfe_image-080-bs",831.083,-1,29,26865,18,195,"1",26.865,1.42918684490471,0,1.42918684490471
"A1BIJGB7XA0GME",NA,NA,"wolfe","image-018","wolfe_image-018-as","wolfe_image-018-b","wolfe_image-018-bs",849.121,-1,30,15672,483,251,"1",15.672,1.19512442298668,0,1.19512442298668
"A1BIJGB7XA0GME",NA,NA,"wolfe","image-088","wolfe_image-088-as","wolfe_image-088-b","wolfe_image-088-bs",857.877,-1,31,6870,447,352,"1",6.87,0.83695673705955,0,0.83695673705955
"A1BIJGB7XA0GME",NA,NA,"wolfe","image-119","wolfe_image-119-as","wolfe_image-119-b","wolfe_image-119-bs",869.586,-1,32,8915,62,355,"1",8.915,0.950121347511373,0,0.950121347511373
"A1BWS5AD2T4NIR",NA,NA,"wolfe","image-022","wolfe_image-022-as","wolfe_image-022-b","wolfe_image-022-bs",133.728,-1,4,25552,203,280,"1",25.552,1.40742489879441,0,1.40742489879441
"A1BWS5AD2T4NIR",NA,NA,"wolfe","image-017","wolfe_image-017-as","wolfe_image-017-b","wolfe_image-017-bs",143.712,-1,5,8897,137,318,"1",8.897,0.949243590568265,0,0.949243590568265
"A1BWS5AD2T4NIR",NA,NA,"wolfe","image-125","wolfe_image-125-as","wolfe_image-125-b","wolfe_image-125-bs",193.553,-1,6,48569,103,372,"1",48.569,1.68635916176102,0,1.68635916176102
"A1BWS5AD2T4NIR",NA,NA,"wolfe","image-019","wolfe_image-019-as","wolfe_image-019-b","wolfe_image-019-bs",205.904,-1,7,11007,69,181,"1",11.007,1.04166896647561,0,1.04166896647561
"A1BWS5AD2T4NIR",NA,NA,"wolfe","image-029","wolfe_image-029-as","wolfe_image-029-b","wolfe_image-029-bs",216.754,-1,8,8593,298,123,"1",8.593,0.934144811792477,0,0.934144811792477
"A1BWS5AD2T4NIR",NA,NA,"wolfe","image-113","wolfe_image-113-as","wolfe_image-113-b","wolfe_image-113-bs",275.457,-1,9,56876,313,308,"1",56.876,1.75492904554497,0,1.75492904554497
"A1BWS5AD2T4NIR",NA,NA,"wolfe","image-028","wolfe_image-028-as","wolfe_image-028-b","wolfe_image-028-bs",283.855,-1,10,6590,358,476,"1",6.59,0.81888541459401,0,0.81888541459401
"A1BWS5AD2T4NIR",NA,NA,"wolfe","image-048","wolfe_image-048-as","wolfe_image-048-b","wolfe_image-048-bs",302.471,-1,11,16975,447,49,"1",16.975,1.22980978295254,0,1.22980978295254
"A1BWS5AD2T4NIR",NA,NA,"wolfe","image-083","wolfe_image-083-as","wolfe_image-083-b","wolfe_image-083-bs",335.754,-1,12,31979,231,253,"1",31.979,1.50486487900771,0,1.50486487900771
"A1BWS5AD2T4NIR",NA,NA,"wolfe","image-124","wolfe_image-124-as","wolfe_image-124-b","wolfe_image-124-bs",460.049,-1,14,52973,583,188,"1",52.973,1.72405456886824,0,1.72405456886824
"A1BWS5AD2T4NIR",NA,NA,"wolfe","image-097","wolfe_image-097-as","wolfe_image-097-b","wolfe_image-097-bs",469.876,-1,15,8568,117,365,"1",8.568,0.932879457823799,0,0.932879457823799
"A1BWS5AD2T4NIR",NA,NA,"wolfe","image-038","wolfe_image-038-as","wolfe_image-038-b","wolfe_image-038-bs",480.035,-1,16,8854,568,319,"1",8.854,0.947139517642829,0,0.947139517642829
"A1BWS5AD2T4NIR",NA,NA,"wolfe","image-114","wolfe_image-114-as","wolfe_image-114-b","wolfe_image-114-bs",487.9,-1,17,6931,636,161,"1",6.931,0.840795898847094,0,0.840795898847094
"A1BWS5AD2T4NIR",NA,NA,"wolfe","image-106","wolfe_image-106-as","wolfe_image-106-b","wolfe_image-106-bs",499.879,-1,18,10733,453,146,"1",10.733,1.03072112936046,0,1.03072112936046
"A1BWS5AD2T4NIR",NA,NA,"wolfe","image-008","wolfe_image-008-as","wolfe_image-008-b","wolfe_image-008-bs",509.678,-1,19,8724,542,105,"1",8.724,0.940715656906663,0,0.940715656906663
"A1BWS5AD2T4NIR",NA,NA,"wolfe","image-014","wolfe_image-014-as","wolfe_image-014-b","wolfe_image-014-bs",519.236,-1,20,8742,55,432,"1",8.742,0.941610802153634,0,0.941610802153634
"A1BWS5AD2T4NIR",NA,NA,"wolfe","image-010","wolfe_image-010-as","wolfe_image-010-b","wolfe_image-010-bs",531.389,-1,21,10739,76,163,"1",10.739,1.03096384237828,0,1.03096384237828
"A1BWS5AD2T4NIR",NA,NA,"wolfe","image-042","wolfe_image-042-as","wolfe_image-042-b","wolfe_image-042-bs",566.324,-1,22,34118,208,84,"1",34.118,1.53298356486296,0,1.53298356486296
"A1BWS5AD2T4NIR",NA,NA,"wolfe","image-076","wolfe_image-076-as","wolfe_image-076-b","wolfe_image-076-bs",576.236,-1,23,8519,215,94,"1",8.519,0.930388618244322,0,0.930388618244322
"A1BWS5AD2T4NIR",NA,NA,"wolfe","image-093","wolfe_image-093-as","wolfe_image-093-b","wolfe_image-093-bs",586.241,-1,24,6943,228,218,"1",6.943,0.841547165256553,0,0.841547165256553
"A1BWS5AD2T4NIR",NA,NA,"wolfe","image-033","wolfe_image-033-as","wolfe_image-033-b","wolfe_image-033-bs",596.303,-1,25,9149,42,75,"1",9.149,0.961373627594801,0,0.961373627594801
"A1BWS5AD2T4NIR",NA,NA,"wolfe","image-119","wolfe_image-119-as","wolfe_image-119-b","wolfe_image-119-bs",612.464,-1,27,7022,60,361,"1",7.022,0.846460825129332,0,0.846460825129332
"A1BWS5AD2T4NIR",NA,NA,"wolfe","image-044","wolfe_image-044-as","wolfe_image-044-b","wolfe_image-044-bs",622.048,-1,28,8553,104,337,"1",8.553,0.932118472029122,0,0.932118472029122
"A1BWS5AD2T4NIR",NA,NA,"wolfe","image-041","wolfe_image-041-as","wolfe_image-041-b","wolfe_image-041-bs",631.955,-1,29,8521,78,384,"1",8.521,0.93049056530627,0,0.93049056530627
"A1BWS5AD2T4NIR",NA,NA,"wolfe","image-105","wolfe_image-105-as","wolfe_image-105-b","wolfe_image-105-bs",641.923,-1,30,8884,461,220,"1",8.884,0.948608549876436,0,0.948608549876436
"A1BWS5AD2T4NIR",NA,NA,"wolfe","image-092","wolfe_image-092-as","wolfe_image-092-b","wolfe_image-092-bs",652.185,-1,31,8538,154,347,"1",8.538,0.931356150467928,0,0.931356150467928
"A1CINWYLYY8SGL",NA,NA,"wolfe","image-050","wolfe_image-050-as","wolfe_image-050-b","wolfe_image-050-bs",81.835,-1,4,7840,163,194,"1",7.84,0.894316062684438,0,0.894316062684438
"A1CINWYLYY8SGL",NA,NA,"wolfe","image-079","wolfe_image-079-as","wolfe_image-079-b","wolfe_image-079-bs",92.668,-1,5,9912,162,183,"1",9.912,0.996161293368007,0,0.996161293368007
"A1CINWYLYY8SGL",NA,NA,"wolfe","image-016","wolfe_image-016-as","wolfe_image-016-b","wolfe_image-016-bs",99.731,-1,6,5418,412,321,"1",5.418,0.733839000697149,0,0.733839000697149
"A1CINWYLYY8SGL",NA,NA,"wolfe","image-109","wolfe_image-109-as","wolfe_image-109-b","wolfe_image-109-bs",110.748,-1,7,9121,178,240,"1",9.121,0.960042455726842,0,0.960042455726842
"A1CINWYLYY8SGL",NA,NA,"wolfe","image-046","wolfe_image-046-as","wolfe_image-046-b","wolfe_image-046-bs",123.42,-1,8,10360,63,488,"1",10.36,1.01535975540921,0,1.01535975540921
"A1CINWYLYY8SGL",NA,NA,"wolfe","image-002","wolfe_image-002-as","wolfe_image-002-b","wolfe_image-002-bs",172.116,-1,10,6609,290,228,"1",6.609,0.82013575187043,0,0.82013575187043
"A1CINWYLYY8SGL",NA,NA,"wolfe","image-020","wolfe_image-020-as","wolfe_image-020-b","wolfe_image-020-bs",180.828,-1,11,6721,315,339,"1",6.721,0.827433895400779,0,0.827433895400779
"A1CINWYLYY8SGL",NA,NA,"wolfe","image-121","wolfe_image-121-as","wolfe_image-121-b","wolfe_image-121-bs",196.333,-1,12,13499,266,321,"1",13.499,1.13030159734184,0,1.13030159734184
"A1CINWYLYY8SGL",NA,NA,"wolfe","image-004","wolfe_image-004-as","wolfe_image-004-b","wolfe_image-004-bs",204.093,-1,13,6185,175,419,"1",6.185,0.791339703965139,0,0.791339703965139
"A1CINWYLYY8SGL",NA,NA,"wolfe","image-003","wolfe_image-003-as","wolfe_image-003-b","wolfe_image-003-bs",211.261,-1,14,6122,48,27,"1",6.122,0.786893325261316,0,0.786893325261316
"A1CINWYLYY8SGL",NA,NA,"wolfe","image-089","wolfe_image-089-as","wolfe_image-089-b","wolfe_image-089-bs",225.229,-1,15,12857,366,306,"1",12.857,1.10913964390402,0,1.10913964390402
"A1CINWYLYY8SGL",NA,NA,"wolfe","image-125","wolfe_image-125-as","wolfe_image-125-b","wolfe_image-125-bs",233.533,-1,16,6600,104,372,"1",6.6,0.819543935541869,0,0.819543935541869
"A1CINWYLYY8SGL",NA,NA,"wolfe","image-111","wolfe_image-111-as","wolfe_image-111-b","wolfe_image-111-bs",241.989,-1,17,6730,215,245,"1",6.73,0.828015064223977,0,0.828015064223977
"A1CINWYLYY8SGL",NA,NA,"wolfe","image-083","wolfe_image-083-as","wolfe_image-083-b","wolfe_image-083-bs",249.781,-1,18,6547,234,246,"1",6.547,0.816042340921997,0,0.816042340921997
"A1CINWYLYY8SGL",NA,NA,"wolfe","image-114","wolfe_image-114-as","wolfe_image-114-b","wolfe_image-114-bs",256.446,-1,19,5202,632,164,"1",5.202,0.716170347859854,0,0.716170347859854
"A1CINWYLYY8SGL",NA,NA,"wolfe","image-019","wolfe_image-019-as","wolfe_image-019-b","wolfe_image-019-bs",263.262,-1,20,5018,64,159,"1",5.018,0.700530656978592,0,0.700530656978592
"A1CINWYLYY8SGL",NA,NA,"wolfe","image-030","wolfe_image-030-as","wolfe_image-030-b","wolfe_image-030-bs",271.101,-1,21,6025,443,262,"1",6.025,0.779957051246906,0,0.779957051246906
"A1CINWYLYY8SGL",NA,NA,"wolfe","image-077","wolfe_image-077-as","wolfe_image-077-b","wolfe_image-077-bs",277.893,-1,22,5035,373,323,"1",5.035,0.701999474889637,0,0.701999474889637
"A1CINWYLYY8SGL",NA,NA,"wolfe","image-136","wolfe_image-136-as","wolfe_image-136-b","wolfe_image-136-bs",302.317,-1,24,6537,95,345,"1",6.537,0.815378484965918,0,0.815378484965918
"A1CINWYLYY8SGL",NA,NA,"wolfe","image-110","wolfe_image-110-as","wolfe_image-110-b","wolfe_image-110-bs",312.502,-1,25,9163,621,235,"1",9.163,0.962037686565013,0,0.962037686565013
"A1CINWYLYY8SGL",NA,NA,"wolfe","image-047","wolfe_image-047-as","wolfe_image-047-b","wolfe_image-047-bs",327.293,-1,26,13476,152,326,"1",13.476,1.12956100230908,0,1.12956100230908
"A1CINWYLYY8SGL",NA,NA,"wolfe","image-100","wolfe_image-100-as","wolfe_image-100-b","wolfe_image-100-bs",336.694,-1,27,8603,602,322,"1",8.603,0.934649922900711,0,0.934649922900711
"A1CINWYLYY8SGL",NA,NA,"wolfe","image-034","wolfe_image-034-as","wolfe_image-034-b","wolfe_image-034-bs",342.982,-1,28,5412,459,353,"1",5.412,0.733357787925585,0,0.733357787925585
"A1CINWYLYY8SGL",NA,NA,"wolfe","image-120","wolfe_image-120-as","wolfe_image-120-b","wolfe_image-120-bs",383.615,-1,31,5243,519,354,"1",5.243,0.719579857713723,0,0.719579857713723
"A1CUDX7TTS2W61",NA,NA,"wolfe","image-114","wolfe_image-114-as","wolfe_image-114-b","wolfe_image-114-bs",55.241,-1,4,8044,633,160,"1",8.044,0.905472061924704,0,0.905472061924704
"A1CUDX7TTS2W61",NA,NA,"wolfe","image-045","wolfe_image-045-as","wolfe_image-045-b","wolfe_image-045-bs",69.562,-1,5,13897,312,405,"1",13.897,1.14292105751561,0,1.14292105751561
"A1CUDX7TTS2W61",NA,NA,"wolfe","image-119","wolfe_image-119-as","wolfe_image-119-b","wolfe_image-119-bs",90.084,-1,6,19839,61,358,"1",19.839,1.29751977742364,0,1.29751977742364
"A1CUDX7TTS2W61",NA,NA,"wolfe","image-126","wolfe_image-126-as","wolfe_image-126-b","wolfe_image-126-bs",104.343,-1,7,13108,627,300,"1",13.108,1.11753643271034,0,1.11753643271034
"A1CUDX7TTS2W61",NA,NA,"wolfe","image-001","wolfe_image-001-as","wolfe_image-001-b","wolfe_image-001-bs",116.441,-1,8,11219,143,353,"1",11.219,1.04995414802205,0,1.04995414802205
"A1CUDX7TTS2W61",NA,NA,"wolfe","image-038","wolfe_image-038-as","wolfe_image-038-b","wolfe_image-038-bs",126.295,-1,9,9256,567,319,"1",9.256,0.966423345943693,0,0.966423345943693
"A1CUDX7TTS2W61",NA,NA,"wolfe","image-019","wolfe_image-019-as","wolfe_image-019-b","wolfe_image-019-bs",133.648,-1,10,6813,55,190,"1",6.813,0.833338388939398,0,0.833338388939398
"A1CUDX7TTS2W61",NA,NA,"wolfe","image-128","wolfe_image-128-as","wolfe_image-128-b","wolfe_image-128-bs",141.184,-1,11,6916,459,454,"1",6.916,0.839854984601885,0,0.839854984601885
"A1CUDX7TTS2W61",NA,NA,"wolfe","image-110","wolfe_image-110-as","wolfe_image-110-b","wolfe_image-110-bs",161.164,-1,12,19288,609,232,"1",19.288,1.2852871973694,0,1.2852871973694
"A1CUDX7TTS2W61",NA,NA,"wolfe","image-082","wolfe_image-082-as","wolfe_image-082-b","wolfe_image-082-bs",170.732,-1,13,9253,309,278,"1",9.253,0.966282562167463,0,0.966282562167463
"A1CUDX7TTS2W61",NA,NA,"wolfe","image-034","wolfe_image-034-as","wolfe_image-034-b","wolfe_image-034-bs",180.138,-1,14,8809,461,355,"1",8.809,0.944926609986216,0,0.944926609986216
"A1CUDX7TTS2W61",NA,NA,"wolfe","image-084","wolfe_image-084-as","wolfe_image-084-b","wolfe_image-084-bs",194.999,-1,16,6892,211,292,"1",6.892,0.838345268775991,0,0.838345268775991
"A1CUDX7TTS2W61",NA,NA,"wolfe","image-046","wolfe_image-046-as","wolfe_image-046-b","wolfe_image-046-bs",257.784,-1,18,23179,72,488,"1",23.179,1.36509469548219,0,1.36509469548219
"A1CUDX7TTS2W61",NA,NA,"wolfe","image-029","wolfe_image-029-as","wolfe_image-029-b","wolfe_image-029-bs",280.035,-1,19,21698,297,127,"1",21.698,1.33641970486266,0,1.33641970486266
"A1CUDX7TTS2W61",NA,NA,"wolfe","image-020","wolfe_image-020-as","wolfe_image-020-b","wolfe_image-020-bs",291.406,-1,20,10693,314,335,"1",10.693,1.02909956682354,0,1.02909956682354
"A1CUDX7TTS2W61",NA,NA,"wolfe","image-043","wolfe_image-043-as","wolfe_image-043-b","wolfe_image-043-bs",354.933,-1,22,9068,853,477,"1",9.068,0.95751151145448,0,0.95751151145448
"A1CUDX7TTS2W61",NA,NA,"wolfe","image-103","wolfe_image-103-as","wolfe_image-103-b","wolfe_image-103-bs",364.52,-1,23,9116,148,332,"1",9.116,0.959804316508338,0,0.959804316508338
"A1CUDX7TTS2W61",NA,NA,"wolfe","image-026","wolfe_image-026-as","wolfe_image-026-b","wolfe_image-026-bs",376.222,-1,24,10969,156,296,"1",10.969,1.04016703648285,0,1.04016703648285
"A1CUDX7TTS2W61",NA,NA,"wolfe","image-030","wolfe_image-030-as","wolfe_image-030-b","wolfe_image-030-bs",385.529,-1,25,8798,441,265,"1",8.798,0.944383957640844,0,0.944383957640844
"A1CUDX7TTS2W61",NA,NA,"wolfe","image-120","wolfe_image-120-as","wolfe_image-120-b","wolfe_image-120-bs",392.663,-1,26,6784,538,347,"1",6.784,0.831485839248657,0,0.831485839248657
"A1CUDX7TTS2W61",NA,NA,"wolfe","image-115","wolfe_image-115-as","wolfe_image-115-b","wolfe_image-115-bs",402.112,-1,27,8914,142,333,"1",8.914,0.950072629750157,0,0.950072629750157
"A1CUDX7TTS2W61",NA,NA,"wolfe","image-016","wolfe_image-016-as","wolfe_image-016-b","wolfe_image-016-bs",413.124,-1,28,10666,409,320,"1",10.666,1.02800157934686,0,1.02800157934686
"A1CUDX7TTS2W61",NA,NA,"wolfe","image-076","wolfe_image-076-as","wolfe_image-076-b","wolfe_image-076-bs",424.862,-1,29,11158,216,100,"1",11.158,1.04758635707435,0,1.04758635707435
"A1CUDX7TTS2W61",NA,NA,"wolfe","image-039","wolfe_image-039-as","wolfe_image-039-b","wolfe_image-039-bs",440.42,-1,31,6735,565,200,"1",6.735,0.828337600059004,0,0.828337600059004
"A1CUDX7TTS2W61",NA,NA,"wolfe","image-049","wolfe_image-049-as","wolfe_image-049-b","wolfe_image-049-bs",449.967,-1,32,9110,124,67,"1",9.11,0.959518376972998,0,0.959518376972998
"A1CX684F5TEO5W",NA,NA,"wolfe","image-005","wolfe_image-005-as","wolfe_image-005-b","wolfe_image-005-bs",39.161,-1,3,8594,290,268,"1",8.594,0.934195349347884,0,0.934195349347884
"A1CX684F5TEO5W",NA,NA,"wolfe","image-087","wolfe_image-087-as","wolfe_image-087-b","wolfe_image-087-bs",97.657,-1,5,28389,211,274,"1",28.389,1.45315009481079,0,1.45315009481079
"A1CX684F5TEO5W",NA,NA,"wolfe","image-029","wolfe_image-029-as","wolfe_image-029-b","wolfe_image-029-bs",107.477,-1,6,9259,293,127,"1",9.259,0.96656408409731,0,0.96656408409731
"A1CX684F5TEO5W",NA,NA,"wolfe","image-103","wolfe_image-103-as","wolfe_image-103-b","wolfe_image-103-bs",115.096,-1,7,6850,148,336,"1",6.85,0.835690571492426,0,0.835690571492426
"A1CX684F5TEO5W",NA,NA,"wolfe","image-018","wolfe_image-018-as","wolfe_image-018-b","wolfe_image-018-bs",122.874,-1,8,6699,480,276,"1",6.699,0.8260099777911,0,0.8260099777911
"A1CX684F5TEO5W",NA,NA,"wolfe","image-011","wolfe_image-011-as","wolfe_image-011-b","wolfe_image-011-bs",130.46,-1,9,6638,449,260,"1",6.638,0.822037248072585,0,0.822037248072585
"A1CX684F5TEO5W",NA,NA,"wolfe","image-037","wolfe_image-037-as","wolfe_image-037-b","wolfe_image-037-bs",138.231,-1,10,6640,229,363,"1",6.64,0.822168079368018,0,0.822168079368018
"A1CX684F5TEO5W",NA,NA,"wolfe","image-112","wolfe_image-112-as","wolfe_image-112-b","wolfe_image-112-bs",148.19,-1,11,8862,423,225,"1",8.862,0.947531745695593,0,0.947531745695593
"A1CX684F5TEO5W",NA,NA,"wolfe","image-014","wolfe_image-014-as","wolfe_image-014-b","wolfe_image-014-bs",158.117,-1,12,9460,58,436,"1",9.46,0.975891136401793,0,0.975891136401793
"A1CX684F5TEO5W",NA,NA,"wolfe","image-076","wolfe_image-076-as","wolfe_image-076-b","wolfe_image-076-bs",167.775,-1,13,8864,220,103,"1",8.864,0.947629747384355,0,0.947629747384355
"A1CX684F5TEO5W",NA,NA,"wolfe","image-020","wolfe_image-020-as","wolfe_image-020-b","wolfe_image-020-bs",175.562,-1,14,6673,319,329,"1",6.673,0.824321124850771,0,0.824321124850771
"A1CX684F5TEO5W",NA,NA,"wolfe","image-130","wolfe_image-130-as","wolfe_image-130-b","wolfe_image-130-bs",187.952,-1,15,11410,622,376,"1",11.41,1.05728564441821,0,1.05728564441821
"A1CX684F5TEO5W",NA,NA,"wolfe","image-015","wolfe_image-015-as","wolfe_image-015-b","wolfe_image-015-bs",195.422,-1,16,6932,148,260,"1",6.932,0.840858554041879,0,0.840858554041879
"A1CX684F5TEO5W",NA,NA,"wolfe","image-085","wolfe_image-085-as","wolfe_image-085-b","wolfe_image-085-bs",211.97,-1,18,8661,67,197,"1",8.661,0.937568038600383,0,0.937568038600383
"A1CX684F5TEO5W",NA,NA,"wolfe","image-128","wolfe_image-128-as","wolfe_image-128-b","wolfe_image-128-bs",221.489,-1,19,8783,466,457,"1",8.783,0.943642882752129,0,0.943642882752129
"A1CX684F5TEO5W",NA,NA,"wolfe","image-102","wolfe_image-102-as","wolfe_image-102-b","wolfe_image-102-bs",231.387,-1,20,8793,572,219,"1",8.793,0.944137073158098,0,0.944137073158098
"A1CX684F5TEO5W",NA,NA,"wolfe","image-032","wolfe_image-032-as","wolfe_image-032-b","wolfe_image-032-bs",239.311,-1,21,6674,568,491,"1",6.674,0.824386202318774,0,0.824386202318774
"A1CX684F5TEO5W",NA,NA,"wolfe","image-129","wolfe_image-129-as","wolfe_image-129-b","wolfe_image-129-bs",269.002,-1,23,21510,195,446,"1",21.51,1.33264041038746,0,1.33264041038746
"A1CX684F5TEO5W",NA,NA,"wolfe","image-135","wolfe_image-135-as","wolfe_image-135-b","wolfe_image-135-bs",276.764,-1,24,6757,419,182,"1",6.757,0.829753918924975,0,0.829753918924975
"A1CX684F5TEO5W",NA,NA,"wolfe","image-021","wolfe_image-021-as","wolfe_image-021-b","wolfe_image-021-bs",286.223,-1,25,8778,373,295,"1",8.778,0.943395576508954,0,0.943395576508954
"A1CX684F5TEO5W",NA,NA,"wolfe","image-104","wolfe_image-104-as","wolfe_image-104-b","wolfe_image-104-bs",297.659,-1,26,11151,29,230,"1",11.151,1.04731381581539,0,1.04731381581539
"A1CX684F5TEO5W",NA,NA,"wolfe","image-095","wolfe_image-095-as","wolfe_image-095-b","wolfe_image-095-bs",305.076,-1,27,6749,223,290,"1",6.749,0.829239428141389,0,0.829239428141389
"A1CX684F5TEO5W",NA,NA,"wolfe","image-049","wolfe_image-049-as","wolfe_image-049-b","wolfe_image-049-bs",314.702,-1,28,8935,138,83,"1",8.935,0.951094556841663,0,0.951094556841663
"A1CX684F5TEO5W",NA,NA,"wolfe","image-028","wolfe_image-028-as","wolfe_image-028-b","wolfe_image-028-bs",360.547,-1,30,8699,352,474,"1",8.699,0.93946933084353,0,0.93946933084353
"A1CX684F5TEO5W",NA,NA,"wolfe","image-010","wolfe_image-010-as","wolfe_image-010-b","wolfe_image-010-bs",369.779,-1,31,8718,71,159,"1",8.718,0.940416864681665,0,0.940416864681665
"A1CX684F5TEO5W",NA,NA,"wolfe","image-091","wolfe_image-091-as","wolfe_image-091-b","wolfe_image-091-bs",378.927,-1,32,8838,462,372,"1",8.838,0.946353997226275,0,0.946353997226275
"A1F669OTXWIJW0",NA,NA,"wolfe","image-028","wolfe_image-028-as","wolfe_image-028-b","wolfe_image-028-bs",58.986,-1,3,15249,357,469,"1",15.249,1.18324136442237,0,1.18324136442237
"A1F669OTXWIJW0",NA,NA,"wolfe","image-038","wolfe_image-038-as","wolfe_image-038-b","wolfe_image-038-bs",72.684,-1,4,12137,569,319,"1",12.137,1.08411135194068,0,1.08411135194068
"A1F669OTXWIJW0",NA,NA,"wolfe","image-123","wolfe_image-123-as","wolfe_image-123-b","wolfe_image-123-bs",89.418,-1,5,15350,73,358,"1",15.35,1.18610837981321,0,1.18610837981321
"A1F669OTXWIJW0",NA,NA,"wolfe","image-040","wolfe_image-040-as","wolfe_image-040-b","wolfe_image-040-bs",103.895,-1,6,13665,121,133,"1",13.665,1.13560963602868,0,1.13560963602868
"A1F669OTXWIJW0",NA,NA,"wolfe","image-111","wolfe_image-111-as","wolfe_image-111-b","wolfe_image-111-bs",112.279,-1,7,7074,220,252,"1",7.074,0.849665055478733,0,0.849665055478733
"A1F669OTXWIJW0",NA,NA,"wolfe","image-084","wolfe_image-084-as","wolfe_image-084-b","wolfe_image-084-bs",122.534,-1,8,9259,215,291,"1",9.259,0.96656408409731,0,0.96656408409731
"A1F669OTXWIJW0",NA,NA,"wolfe","image-101","wolfe_image-101-as","wolfe_image-101-b","wolfe_image-101-bs",132.687,-1,9,8871,603,340,"1",8.871,0.94797257924578,0,0.94797257924578
"A1F669OTXWIJW0",NA,NA,"wolfe","image-079","wolfe_image-079-as","wolfe_image-079-b","wolfe_image-079-bs",145.225,-1,10,11162,155,178,"1",11.162,1.04774201818064,0,1.04774201818064
"A1F669OTXWIJW0",NA,NA,"wolfe","image-118","wolfe_image-118-as","wolfe_image-118-b","wolfe_image-118-bs",155.48,-1,11,9025,615,308,"1",9.025,0.955447210577696,0,0.955447210577696
"A1F669OTXWIJW0",NA,NA,"wolfe","image-049","wolfe_image-049-as","wolfe_image-049-b","wolfe_image-049-bs",167.526,-1,12,10644,112,53,"1",10.644,1.02710486587935,0,1.02710486587935
"A1F669OTXWIJW0",NA,NA,"wolfe","image-098","wolfe_image-098-as","wolfe_image-098-b","wolfe_image-098-bs",202.91,-1,13,34027,266,419,"1",34.027,1.5318236610888,0,1.5318236610888
"A1F669OTXWIJW0",NA,NA,"wolfe","image-106","wolfe_image-106-as","wolfe_image-106-b","wolfe_image-106-bs",219.052,-1,14,15045,464,140,"1",15.045,1.1773921920761,0,1.1773921920761
"A1F669OTXWIJW0",NA,NA,"wolfe","image-125","wolfe_image-125-as","wolfe_image-125-b","wolfe_image-125-bs",229.395,-1,15,9091,99,376,"1",9.091,0.958611657764879,0,0.958611657764879
"A1F669OTXWIJW0",NA,NA,"wolfe","image-112","wolfe_image-112-as","wolfe_image-112-b","wolfe_image-112-bs",260.445,-1,16,30122,439,235,"1",30.122,1.47888380418628,0,1.47888380418628
"A1F669OTXWIJW0",NA,NA,"wolfe","image-039","wolfe_image-039-as","wolfe_image-039-b","wolfe_image-039-bs",278.71,-1,17,17163,559,192,"1",17.163,1.23459320248533,0,1.23459320248533
"A1F669OTXWIJW0",NA,NA,"wolfe","image-105","wolfe_image-105-as","wolfe_image-105-b","wolfe_image-105-bs",302.119,-1,18,22373,488,224,"1",22.373,1.3497242226344,0,1.3497242226344
"A1F669OTXWIJW0",NA,NA,"wolfe","image-032","wolfe_image-032-as","wolfe_image-032-b","wolfe_image-032-bs",313.857,-1,19,10598,584,482,"1",10.598,1.02522391517831,0,1.02522391517831
"A1F669OTXWIJW0",NA,NA,"wolfe","image-021","wolfe_image-021-as","wolfe_image-021-b","wolfe_image-021-bs",412.18,-1,23,14845,377,295,"1",14.845,1.17158020193206,0,1.17158020193206
"A1F669OTXWIJW0",NA,NA,"wolfe","image-019","wolfe_image-019-as","wolfe_image-019-b","wolfe_image-019-bs",420.08,-1,24,7561,61,202,"1",7.561,0.878579238062219,0,0.878579238062219
"A1F669OTXWIJW0",NA,NA,"wolfe","image-108","wolfe_image-108-as","wolfe_image-108-b","wolfe_image-108-bs",440.574,-1,25,19882,267,174,"1",19.882,1.29846006946145,0,1.29846006946145
"A1F669OTXWIJW0",NA,NA,"wolfe","image-104","wolfe_image-104-as","wolfe_image-104-b","wolfe_image-104-bs",468.338,-1,27,10812,37,240,"1",10.812,1.03390603702669,0,1.03390603702669
"A1F669OTXWIJW0",NA,NA,"wolfe","image-008","wolfe_image-008-as","wolfe_image-008-b","wolfe_image-008-bs",488.655,-1,29,9134,542,125,"1",9.134,0.960661007270982,0,0.960661007270982
"A1F669OTXWIJW0",NA,NA,"wolfe","image-029","wolfe_image-029-as","wolfe_image-029-b","wolfe_image-029-bs",523.584,-1,31,9118,297,125,"1",9.118,0.959899587865944,0,0.959899587865944
"A1FKRZKU1H9YFC",NA,NA,"wolfe","image-136","wolfe_image-136-as","wolfe_image-136-b","wolfe_image-136-bs",65.345,-1,3,16957,109,352,"1",16.957,1.2293490201677,0,1.2293490201677
"A1FKRZKU1H9YFC",NA,NA,"wolfe","image-111","wolfe_image-111-as","wolfe_image-111-b","wolfe_image-111-bs",208.365,-1,9,10082,237,242,"1",10.082,1.00354669310213,0,1.00354669310213
"A1FKRZKU1H9YFC",NA,NA,"wolfe","image-094","wolfe_image-094-as","wolfe_image-094-b","wolfe_image-094-bs",246.412,-1,11,7284,233,213,"1",7.284,0.862369937122882,0,0.862369937122882
"A1FKRZKU1H9YFC",NA,NA,"wolfe","image-117","wolfe_image-117-as","wolfe_image-117-b","wolfe_image-117-bs",254.938,-1,12,7171,198,238,"1",7.171,0.855579722501718,0,0.855579722501718
"A1FKRZKU1H9YFC",NA,NA,"wolfe","image-003","wolfe_image-003-as","wolfe_image-003-b","wolfe_image-003-bs",302.443,-1,14,8511,83,34,"1",8.511,0.929980590515515,0,0.929980590515515
"A1FKRZKU1H9YFC",NA,NA,"wolfe","image-045","wolfe_image-045-as","wolfe_image-045-b","wolfe_image-045-bs",325.255,-1,15,21325,315,402,"1",21.325,1.32888903983956,0,1.32888903983956
"A1FKRZKU1H9YFC",NA,NA,"wolfe","image-085","wolfe_image-085-as","wolfe_image-085-b","wolfe_image-085-bs",351.039,-1,17,10764,66,197,"1",10.764,1.03197368909172,0,1.03197368909172
"A1FKRZKU1H9YFC",NA,NA,"wolfe","image-097","wolfe_image-097-as","wolfe_image-097-b","wolfe_image-097-bs",369.983,-1,18,17448,124,371,"1",17.448,1.24174565257064,0,1.24174565257064
"A1FKRZKU1H9YFC",NA,NA,"wolfe","image-031","wolfe_image-031-as","wolfe_image-031-b","wolfe_image-031-bs",380.005,-1,19,8770,186,262,"1",8.77,0.94299959336604,0,0.94299959336604
"A1FKRZKU1H9YFC",NA,NA,"wolfe","image-098","wolfe_image-098-as","wolfe_image-098-b","wolfe_image-098-bs",392.341,-1,20,10734,263,420,"1",10.734,1.03076159095102,0,1.03076159095102
"A1FKRZKU1H9YFC",NA,NA,"wolfe","image-093","wolfe_image-093-as","wolfe_image-093-b","wolfe_image-093-bs",406.688,-1,21,12758,237,221,"1",12.758,1.10578259781444,0,1.10578259781444
"A1FKRZKU1H9YFC",NA,NA,"wolfe","image-013","wolfe_image-013-as","wolfe_image-013-b","wolfe_image-013-bs",418.564,-1,22,10648,81,51,"1",10.648,1.02726804246662,0,1.02726804246662
"A1FKRZKU1H9YFC",NA,NA,"wolfe","image-004","wolfe_image-004-as","wolfe_image-004-b","wolfe_image-004-bs",428.354,-1,23,8545,207,421,"1",8.545,0.931712067056756,0,0.931712067056756
"A1FKRZKU1H9YFC",NA,NA,"wolfe","image-005","wolfe_image-005-as","wolfe_image-005-b","wolfe_image-005-bs",438.179,-1,24,8606,371,263,"1",8.606,0.934801341746537,0,0.934801341746537
"A1FKRZKU1H9YFC",NA,NA,"wolfe","image-107","wolfe_image-107-as","wolfe_image-107-b","wolfe_image-107-bs",450.612,-1,25,10780,238,293,"1",10.78,1.03261876085072,0,1.03261876085072
"A1FKRZKU1H9YFC",NA,NA,"wolfe","image-010","wolfe_image-010-as","wolfe_image-010-b","wolfe_image-010-bs",467.598,-1,26,14785,72,153,"1",14.785,1.16982132886214,0,1.16982132886214
"A1FKRZKU1H9YFC",NA,NA,"wolfe","image-108","wolfe_image-108-as","wolfe_image-108-b","wolfe_image-108-bs",490.327,-1,27,21343,270,171,"1",21.343,1.32925546437964,0,1.32925546437964
"A1FKRZKU1H9YFC",NA,NA,"wolfe","image-038","wolfe_image-038-as","wolfe_image-038-b","wolfe_image-038-bs",500.331,-1,28,8849,581,319,"1",8.849,0.946894195102327,0,0.946894195102327
"A1FKRZKU1H9YFC",NA,NA,"wolfe","image-007","wolfe_image-007-as","wolfe_image-007-b","wolfe_image-007-bs",514.664,-1,29,12846,169,224,"1",12.846,1.10876791767808,0,1.10876791767808
"A1FKRZKU1H9YFC",NA,NA,"wolfe","image-014","wolfe_image-014-as","wolfe_image-014-b","wolfe_image-014-bs",524.733,-1,30,8763,54,440,"1",8.763,0.942652811693212,0,0.942652811693212
"A1FKRZKU1H9YFC",NA,NA,"wolfe","image-112","wolfe_image-112-as","wolfe_image-112-b","wolfe_image-112-bs",549.025,-1,31,23262,430,227,"1",23.262,1.36664705139085,0,1.36664705139085
"A1FKRZKU1H9YFC",NA,NA,"wolfe","image-019","wolfe_image-019-as","wolfe_image-019-b","wolfe_image-019-bs",557.603,-1,32,7197,78,168,"1",7.197,0.857151502687493,0,0.857151502687493
"A1H2UHJ78F185L",NA,NA,"wolfe","image-135","wolfe_image-135-as","wolfe_image-135-b","wolfe_image-135-bs",99.267,-1,3,7423,426,183,"1",7.423,0.870579460552685,0,0.870579460552685
"A1H2UHJ78F185L",NA,NA,"wolfe","image-012","wolfe_image-012-as","wolfe_image-012-b","wolfe_image-012-bs",196.94,-1,7,7410,509,424,"1",7.41,0.869818207979328,0,0.869818207979328
"A1H2UHJ78F185L",NA,NA,"wolfe","image-049","wolfe_image-049-as","wolfe_image-049-b","wolfe_image-049-bs",218.268,-1,8,19391,94,43,"1",19.391,1.28760020635995,0,1.28760020635995
"A1H2UHJ78F185L",NA,NA,"wolfe","image-115","wolfe_image-115-as","wolfe_image-115-b","wolfe_image-115-bs",235.451,-1,9,15188,135,324,"1",15.188,1.18150058846776,0,1.18150058846776
"A1H2UHJ78F185L",NA,NA,"wolfe","image-026","wolfe_image-026-as","wolfe_image-026-b","wolfe_image-026-bs",297.509,-1,11,8760,161,301,"1",8.76,0.942504106168081,0,0.942504106168081
"A1H2UHJ78F185L",NA,NA,"wolfe","image-046","wolfe_image-046-as","wolfe_image-046-b","wolfe_image-046-bs",323.577,-1,12,23407,62,481,"1",23.407,1.36934575513467,0,1.36934575513467
"A1H2UHJ78F185L",NA,NA,"wolfe","image-082","wolfe_image-082-as","wolfe_image-082-b","wolfe_image-082-bs",332.167,-1,13,6833,282,231,"1",6.833,0.834611420722687,0,0.834611420722687
"A1H2UHJ78F185L",NA,NA,"wolfe","image-006","wolfe_image-006-as","wolfe_image-006-b","wolfe_image-006-bs",342.727,-1,14,8862,590,157,"1",8.862,0.947531745695593,0,0.947531745695593
"A1H2UHJ78F185L",NA,NA,"wolfe","image-111","wolfe_image-111-as","wolfe_image-111-b","wolfe_image-111-bs",363.199,-1,16,6834,228,250,"1",6.834,0.834674974462744,0,0.834674974462744
"A1H2UHJ78F185L",NA,NA,"wolfe","image-105","wolfe_image-105-as","wolfe_image-105-b","wolfe_image-105-bs",373.775,-1,17,8878,468,208,"1",8.878,0.948315140689348,0,0.948315140689348
"A1H2UHJ78F185L",NA,NA,"wolfe","image-121","wolfe_image-121-as","wolfe_image-121-b","wolfe_image-121-bs",390.995,-1,18,15227,250,328,"1",15.227,1.18261434773635,0,1.18261434773635
"A1H2UHJ78F185L",NA,NA,"wolfe","image-137","wolfe_image-137-as","wolfe_image-137-b","wolfe_image-137-bs",399.345,-1,19,6660,197,246,"1",6.66,0.823474229170301,0,0.823474229170301
"A1H2UHJ78F185L",NA,NA,"wolfe","image-080","wolfe_image-080-as","wolfe_image-080-b","wolfe_image-080-bs",407.715,-1,20,6881,26,198,"1",6.881,0.837651557846392,0,0.837651557846392
"A1H2UHJ78F185L",NA,NA,"wolfe","image-004","wolfe_image-004-as","wolfe_image-004-b","wolfe_image-004-bs",420.347,-1,21,10815,157,408,"1",10.815,1.03402652377511,0,1.03402652377511
"A1H2UHJ78F185L",NA,NA,"wolfe","image-089","wolfe_image-089-as","wolfe_image-089-b","wolfe_image-089-bs",430.987,-1,22,8703,370,307,"1",8.703,0.939668983522327,0,0.939668983522327
"A1H2UHJ78F185L",NA,NA,"wolfe","image-087","wolfe_image-087-as","wolfe_image-087-b","wolfe_image-087-bs",441.546,-1,23,8667,214,277,"1",8.667,0.937868796563859,0,0.937868796563859
"A1H2UHJ78F185L",NA,NA,"wolfe","image-078","wolfe_image-078-as","wolfe_image-078-b","wolfe_image-078-bs",464.872,-1,24,21508,364,148,"1",21.508,1.33260002780508,0,1.33260002780508
"A1H2UHJ78F185L",NA,NA,"wolfe","image-088","wolfe_image-088-as","wolfe_image-088-b","wolfe_image-088-bs",511.262,-1,26,19338,448,364,"1",19.338,1.28641155589598,0,1.28641155589598
"A1H2UHJ78F185L",NA,NA,"wolfe","image-010","wolfe_image-010-as","wolfe_image-010-b","wolfe_image-010-bs",590.645,-1,30,6708,65,170,"1",6.708,0.826593053934048,0,0.826593053934048
"A1H2UHJ78F185L",NA,NA,"wolfe","image-007","wolfe_image-007-as","wolfe_image-007-b","wolfe_image-007-bs",601.279,-1,31,9118,195,225,"1",9.118,0.959899587865944,0,0.959899587865944
"A1HAOXJVRYT43K",NA,NA,"wolfe","image-114","wolfe_image-114-as","wolfe_image-114-b","wolfe_image-114-bs",67.607,-1,4,9255,627,151,"1",9.255,0.966376423088923,0,0.966376423088923
"A1HAOXJVRYT43K",NA,NA,"wolfe","image-084","wolfe_image-084-as","wolfe_image-084-b","wolfe_image-084-bs",146.89,-1,9,16981,212,291,"1",16.981,1.22996326197943,0,1.22996326197943
"A1HAOXJVRYT43K",NA,NA,"wolfe","image-038","wolfe_image-038-as","wolfe_image-038-b","wolfe_image-038-bs",170.2,-1,11,10774,573,319,"1",10.774,1.03237697120994,0,1.03237697120994
"A1HAOXJVRYT43K",NA,NA,"wolfe","image-047","wolfe_image-047-as","wolfe_image-047-b","wolfe_image-047-bs",179.073,-1,12,6720,151,328,"1",6.72,0.827369273053825,0,0.827369273053825
"A1HAOXJVRYT43K",NA,NA,"wolfe","image-078","wolfe_image-078-as","wolfe_image-078-b","wolfe_image-078-bs",189.39,-1,13,8651,388,173,"1",8.651,0.937066312017428,0,0.937066312017428
"A1HAOXJVRYT43K",NA,NA,"wolfe","image-003","wolfe_image-003-as","wolfe_image-003-b","wolfe_image-003-bs",200.23,-1,14,8841,51,41,"1",8.841,0.946501390569587,0,0.946501390569587
"A1HAOXJVRYT43K",NA,NA,"wolfe","image-030","wolfe_image-030-as","wolfe_image-030-b","wolfe_image-030-bs",248.165,-1,16,8878,446,258,"1",8.878,0.948315140689348,0,0.948315140689348
"A1HAOXJVRYT43K",NA,NA,"wolfe","image-022","wolfe_image-022-as","wolfe_image-022-b","wolfe_image-022-bs",296.216,-1,18,8857,208,277,"1",8.857,0.947286644677798,0,0.947286644677798
"A1HAOXJVRYT43K",NA,NA,"wolfe","image-088","wolfe_image-088-as","wolfe_image-088-b","wolfe_image-088-bs",355.48,-1,20,17287,447,357,"1",17.287,1.23771963199625,0,1.23771963199625
"A1HAOXJVRYT43K",NA,NA,"wolfe","image-024","wolfe_image-024-as","wolfe_image-024-b","wolfe_image-024-bs",383.576,-1,22,17449,362,431,"1",17.449,1.24177054264612,0,1.24177054264612
"A1HAOXJVRYT43K",NA,NA,"wolfe","image-041","wolfe_image-041-as","wolfe_image-041-b","wolfe_image-041-bs",394.277,-1,23,8755,73,375,"1",8.755,0.942256150419465,0,0.942256150419465
"A1HAOXJVRYT43K",NA,NA,"wolfe","image-136","wolfe_image-136-as","wolfe_image-136-b","wolfe_image-136-bs",407.497,-1,24,10662,101,346,"1",10.662,1.02783867818895,0,1.02783867818895
"A1HAOXJVRYT43K",NA,NA,"wolfe","image-115","wolfe_image-115-as","wolfe_image-115-b","wolfe_image-115-bs",419.569,-1,25,10600,142,336,"1",10.6,1.02530586526477,0,1.02530586526477
"A1HAOXJVRYT43K",NA,NA,"wolfe","image-009","wolfe_image-009-as","wolfe_image-009-b","wolfe_image-009-bs",431.941,-1,26,10580,352,219,"1",10.58,1.02448566769917,0,1.02448566769917
"A1HAOXJVRYT43K",NA,NA,"wolfe","image-089","wolfe_image-089-as","wolfe_image-089-b","wolfe_image-089-bs",441.952,-1,27,8527,373,317,"1",8.527,0.9307962629833,0,0.9307962629833
"A1HAOXJVRYT43K",NA,NA,"wolfe","image-111","wolfe_image-111-as","wolfe_image-111-b","wolfe_image-111-bs",454.352,-1,28,9371,240,244,"1",9.371,0.971785937879114,0,0.971785937879114
"A1HAOXJVRYT43K",NA,NA,"wolfe","image-082","wolfe_image-082-as","wolfe_image-082-b","wolfe_image-082-bs",463.064,-1,29,7189,302,275,"1",7.189,0.856668483611535,0,0.856668483611535
"A1HAOXJVRYT43K",NA,NA,"wolfe","image-017","wolfe_image-017-as","wolfe_image-017-b","wolfe_image-017-bs",475.391,-1,30,10565,143,322,"1",10.565,1.02386950138833,0,1.02386950138833
"A1HAOXJVRYT43K",NA,NA,"wolfe","image-026","wolfe_image-026-as","wolfe_image-026-b","wolfe_image-026-bs",489.113,-1,31,12186,168,306,"1",12.186,1.08586117378845,0,1.08586117378845
"A1HAOXJVRYT43K",NA,NA,"wolfe","image-006","wolfe_image-006-as","wolfe_image-006-b","wolfe_image-006-bs",501.766,-1,32,10825,592,158,"1",10.825,1.0344279050254,0,1.0344279050254
"A1HFPDHBLO6KZW",NA,NA,"wolfe","image-028","wolfe_image-028-as","wolfe_image-028-b","wolfe_image-028-bs",130.989,-1,3,12562,353,471,"1",12.562,1.09905878906805,0,1.09905878906805
"A1HFPDHBLO6KZW",NA,NA,"wolfe","image-108","wolfe_image-108-as","wolfe_image-108-b","wolfe_image-108-bs",149.149,-1,4,17080,269,168,"1",17.08,1.23248786635299,0,1.23248786635299
"A1HFPDHBLO6KZW",NA,NA,"wolfe","image-081","wolfe_image-081-as","wolfe_image-081-b","wolfe_image-081-bs",174.549,-1,5,24652,473,371,"1",24.652,1.39185215905864,0,1.39185215905864
"A1HFPDHBLO6KZW",NA,NA,"wolfe","image-009","wolfe_image-009-as","wolfe_image-009-b","wolfe_image-009-bs",197.525,-1,7,8869,352,224,"1",8.869,0.947874654897698,0,0.947874654897698
"A1HFPDHBLO6KZW",NA,NA,"wolfe","image-012","wolfe_image-012-as","wolfe_image-012-b","wolfe_image-012-bs",205.533,-1,8,6911,545,422,"1",6.911,0.839540892968969,0,0.839540892968969
"A1HFPDHBLO6KZW",NA,NA,"wolfe","image-128","wolfe_image-128-as","wolfe_image-128-b","wolfe_image-128-bs",213.397,-1,9,7055,464,455,"1",7.055,0.848497018090367,0,0.848497018090367
"A1HFPDHBLO6KZW",NA,NA,"wolfe","image-001","wolfe_image-001-as","wolfe_image-001-b","wolfe_image-001-bs",223.598,-1,10,8608,142,353,"1",8.608,0.934902258322314,0,0.934902258322314
"A1HFPDHBLO6KZW",NA,NA,"wolfe","image-035","wolfe_image-035-as","wolfe_image-035-b","wolfe_image-035-bs",232.781,-1,11,8622,67,179,"1",8.622,0.935608018517869,0,0.935608018517869
"A1HFPDHBLO6KZW",NA,NA,"wolfe","image-050","wolfe_image-050-as","wolfe_image-050-b","wolfe_image-050-bs",243.293,-1,12,8885,162,195,"1",8.885,0.94865743214132,0,0.94865743214132
"A1HFPDHBLO6KZW",NA,NA,"wolfe","image-031","wolfe_image-031-as","wolfe_image-031-b","wolfe_image-031-bs",252.877,-1,13,9121,175,260,"1",9.121,0.960042455726842,0,0.960042455726842
"A1HFPDHBLO6KZW",NA,NA,"wolfe","image-006","wolfe_image-006-as","wolfe_image-006-b","wolfe_image-006-bs",262.437,-1,14,9001,600,157,"1",9.001,0.954290761701127,0,0.954290761701127
"A1HFPDHBLO6KZW",NA,NA,"wolfe","image-096","wolfe_image-096-as","wolfe_image-096-b","wolfe_image-096-bs",272.174,-1,15,9234,321,377,"1",9.234,0.965389870215122,0,0.965389870215122
"A1HFPDHBLO6KZW",NA,NA,"wolfe","image-084","wolfe_image-084-as","wolfe_image-084-b","wolfe_image-084-bs",290.965,-1,18,7281,224,290,"1",7.281,0.862191031051597,0,0.862191031051597
"A1HFPDHBLO6KZW",NA,NA,"wolfe","image-046","wolfe_image-046-as","wolfe_image-046-b","wolfe_image-046-bs",300.333,-1,19,8929,59,489,"1",8.929,0.950802822964659,0,0.950802822964659
"A1HFPDHBLO6KZW",NA,NA,"wolfe","image-087","wolfe_image-087-as","wolfe_image-087-b","wolfe_image-087-bs",308.316,-1,20,7124,215,271,"1",7.124,0.852723910791206,0,0.852723910791206
"A1HFPDHBLO6KZW",NA,NA,"wolfe","image-130","wolfe_image-130-as","wolfe_image-130-b","wolfe_image-130-bs",330.868,-1,21,21604,623,369,"1",21.604,1.33453416860916,0,1.33453416860916
"A1HFPDHBLO6KZW",NA,NA,"wolfe","image-104","wolfe_image-104-as","wolfe_image-104-b","wolfe_image-104-bs",340.053,-1,22,8835,25,241,"1",8.835,0.946206553842783,0,0.946206553842783
"A1HFPDHBLO6KZW",NA,NA,"wolfe","image-026","wolfe_image-026-as","wolfe_image-026-b","wolfe_image-026-bs",347.83,-1,23,7056,159,299,"1",7.056,0.848558572123763,0,0.848558572123763
"A1HFPDHBLO6KZW",NA,NA,"wolfe","image-077","wolfe_image-077-as","wolfe_image-077-b","wolfe_image-077-bs",355.767,-1,24,6725,375,319,"1",6.725,0.827692288674446,0,0.827692288674446
"A1HFPDHBLO6KZW",NA,NA,"wolfe","image-032","wolfe_image-032-as","wolfe_image-032-b","wolfe_image-032-bs",365.541,-1,25,6698,611,465,"1",6.698,0.825945143203848,0,0.825945143203848
"A1HFPDHBLO6KZW",NA,NA,"wolfe","image-004","wolfe_image-004-as","wolfe_image-004-b","wolfe_image-004-bs",375.645,-1,27,8603,161,401,"1",8.603,0.934649922900711,0,0.934649922900711
"A1HFPDHBLO6KZW",NA,NA,"wolfe","image-041","wolfe_image-041-as","wolfe_image-041-b","wolfe_image-041-bs",384.982,-1,28,8608,78,383,"1",8.608,0.934902258322314,0,0.934902258322314
"A1HFPDHBLO6KZW",NA,NA,"wolfe","image-112","wolfe_image-112-as","wolfe_image-112-b","wolfe_image-112-bs",392.661,-1,29,6835,437,231,"1",6.835,0.834738518903841,0,0.834738518903841
"A1HFPDHBLO6KZW",NA,NA,"wolfe","image-101","wolfe_image-101-as","wolfe_image-101-b","wolfe_image-101-bs",400.533,-1,30,6926,599,336,"1",6.926,0.840482487213442,0,0.840482487213442
"A1HFPDHBLO6KZW",NA,NA,"wolfe","image-088","wolfe_image-088-as","wolfe_image-088-b","wolfe_image-088-bs",408.388,-1,31,6799,437,363,"1",6.799,0.832445041174111,0,0.832445041174111
"A1HFPDHBLO6KZW",NA,NA,"wolfe","image-131","wolfe_image-131-as","wolfe_image-131-b","wolfe_image-131-bs",416.412,-1,32,6946,358,163,"1",6.946,0.841734778974743,0,0.841734778974743
"A1IZUMK7R8O98N",NA,NA,"wolfe","image-109","wolfe_image-109-as","wolfe_image-109-b","wolfe_image-109-bs",49.137,-1,3,15762,178,239,"1",15.762,1.19761132316971,0,1.19761132316971
"A1IZUMK7R8O98N",NA,NA,"wolfe","image-012","wolfe_image-012-as","wolfe_image-012-b","wolfe_image-012-bs",89.737,-1,5,16657,540,437,"1",16.657,1.22159678574026,0,1.22159678574026
"A1IZUMK7R8O98N",NA,NA,"wolfe","image-135","wolfe_image-135-as","wolfe_image-135-b","wolfe_image-135-bs",115.253,-1,6,24611,419,183,"1",24.611,1.3911292604179,0,1.3911292604179
"A1IZUMK7R8O98N",NA,NA,"wolfe","image-050","wolfe_image-050-as","wolfe_image-050-b","wolfe_image-050-bs",126.258,-1,7,10122,166,187,"1",10.122,1.00526633297277,0,1.00526633297277
"A1IZUMK7R8O98N",NA,NA,"wolfe","image-091","wolfe_image-091-as","wolfe_image-091-b","wolfe_image-091-bs",137.398,-1,8,10423,459,373,"1",10.423,1.01799273776643,0,1.01799273776643
"A1IZUMK7R8O98N",NA,NA,"wolfe","image-080","wolfe_image-080-as","wolfe_image-080-b","wolfe_image-080-bs",147.318,-1,9,9055,20,187,"1",9.055,0.956888454650077,0,0.956888454650077
"A1IZUMK7R8O98N",NA,NA,"wolfe","image-085","wolfe_image-085-as","wolfe_image-085-b","wolfe_image-085-bs",156.177,-1,10,8227,63,190,"1",8.227,0.915241497306194,0,0.915241497306194
"A1IZUMK7R8O98N",NA,NA,"wolfe","image-110","wolfe_image-110-as","wolfe_image-110-b","wolfe_image-110-bs",214.152,-1,12,13326,634,236,"1",13.326,1.12469980893212,0,1.12469980893212
"A1IZUMK7R8O98N",NA,NA,"wolfe","image-134","wolfe_image-134-as","wolfe_image-134-b","wolfe_image-134-bs",225.832,-1,13,10426,551,334,"1",10.426,1.018117720591,0,1.018117720591
"A1IZUMK7R8O98N",NA,NA,"wolfe","image-121","wolfe_image-121-as","wolfe_image-121-b","wolfe_image-121-bs",267.751,-1,15,8848,280,320,"1",8.848,0.946845113960623,0,0.946845113960623
"A1IZUMK7R8O98N",NA,NA,"wolfe","image-037","wolfe_image-037-as","wolfe_image-037-b","wolfe_image-037-bs",279.672,-1,16,10679,218,356,"1",10.679,1.02853058651133,0,1.02853058651133
"A1IZUMK7R8O98N",NA,NA,"wolfe","image-004","wolfe_image-004-as","wolfe_image-004-b","wolfe_image-004-bs",311.691,-1,17,7508,174,413,"1",7.508,0.875524263949309,0,0.875524263949309
"A1IZUMK7R8O98N",NA,NA,"wolfe","image-010","wolfe_image-010-as","wolfe_image-010-b","wolfe_image-010-bs",336.441,-1,18,24745,72,157,"1",24.745,1.39348745814718,0,1.39348745814718
"A1IZUMK7R8O98N",NA,NA,"wolfe","image-013","wolfe_image-013-as","wolfe_image-013-b","wolfe_image-013-bs",397.964,-1,19,11922,80,63,"1",11.922,1.07634911749346,0,1.07634911749346
"A1IZUMK7R8O98N",NA,NA,"wolfe","image-006","wolfe_image-006-as","wolfe_image-006-b","wolfe_image-006-bs",408.706,-1,21,9784,610,156,"1",9.784,0.990516444028229,0,0.990516444028229
"A1IZUMK7R8O98N",NA,NA,"wolfe","image-039","wolfe_image-039-as","wolfe_image-039-b","wolfe_image-039-bs",418.675,-1,22,8747,558,195,"1",8.747,0.941859126525374,0,0.941859126525374
"A1IZUMK7R8O98N",NA,NA,"wolfe","image-126","wolfe_image-126-as","wolfe_image-126-b","wolfe_image-126-bs",437.503,-1,23,17075,624,297,"1",17.075,1.23236071235357,0,1.23236071235357
"A1IZUMK7R8O98N",NA,NA,"wolfe","image-130","wolfe_image-130-as","wolfe_image-130-b","wolfe_image-130-bs",450.745,-1,24,12298,617,364,"1",12.298,1.08983448870863,0,1.08983448870863
"A1IZUMK7R8O98N",NA,NA,"wolfe","image-104","wolfe_image-104-as","wolfe_image-104-b","wolfe_image-104-bs",473.504,-1,26,8774,22,230,"1",8.774,0.943197630068926,0,0.943197630068926
"A1IZUMK7R8O98N",NA,NA,"wolfe","image-022","wolfe_image-022-as","wolfe_image-022-b","wolfe_image-022-bs",487.753,-1,27,12509,207,280,"1",12.509,1.0972225925199,0,1.0972225925199
"A1IZUMK7R8O98N",NA,NA,"wolfe","image-044","wolfe_image-044-as","wolfe_image-044-b","wolfe_image-044-bs",499.052,-1,28,10441,106,336,"1",10.441,1.01874209576238,0,1.01874209576238
"A1IZUMK7R8O98N",NA,NA,"wolfe","image-081","wolfe_image-081-as","wolfe_image-081-b","wolfe_image-081-bs",508.236,-1,29,8224,467,376,"1",8.224,0.915083101651201,0,0.915083101651201
"A1IZUMK7R8O98N",NA,NA,"wolfe","image-113","wolfe_image-113-as","wolfe_image-113-b","wolfe_image-113-bs",518.633,-1,30,9610,315,305,"1",9.61,0.982723387668545,0,0.982723387668545
"A1IZUMK7R8O98N",NA,NA,"wolfe","image-014","wolfe_image-014-as","wolfe_image-014-b","wolfe_image-014-bs",543.252,-1,31,23458,60,434,"1",23.458,1.37029098194873,0,1.37029098194873
"A1IZUMK7R8O98N",NA,NA,"wolfe","image-034","wolfe_image-034-as","wolfe_image-034-b","wolfe_image-034-bs",553.533,-1,32,9002,450,347,"1",9.002,0.95433900860246,0,0.95433900860246
"A1J1PWS99LFVPL",NA,NA,"wolfe","image-023","wolfe_image-023-as","wolfe_image-023-b","wolfe_image-023-bs",99.938,-1,3,7369,88,393,"1",7.369,0.867408556522791,0,0.867408556522791
"A1J1PWS99LFVPL",NA,NA,"wolfe","image-119","wolfe_image-119-as","wolfe_image-119-b","wolfe_image-119-bs",451.854,-1,24,12447,61,360,"1",12.447,1.09506468954864,0,1.09506468954864
"A1J1PWS99LFVPL",NA,NA,"wolfe","image-107","wolfe_image-107-as","wolfe_image-107-b","wolfe_image-107-bs",462.054,-1,25,9044,254,299,"1",9.044,0.956360553673322,0,0.956360553673322
"A1J1PWS99LFVPL",NA,NA,"wolfe","image-004","wolfe_image-004-as","wolfe_image-004-b","wolfe_image-004-bs",472.174,-1,26,9333,184,421,"1",9.333,0.970021265828366,0,0.970021265828366
"A1J1PWS99LFVPL",NA,NA,"wolfe","image-006","wolfe_image-006-as","wolfe_image-006-b","wolfe_image-006-bs",482.038,-1,27,9019,614,167,"1",9.019,0.955158386925794,0,0.955158386925794
"A1J1PWS99LFVPL",NA,NA,"wolfe","image-082","wolfe_image-082-as","wolfe_image-082-b","wolfe_image-082-bs",498.11,-1,28,15149,312,259,"1",15.149,1.18038396558976,0,1.18038396558976
"A1J1PWS99LFVPL",NA,NA,"wolfe","image-128","wolfe_image-128-as","wolfe_image-128-b","wolfe_image-128-bs",534.11,-1,30,7275,459,453,"1",7.275,0.861832997657945,0,0.861832997657945
"A1J1PWS99LFVPL",NA,NA,"wolfe","image-117","wolfe_image-117-as","wolfe_image-117-b","wolfe_image-117-bs",542.75,-1,31,7216,185,219,"1",7.216,0.858296524533885,0,0.858296524533885
"A1J1PWS99LFVPL",NA,NA,"wolfe","image-028","wolfe_image-028-as","wolfe_image-028-b","wolfe_image-028-bs",552.277,-1,32,8814,354,475,"1",8.814,0.9451730461739,0,0.9451730461739
"A1K61OKMPRZUML",NA,NA,"wolfe","image-077","wolfe_image-077-as","wolfe_image-077-b","wolfe_image-077-bs",40.726,-1,3,8047,380,317,"1",8.047,0.905634001326955,0,0.905634001326955
"A1K61OKMPRZUML",NA,NA,"wolfe","image-114","wolfe_image-114-as","wolfe_image-114-b","wolfe_image-114-bs",49.557,-1,4,7278,627,162,"1",7.278,0.862012051250217,0,0.862012051250217
"A1K61OKMPRZUML",NA,NA,"wolfe","image-127","wolfe_image-127-as","wolfe_image-127-b","wolfe_image-127-bs",58.375,-1,5,7262,575,253,"1",7.262,0.861056244576873,0,0.861056244576873
"A1K61OKMPRZUML",NA,NA,"wolfe","image-100","wolfe_image-100-as","wolfe_image-100-b","wolfe_image-100-bs",66.404,-1,6,6698,615,330,"1",6.698,0.825945143203848,0,0.825945143203848
"A1K61OKMPRZUML",NA,NA,"wolfe","image-005","wolfe_image-005-as","wolfe_image-005-b","wolfe_image-005-bs",75.466,-1,7,6913,362,261,"1",6.913,0.839666556882433,0,0.839666556882433
"A1K61OKMPRZUML",NA,NA,"wolfe","image-023","wolfe_image-023-as","wolfe_image-023-b","wolfe_image-023-bs",83.508,-1,8,6717,91,386,"1",6.717,0.827175348298693,0,0.827175348298693
"A1K61OKMPRZUML",NA,NA,"wolfe","image-115","wolfe_image-115-as","wolfe_image-115-b","wolfe_image-115-bs",92.533,-1,9,6651,123,326,"1",6.651,0.822886947834151,0,0.822886947834151
"A1K61OKMPRZUML",NA,NA,"wolfe","image-046","wolfe_image-046-as","wolfe_image-046-b","wolfe_image-046-bs",101.906,-1,10,6820,77,471,"1",6.82,0.833784374656479,0,0.833784374656479
"A1K61OKMPRZUML",NA,NA,"wolfe","image-132","wolfe_image-132-as","wolfe_image-132-b","wolfe_image-132-bs",110.592,-1,11,6707,629,288,"1",6.707,0.826528306340652,0,0.826528306340652
"A1K61OKMPRZUML",NA,NA,"wolfe","image-106","wolfe_image-106-as","wolfe_image-106-b","wolfe_image-106-bs",118.808,-1,12,6651,453,141,"1",6.651,0.822886947834151,0,0.822886947834151
"A1K61OKMPRZUML",NA,NA,"wolfe","image-098","wolfe_image-098-as","wolfe_image-098-b","wolfe_image-098-bs",135.71,-1,14,6678,266,418,"1",6.678,0.824646414718352,0,0.824646414718352
"A1K61OKMPRZUML",NA,NA,"wolfe","image-008","wolfe_image-008-as","wolfe_image-008-b","wolfe_image-008-bs",144.29,-1,15,6786,540,112,"1",6.786,0.831613855309099,0,0.831613855309099
"A1K61OKMPRZUML",NA,NA,"wolfe","image-109","wolfe_image-109-as","wolfe_image-109-b","wolfe_image-109-bs",152.971,-1,16,6709,168,261,"1",6.709,0.826657791875869,0,0.826657791875869
"A1K61OKMPRZUML",NA,NA,"wolfe","image-126","wolfe_image-126-as","wolfe_image-126-b","wolfe_image-126-bs",162.348,-1,17,6966,627,301,"1",6.966,0.842983470122218,0,0.842983470122218
"A1K61OKMPRZUML",NA,NA,"wolfe","image-015","wolfe_image-015-as","wolfe_image-015-b","wolfe_image-015-bs",171.08,-1,18,6663,149,260,"1",6.663,0.823669813268136,0,0.823669813268136
"A1K61OKMPRZUML",NA,NA,"wolfe","image-042","wolfe_image-042-as","wolfe_image-042-b","wolfe_image-042-bs",197.909,-1,20,6718,219,89,"1",6.718,0.827239999505646,0,0.827239999505646
"A1K61OKMPRZUML",NA,NA,"wolfe","image-093","wolfe_image-093-as","wolfe_image-093-b","wolfe_image-093-bs",208.4,-1,21,6653,231,218,"1",6.653,0.823017523446049,0,0.823017523446049
"A1K61OKMPRZUML",NA,NA,"wolfe","image-084","wolfe_image-084-as","wolfe_image-084-b","wolfe_image-084-bs",226.996,-1,23,6701,211,294,"1",6.701,0.826139617935915,0,0.826139617935915
"A1K61OKMPRZUML",NA,NA,"wolfe","image-105","wolfe_image-105-as","wolfe_image-105-b","wolfe_image-105-bs",243.859,-1,25,6624,471,212,"1",6.624,0.821120323776824,0,0.821120323776824
"A1K61OKMPRZUML",NA,NA,"wolfe","image-101","wolfe_image-101-as","wolfe_image-101-b","wolfe_image-101-bs",252.363,-1,26,6602,592,338,"1",6.602,0.819675519994293,0,0.819675519994293
"A1K61OKMPRZUML",NA,NA,"wolfe","image-097","wolfe_image-097-as","wolfe_image-097-b","wolfe_image-097-bs",262.779,-1,27,7321,114,368,"1",7.321,0.86457040685343,0,0.86457040685343
"A1K61OKMPRZUML",NA,NA,"wolfe","image-095","wolfe_image-095-as","wolfe_image-095-b","wolfe_image-095-bs",270.991,-1,28,6553,216,299,"1",6.553,0.816440167956139,0,0.816440167956139
"A1K61OKMPRZUML",NA,NA,"wolfe","image-081","wolfe_image-081-as","wolfe_image-081-b","wolfe_image-081-bs",284.915,-1,29,12626,470,374,"1",12.626,1.10126578499133,0,1.10126578499133
"A1K61OKMPRZUML",NA,NA,"wolfe","image-096","wolfe_image-096-as","wolfe_image-096-b","wolfe_image-096-bs",304.014,-1,31,8795,305,365,"1",8.795,0.94423584379348,0,0.94423584379348
"A1K61OKMPRZUML",NA,NA,"wolfe","image-103","wolfe_image-103-as","wolfe_image-103-b","wolfe_image-103-bs",314.936,-1,32,8760,144,331,"1",8.76,0.942504106168081,0,0.942504106168081
"A1KS9LITOVPAT8",NA,NA,"wolfe","image-109","wolfe_image-109-as","wolfe_image-109-b","wolfe_image-109-bs",70.777,-1,3,9051,185,294,"1",9.051,0.956696564894651,0,0.956696564894651
"A1KS9LITOVPAT8",NA,NA,"wolfe","image-004","wolfe_image-004-as","wolfe_image-004-b","wolfe_image-004-bs",93.773,-1,5,8881,194,414,"1",8.881,0.948461870061284,0,0.948461870061284
"A1KS9LITOVPAT8",NA,NA,"wolfe","image-077","wolfe_image-077-as","wolfe_image-077-b","wolfe_image-077-bs",133.025,-1,7,7207,372,318,"1",7.207,0.857754522059442,0,0.857754522059442
"A1KS9LITOVPAT8",NA,NA,"wolfe","image-087","wolfe_image-087-as","wolfe_image-087-b","wolfe_image-087-bs",151.907,-1,8,18098,208,274,"1",18.098,1.25763058387716,0,1.25763058387716
"A1KS9LITOVPAT8",NA,NA,"wolfe","image-127","wolfe_image-127-as","wolfe_image-127-b","wolfe_image-127-bs",161.879,-1,9,8737,571,250,"1",8.737,0.941362335711761,0,0.941362335711761
"A1KS9LITOVPAT8",NA,NA,"wolfe","image-088","wolfe_image-088-as","wolfe_image-088-b","wolfe_image-088-bs",303.059,-1,13,6859,436,361,"1",6.859,0.836260802858487,0,0.836260802858487
"A1KS9LITOVPAT8",NA,NA,"wolfe","image-032","wolfe_image-032-as","wolfe_image-032-b","wolfe_image-032-bs",331.508,-1,15,10657,575,474,"1",10.657,1.02763496577754,0,1.02763496577754
"A1KS9LITOVPAT8",NA,NA,"wolfe","image-037","wolfe_image-037-as","wolfe_image-037-b","wolfe_image-037-bs",341.137,-1,16,8762,209,358,"1",8.762,0.942603248842157,0,0.942603248842157
"A1KS9LITOVPAT8",NA,NA,"wolfe","image-009","wolfe_image-009-as","wolfe_image-009-b","wolfe_image-009-bs",361.069,-1,18,8900,352,217,"1",8.9,0.949390006644913,0,0.949390006644913
"A1KS9LITOVPAT8",NA,NA,"wolfe","image-025","wolfe_image-025-as","wolfe_image-025-b","wolfe_image-025-bs",369.049,-1,19,6710,429,178,"1",6.71,0.826722520168992,0,0.826722520168992
"A1KS9LITOVPAT8",NA,NA,"wolfe","image-078","wolfe_image-078-as","wolfe_image-078-b","wolfe_image-078-bs",407.639,-1,22,6720,384,162,"1",6.72,0.827369273053825,0,0.827369273053825
"A1KS9LITOVPAT8",NA,NA,"wolfe","image-107","wolfe_image-107-as","wolfe_image-107-b","wolfe_image-107-bs",425.68,-1,23,17076,239,298,"1",17.076,1.23238614613191,0,1.23238614613191
"A1KS9LITOVPAT8",NA,NA,"wolfe","image-045","wolfe_image-045-as","wolfe_image-045-b","wolfe_image-045-bs",441.586,-1,25,6774,311,401,"1",6.774,0.830845192308612,0,0.830845192308612
"A1KS9LITOVPAT8",NA,NA,"wolfe","image-097","wolfe_image-097-as","wolfe_image-097-b","wolfe_image-097-bs",460.107,-1,27,6639,112,369,"1",6.639,0.82210266864692,0,0.82210266864692
"A1KS9LITOVPAT8",NA,NA,"wolfe","image-134","wolfe_image-134-as","wolfe_image-134-b","wolfe_image-134-bs",467.673,-1,28,6823,557,330,"1",6.823,0.833975371279906,0,0.833975371279906
"A1KS9LITOVPAT8",NA,NA,"wolfe","image-005","wolfe_image-005-as","wolfe_image-005-b","wolfe_image-005-bs",481.297,-1,29,13039,373,271,"1",13.039,1.11524428532725,0,1.11524428532725
"A1KS9LITOVPAT8",NA,NA,"wolfe","image-081","wolfe_image-081-as","wolfe_image-081-b","wolfe_image-081-bs",491.055,-1,30,8776,466,372,"1",8.776,0.943296614566655,0,0.943296614566655
"A1KS9LITOVPAT8",NA,NA,"wolfe","image-099","wolfe_image-099-as","wolfe_image-099-b","wolfe_image-099-bs",501.049,-1,31,8943,572,219,"1",8.943,0.951483230752293,0,0.951483230752293
"A1KS9LITOVPAT8",NA,NA,"wolfe","image-096","wolfe_image-096-as","wolfe_image-096-b","wolfe_image-096-bs",531.607,-1,32,30081,320,368,"1",30.081,1.47829226966106,0,1.47829226966106
"A1OM5NWYYYJKQW",NA,NA,"wolfe","image-033","wolfe_image-033-as","wolfe_image-033-b","wolfe_image-033-bs",424.672,-1,5,7264,54,68,"1",7.264,0.861175835513029,0,0.861175835513029
"A1OM5NWYYYJKQW",NA,NA,"wolfe","image-004","wolfe_image-004-as","wolfe_image-004-b","wolfe_image-004-bs",433.68,-1,6,7055,181,407,"1",7.055,0.848497018090367,0,0.848497018090367
"A1OM5NWYYYJKQW",NA,NA,"wolfe","image-043","wolfe_image-043-as","wolfe_image-043-b","wolfe_image-043-bs",444.336,-1,7,8777,866,475,"1",8.777,0.943346098356591,0,0.943346098356591
"A1OM5NWYYYJKQW",NA,NA,"wolfe","image-127","wolfe_image-127-as","wolfe_image-127-b","wolfe_image-127-bs",461.274,-1,9,6864,581,263,"1",6.864,0.836577274840649,0,0.836577274840649
"A1OM5NWYYYJKQW",NA,NA,"wolfe","image-083","wolfe_image-083-as","wolfe_image-083-b","wolfe_image-083-bs",533.844,-1,12,6870,240,243,"1",6.87,0.83695673705955,0,0.83695673705955
"A1OM5NWYYYJKQW",NA,NA,"wolfe","image-117","wolfe_image-117-as","wolfe_image-117-b","wolfe_image-117-bs",542.66,-1,13,7385,189,234,"1",7.385,0.868350499647968,0,0.868350499647968
"A1OM5NWYYYJKQW",NA,NA,"wolfe","image-124","wolfe_image-124-as","wolfe_image-124-b","wolfe_image-124-bs",550.988,-1,14,6936,590,184,"1",6.936,0.841109084468154,0,0.841109084468154
"A1OM5NWYYYJKQW",NA,NA,"wolfe","image-132","wolfe_image-132-as","wolfe_image-132-b","wolfe_image-132-bs",559.036,-1,15,6886,633,289,"1",6.886,0.837967018368655,0,0.837967018368655
"A1OM5NWYYYJKQW",NA,NA,"wolfe","image-009","wolfe_image-009-as","wolfe_image-009-b","wolfe_image-009-bs",577.813,-1,17,8936,355,220,"1",8.936,0.951143160107553,0,0.951143160107553
"A1OM5NWYYYJKQW",NA,NA,"wolfe","image-098","wolfe_image-098-as","wolfe_image-098-b","wolfe_image-098-bs",619.902,-1,18,40294,272,417,"1",40.294,1.60524038209921,0,1.60524038209921
"A1OM5NWYYYJKQW",NA,NA,"wolfe","image-037","wolfe_image-037-as","wolfe_image-037-b","wolfe_image-037-bs",628.591,-1,19,6807,221,361,"1",6.807,0.832955750604598,0,0.832955750604598
"A1OM5NWYYYJKQW",NA,NA,"wolfe","image-082","wolfe_image-082-as","wolfe_image-082-b","wolfe_image-082-bs",664.274,-1,20,34206,301,239,"1",34.206,1.53410229138778,0,1.53410229138778
"A1OM5NWYYYJKQW",NA,NA,"wolfe","image-047","wolfe_image-047-as","wolfe_image-047-b","wolfe_image-047-bs",768.347,-1,24,8848,156,330,"1",8.848,0.946845113960623,0,0.946845113960623
"A1OM5NWYYYJKQW",NA,NA,"wolfe","image-093","wolfe_image-093-as","wolfe_image-093-b","wolfe_image-093-bs",782.195,-1,25,11803,237,222,"1",11.803,1.07199240712418,0,1.07199240712418
"A1OM5NWYYYJKQW",NA,NA,"wolfe","image-024","wolfe_image-024-as","wolfe_image-024-b","wolfe_image-024-bs",790.66,-1,26,6915,360,440,"1",6.915,0.839792184445329,0,0.839792184445329
"A1OM5NWYYYJKQW",NA,NA,"wolfe","image-041","wolfe_image-041-as","wolfe_image-041-b","wolfe_image-041-bs",810.004,-1,28,9095,86,401,"1",9.095,0.958802703399502,0,0.958802703399502
"A1OM5NWYYYJKQW",NA,NA,"wolfe","image-080","wolfe_image-080-as","wolfe_image-080-b","wolfe_image-080-bs",820.444,-1,29,8926,25,188,"1",8.926,0.950656882504511,0,0.950656882504511
"A1OM5NWYYYJKQW",NA,NA,"wolfe","image-131","wolfe_image-131-as","wolfe_image-131-b","wolfe_image-131-bs",877.639,-1,30,55469,359,171,"1",55.469,1.74405033645038,0,1.74405033645038
"A1OM5NWYYYJKQW",NA,NA,"wolfe","image-115","wolfe_image-115-as","wolfe_image-115-b","wolfe_image-115-bs",885.934,-1,31,6846,139,334,"1",6.846,0.835436894801858,0,0.835436894801858
"A1OM5NWYYYJKQW",NA,NA,"wolfe","image-077","wolfe_image-077-as","wolfe_image-077-b","wolfe_image-077-bs",894.359,-1,32,6782,373,327,"1",6.782,0.831357785442068,0,0.831357785442068
"A1ONTPD4RQHVYK",NA,NA,"wolfe","image-012","wolfe_image-012-as","wolfe_image-012-b","wolfe_image-012-bs",397.581,-1,13,21744,546,427,"1",21.744,1.33733943938842,0,1.33733943938842
"A1ONTPD4RQHVYK",NA,NA,"wolfe","image-042","wolfe_image-042-as","wolfe_image-042-b","wolfe_image-042-bs",696.739,-1,15,11158,213,81,"1",11.158,1.04758635707435,0,1.04758635707435
"A1ONTPD4RQHVYK",NA,NA,"wolfe","image-004","wolfe_image-004-as","wolfe_image-004-b","wolfe_image-004-bs",816.914,-1,21,13573,196,416,"1",13.573,1.13267584909296,0,1.13267584909296
"A1ONTPD4RQHVYK",NA,NA,"wolfe","image-003","wolfe_image-003-as","wolfe_image-003-b","wolfe_image-003-bs",1355.412,-1,23,12231,30,30,"1",12.231,1.08746196617182,0,1.08746196617182
"A1ONTPD4RQHVYK",NA,NA,"wolfe","image-007","wolfe_image-007-as","wolfe_image-007-b","wolfe_image-007-bs",1366.102,-1,24,10564,200,223,"1",10.564,1.02382839253489,0,1.02382839253489
"A1ONTPD4RQHVYK",NA,NA,"wolfe","image-049","wolfe_image-049-as","wolfe_image-049-b","wolfe_image-049-bs",1381.448,-1,25,15015,93,41,"1",15.015,1.176525336535,0,1.176525336535
"A1ONTPD4RQHVYK",NA,NA,"wolfe","image-019","wolfe_image-019-as","wolfe_image-019-b","wolfe_image-019-bs",1389.816,-1,26,8118,80,169,"1",8.118,0.909449046981267,0,0.909449046981267
"A1ONTPD4RQHVYK",NA,NA,"wolfe","image-083","wolfe_image-083-as","wolfe_image-083-b","wolfe_image-083-bs",1448.218,-1,31,7686,230,253,"1",7.686,0.88570038012833,0,0.88570038012833
"A1ONTPD4RQHVYK",NA,NA,"wolfe","image-114","wolfe_image-114-as","wolfe_image-114-b","wolfe_image-114-bs",1459.215,-1,32,10909,613,164,"1",10.909,1.03778494175364,0,1.03778494175364
"A1Q27X84KILQHI",NA,NA,"wolfe","image-080","wolfe_image-080-as","wolfe_image-080-b","wolfe_image-080-bs",234.488,-1,3,10794,24,187,"1",10.794,1.03318241372919,0,1.03318241372919
"A1Q27X84KILQHI",NA,NA,"wolfe","image-039","wolfe_image-039-as","wolfe_image-039-b","wolfe_image-039-bs",244.229,-1,4,8881,557,192,"1",8.881,0.948461870061284,0,0.948461870061284
"A1Q27X84KILQHI",NA,NA,"wolfe","image-014","wolfe_image-014-as","wolfe_image-014-b","wolfe_image-014-bs",254.586,-1,5,9255,66,435,"1",9.255,0.966376423088923,0,0.966376423088923
"A1Q27X84KILQHI",NA,NA,"wolfe","image-095","wolfe_image-095-as","wolfe_image-095-b","wolfe_image-095-bs",263.348,-1,6,7818,209,294,"1",7.818,0.893095666096228,0,0.893095666096228
"A1Q27X84KILQHI",NA,NA,"wolfe","image-020","wolfe_image-020-as","wolfe_image-020-b","wolfe_image-020-bs",313.28,-1,9,9085,312,341,"1",9.085,0.958324931644053,0,0.958324931644053
"A1Q27X84KILQHI",NA,NA,"wolfe","image-113","wolfe_image-113-as","wolfe_image-113-b","wolfe_image-113-bs",323.346,-1,10,9121,317,307,"1",9.121,0.960042455726842,0,0.960042455726842
"A1Q27X84KILQHI",NA,NA,"wolfe","image-040","wolfe_image-040-as","wolfe_image-040-b","wolfe_image-040-bs",340.148,-1,11,13038,122,128,"1",13.038,1.11521097670417,0,1.11521097670417
"A1Q27X84KILQHI",NA,NA,"wolfe","image-035","wolfe_image-035-as","wolfe_image-035-b","wolfe_image-035-bs",350.085,-1,12,9009,63,181,"1",9.009,0.954676586918644,0,0.954676586918644
"A1Q27X84KILQHI",NA,NA,"wolfe","image-124","wolfe_image-124-as","wolfe_image-124-b","wolfe_image-124-bs",370.953,-1,13,19780,587,197,"1",19.78,1.29622628726116,0,1.29622628726116
"A1Q27X84KILQHI",NA,NA,"wolfe","image-016","wolfe_image-016-as","wolfe_image-016-b","wolfe_image-016-bs",391.356,-1,14,19897,407,321,"1",19.897,1.29878759994424,0,1.29878759994424
"A1Q27X84KILQHI",NA,NA,"wolfe","image-090","wolfe_image-090-as","wolfe_image-090-b","wolfe_image-090-bs",405.506,-1,15,13400,100,355,"1",13.4,1.12710479836481,0,1.12710479836481
"A1Q27X84KILQHI",NA,NA,"wolfe","image-087","wolfe_image-087-as","wolfe_image-087-b","wolfe_image-087-bs",413.511,-1,16,6699,208,273,"1",6.699,0.8260099777911,0,0.8260099777911
"A1Q27X84KILQHI",NA,NA,"wolfe","image-099","wolfe_image-099-as","wolfe_image-099-b","wolfe_image-099-bs",421.772,-1,17,7126,577,225,"1",7.126,0.852845818014997,0,0.852845818014997
"A1Q27X84KILQHI",NA,NA,"wolfe","image-100","wolfe_image-100-as","wolfe_image-100-b","wolfe_image-100-bs",430.122,-1,18,7519,604,317,"1",7.519,0.876160084825628,0,0.876160084825628
"A1Q27X84KILQHI",NA,NA,"wolfe","image-107","wolfe_image-107-as","wolfe_image-107-b","wolfe_image-107-bs",440.397,-1,19,9010,248,304,"1",9.01,0.954724790979063,0,0.954724790979063
"A1Q27X84KILQHI",NA,NA,"wolfe","image-104","wolfe_image-104-as","wolfe_image-104-b","wolfe_image-104-bs",454.723,-1,20,13520,31,242,"1",13.52,1.13097669160562,0,1.13097669160562
"A1Q27X84KILQHI",NA,NA,"wolfe","image-044","wolfe_image-044-as","wolfe_image-044-b","wolfe_image-044-bs",465.005,-1,21,9403,109,334,"1",9.403,0.973266436108529,0,0.973266436108529
"A1Q27X84KILQHI",NA,NA,"wolfe","image-046","wolfe_image-046-as","wolfe_image-046-b","wolfe_image-046-bs",475.724,-1,22,9012,62,482,"1",9.012,0.954821183051793,0,0.954821183051793
"A1Q27X84KILQHI",NA,NA,"wolfe","image-083","wolfe_image-083-as","wolfe_image-083-b","wolfe_image-083-bs",483.396,-1,23,6795,228,251,"1",6.795,0.832189461068513,0,0.832189461068513
"A1Q27X84KILQHI",NA,NA,"wolfe","image-024","wolfe_image-024-as","wolfe_image-024-b","wolfe_image-024-bs",492.798,-1,24,8828,361,427,"1",8.828,0.945862324489617,0,0.945862324489617
"A1Q27X84KILQHI",NA,NA,"wolfe","image-008","wolfe_image-008-as","wolfe_image-008-b","wolfe_image-008-bs",502.508,-1,25,9005,546,119,"1",9.005,0.954483717155552,0,0.954483717155552
"A1Q27X84KILQHI",NA,NA,"wolfe","image-041","wolfe_image-041-as","wolfe_image-041-b","wolfe_image-041-bs",512.249,-1,26,8570,83,385,"1",8.57,0.932980821923198,0,0.932980821923198
"A1Q27X84KILQHI",NA,NA,"wolfe","image-094","wolfe_image-094-as","wolfe_image-094-b","wolfe_image-094-bs",521.015,-1,27,6997,232,212,"1",6.997,0.844911873912141,0,0.844911873912141
"A1Q27X84KILQHI",NA,NA,"wolfe","image-120","wolfe_image-120-as","wolfe_image-120-b","wolfe_image-120-bs",529.046,-1,28,7271,534,351,"1",7.271,0.861594144643865,0,0.861594144643865
"A1Q27X84KILQHI",NA,NA,"wolfe","image-001","wolfe_image-001-as","wolfe_image-001-b","wolfe_image-001-bs",538.41,-1,29,8842,138,351,"1",8.842,0.946550510569855,0,0.946550510569855
"A1Q27X84KILQHI",NA,NA,"wolfe","image-023","wolfe_image-023-as","wolfe_image-023-b","wolfe_image-023-bs",548.749,-1,30,9016,88,402,"1",9.016,0.95501390303805,0,0.95501390303805
"A1Q27X84KILQHI",NA,NA,"wolfe","image-033","wolfe_image-033-as","wolfe_image-033-b","wolfe_image-033-bs",562.37,-1,31,12853,58,79,"1",12.853,1.10900450754138,0,1.10900450754138
"A1Q27X84KILQHI",NA,NA,"wolfe","image-013","wolfe_image-013-as","wolfe_image-013-b","wolfe_image-013-bs",571.828,-1,32,8883,74,53,"1",8.883,0.948559662108962,0,0.948559662108962
"A1QKIA8XRNEXIG",NA,NA,"wolfe","image-135","wolfe_image-135-as","wolfe_image-135-b","wolfe_image-135-bs",67.351,-1,3,23333,420,180,"1",23.333,1.36797058104339,0,1.36797058104339
"A1QKIA8XRNEXIG",NA,NA,"wolfe","image-106","wolfe_image-106-as","wolfe_image-106-b","wolfe_image-106-bs",82.859,-1,4,13157,458,147,"1",13.157,1.1191568746903,0,1.1191568746903
"A1QKIA8XRNEXIG",NA,NA,"wolfe","image-019","wolfe_image-019-as","wolfe_image-019-b","wolfe_image-019-bs",91.883,-1,5,6808,56,184,"1",6.808,0.833019547076531,0,0.833019547076531
"A1QKIA8XRNEXIG",NA,NA,"wolfe","image-049","wolfe_image-049-as","wolfe_image-049-b","wolfe_image-049-bs",111.121,-1,6,17353,119,71,"1",17.353,1.23937456678208,0,1.23937456678208
"A1QKIA8XRNEXIG",NA,NA,"wolfe","image-127","wolfe_image-127-as","wolfe_image-127-b","wolfe_image-127-bs",136.566,-1,7,23395,586,269,"1",23.395,1.3691230495282,0,1.3691230495282
"A1QKIA8XRNEXIG",NA,NA,"wolfe","image-092","wolfe_image-092-as","wolfe_image-092-b","wolfe_image-092-bs",147.204,-1,8,8461,82,371,"1",8.461,0.927421695050419,0,0.927421695050419
"A1QKIA8XRNEXIG",NA,NA,"wolfe","image-014","wolfe_image-014-as","wolfe_image-014-b","wolfe_image-014-bs",159.722,-1,9,10582,60,440,"1",10.582,1.02456775719604,0,1.02456775719604
"A1QKIA8XRNEXIG",NA,NA,"wolfe","image-022","wolfe_image-022-as","wolfe_image-022-b","wolfe_image-022-bs",170.368,-1,10,8777,198,280,"1",8.777,0.943346098356591,0,0.943346098356591
"A1QKIA8XRNEXIG",NA,NA,"wolfe","image-123","wolfe_image-123-as","wolfe_image-123-b","wolfe_image-123-bs",198.065,-1,12,10584,68,359,"1",10.584,1.02464983117944,0,1.02464983117944
"A1QKIA8XRNEXIG",NA,NA,"wolfe","image-089","wolfe_image-089-as","wolfe_image-089-b","wolfe_image-089-bs",185.428,-1,11,12747,405,358,"1",12.747,1.10540798580918,0,1.10540798580918
"A1QKIA8XRNEXIG",NA,NA,"wolfe","image-091","wolfe_image-091-as","wolfe_image-091-b","wolfe_image-091-bs",228.145,-1,13,29080,458,371,"1",29.08,1.463594402187,0,1.463594402187
"A1QKIA8XRNEXIG",NA,NA,"wolfe","image-021","wolfe_image-021-as","wolfe_image-021-b","wolfe_image-021-bs",242.381,-1,14,12624,376,302,"1",12.624,1.10119698586535,0,1.10119698586535
"A1QKIA8XRNEXIG",NA,NA,"wolfe","image-015","wolfe_image-015-as","wolfe_image-015-b","wolfe_image-015-bs",260.212,-1,15,14709,153,270,"1",14.709,1.16758314796584,0,1.16758314796584
"A1QKIA8XRNEXIG",NA,NA,"wolfe","image-111","wolfe_image-111-as","wolfe_image-111-b","wolfe_image-111-bs",268.702,-1,16,6726,228,243,"1",6.726,0.827756862978617,0,0.827756862978617
"A1QKIA8XRNEXIG",NA,NA,"wolfe","image-041","wolfe_image-041-as","wolfe_image-041-b","wolfe_image-041-bs",277.847,-1,17,7035,82,376,"1",7.035,0.847264101770764,0,0.847264101770764
"A1QKIA8XRNEXIG",NA,NA,"wolfe","image-097","wolfe_image-097-as","wolfe_image-097-b","wolfe_image-097-bs",293.038,-1,18,12875,106,368,"1",12.875,1.10974723771323,0,1.10974723771323
"A1QKIA8XRNEXIG",NA,NA,"wolfe","image-132","wolfe_image-132-as","wolfe_image-132-b","wolfe_image-132-bs",304.584,-1,19,10556,632,289,"1",10.556,1.02349938154801,0,1.02349938154801
"A1QKIA8XRNEXIG",NA,NA,"wolfe","image-009","wolfe_image-009-as","wolfe_image-009-b","wolfe_image-009-bs",322.81,-1,20,17114,353,217,"1",17.114,1.23335152765327,0,1.23335152765327
"A1QKIA8XRNEXIG",NA,NA,"wolfe","image-103","wolfe_image-103-as","wolfe_image-103-b","wolfe_image-103-bs",332.434,-1,21,8639,149,341,"1",8.639,0.936463474004747,0,0.936463474004747
"A1QKIA8XRNEXIG",NA,NA,"wolfe","image-031","wolfe_image-031-as","wolfe_image-031-b","wolfe_image-031-bs",344.114,-1,22,10623,174,265,"1",10.623,1.02624718147777,0,1.02624718147777
"A1QKIA8XRNEXIG",NA,NA,"wolfe","image-117","wolfe_image-117-as","wolfe_image-117-b","wolfe_image-117-bs",351.698,-1,23,6902,197,233,"1",6.902,0.838974954955468,0,0.838974954955468
"A1QKIA8XRNEXIG",NA,NA,"wolfe","image-131","wolfe_image-131-as","wolfe_image-131-b","wolfe_image-131-bs",367.221,-1,25,6705,360,172,"1",6.705,0.826398782187618,0,0.826398782187618
"A1QKIA8XRNEXIG",NA,NA,"wolfe","image-108","wolfe_image-108-as","wolfe_image-108-b","wolfe_image-108-bs",382.641,-1,26,14885,265,177,"1",14.885,1.17274883898274,0,1.17274883898274
"A1QKIA8XRNEXIG",NA,NA,"wolfe","image-100","wolfe_image-100-as","wolfe_image-100-b","wolfe_image-100-bs",389.835,-1,27,6664,603,330,"1",6.664,0.823734988398731,0,0.823734988398731
"A1QKIA8XRNEXIG",NA,NA,"wolfe","image-110","wolfe_image-110-as","wolfe_image-110-b","wolfe_image-110-bs",431.468,-1,29,31936,610,236,"1",31.936,1.50428051960728,0,1.50428051960728
"A1QKIA8XRNEXIG",NA,NA,"wolfe","image-113","wolfe_image-113-as","wolfe_image-113-b","wolfe_image-113-bs",439.072,-1,30,6763,320,303,"1",6.763,0.830139387425343,0,0.830139387425343
"A1QKIA8XRNEXIG",NA,NA,"wolfe","image-094","wolfe_image-094-as","wolfe_image-094-b","wolfe_image-094-bs",447.004,-1,31,6689,235,216,"1",6.689,0.825361195952633,0,0.825361195952633
"A1QKIA8XRNEXIG",NA,NA,"wolfe","image-011","wolfe_image-011-as","wolfe_image-011-b","wolfe_image-011-bs",454.436,-1,32,6612,441,253,"1",6.612,0.82033284489941,0,0.82033284489941
"A1RKGN3VY39TM1",NA,NA,"wolfe","image-012","wolfe_image-012-as","wolfe_image-012-b","wolfe_image-012-bs",75.433,-1,6,7038,526,418,"1",7.038,0.847449262499173,0,0.847449262499173
"A1RKGN3VY39TM1",NA,NA,"wolfe","image-077","wolfe_image-077-as","wolfe_image-077-b","wolfe_image-077-bs",92.88,-1,8,7026,378,311,"1",7.026,0.846708145456007,0,0.846708145456007
"A1RKGN3VY39TM1",NA,NA,"wolfe","image-020","wolfe_image-020-as","wolfe_image-020-b","wolfe_image-020-bs",138.83,-1,13,6815,309,332,"1",6.815,0.833465860170692,0,0.833465860170692
"A1RKGN3VY39TM1",NA,NA,"wolfe","image-128","wolfe_image-128-as","wolfe_image-128-b","wolfe_image-128-bs",214.996,-1,21,12861,457,458,"1",12.861,1.1092747382303,0,1.1092747382303
"A1RKGN3VY39TM1",NA,NA,"wolfe","image-100","wolfe_image-100-as","wolfe_image-100-b","wolfe_image-100-bs",229.146,-1,22,12756,608,316,"1",12.756,1.10571451057092,0,1.10571451057092
"A1RKGN3VY39TM1",NA,NA,"wolfe","image-133","wolfe_image-133-as","wolfe_image-133-b","wolfe_image-133-bs",237.82,-1,23,6646,468,177,"1",6.646,0.822560336942692,0,0.822560336942692
"A1RKGN3VY39TM1",NA,NA,"wolfe","image-123","wolfe_image-123-as","wolfe_image-123-b","wolfe_image-123-bs",271.831,-1,26,12944,74,353,"1",12.944,1.1120685042682,0,1.1120685042682
"A1RKGN3VY39TM1",NA,NA,"wolfe","image-007","wolfe_image-007-as","wolfe_image-007-b","wolfe_image-007-bs",281.541,-1,27,8561,184,225,"1",8.561,0.932524497050542,0,0.932524497050542
"A1RKGN3VY39TM1",NA,NA,"wolfe","image-002","wolfe_image-002-as","wolfe_image-002-b","wolfe_image-002-bs",289.783,-1,28,6702,284,228,"1",6.702,0.826204423499253,0,0.826204423499253
"A1RKGN3VY39TM1",NA,NA,"wolfe","image-076","wolfe_image-076-as","wolfe_image-076-b","wolfe_image-076-bs",306.657,-1,30,6701,216,97,"1",6.701,0.826139617935915,0,0.826139617935915
"A1RKGN3VY39TM1",NA,NA,"wolfe","image-026","wolfe_image-026-as","wolfe_image-026-b","wolfe_image-026-bs",338.068,-1,32,6787,165,294,"1",6.787,0.831677849191467,0,0.831677849191467
"A1SRJKD5QTAOM",NA,NA,"wolfe","image-119","wolfe_image-119-as","wolfe_image-119-b","wolfe_image-119-bs",60.818,-1,3,16089,65,358,"1",16.089,1.20652905168273,0,1.20652905168273
"A1SRJKD5QTAOM",NA,NA,"wolfe","image-078","wolfe_image-078-as","wolfe_image-078-b","wolfe_image-078-bs",93.882,-1,5,7163,396,168,"1",7.163,0.855094951158622,0,0.855094951158622
"A1SRJKD5QTAOM",NA,NA,"wolfe","image-041","wolfe_image-041-as","wolfe_image-041-b","wolfe_image-041-bs",108.593,-1,6,13382,73,383,"1",13.382,1.12652102554341,0,1.12652102554341
"A1SRJKD5QTAOM",NA,NA,"wolfe","image-030","wolfe_image-030-as","wolfe_image-030-b","wolfe_image-030-bs",119.469,-1,7,9244,441,263,"1",9.244,0.965859936807072,0,0.965859936807072
"A1SRJKD5QTAOM",NA,NA,"wolfe","image-083","wolfe_image-083-as","wolfe_image-083-b","wolfe_image-083-bs",140.043,-1,8,19044,235,251,"1",19.044,1.27975817280247,0,1.27975817280247
"A1SRJKD5QTAOM",NA,NA,"wolfe","image-109","wolfe_image-109-as","wolfe_image-109-b","wolfe_image-109-bs",149.774,-1,9,8719,167,249,"1",8.719,0.940466677663529,0,0.940466677663529
"A1SRJKD5QTAOM",NA,NA,"wolfe","image-010","wolfe_image-010-as","wolfe_image-010-b","wolfe_image-010-bs",159.913,-1,10,8813,70,152,"1",8.813,0.945123770122119,0,0.945123770122119
"A1SRJKD5QTAOM",NA,NA,"wolfe","image-128","wolfe_image-128-as","wolfe_image-128-b","wolfe_image-128-bs",189.287,-1,11,27647,460,460,"1",27.647,1.44164801252565,0,1.44164801252565
"A1SRJKD5QTAOM",NA,NA,"wolfe","image-049","wolfe_image-049-as","wolfe_image-049-b","wolfe_image-049-bs",199.282,-1,12,8934,131,63,"1",8.934,0.95104594813582,0,0.95104594813582
"A1SRJKD5QTAOM",NA,NA,"wolfe","image-117","wolfe_image-117-as","wolfe_image-117-b","wolfe_image-117-bs",211.37,-1,13,10692,191,233,"1",10.692,1.0290589500845,0,1.0290589500845
"A1SRJKD5QTAOM",NA,NA,"wolfe","image-136","wolfe_image-136-as","wolfe_image-136-b","wolfe_image-136-bs",219.105,-1,14,6731,110,341,"1",6.731,0.828079590556746,0,0.828079590556746
"A1SRJKD5QTAOM",NA,NA,"wolfe","image-127","wolfe_image-127-as","wolfe_image-127-b","wolfe_image-127-bs",228.04,-1,15,7558,579,258,"1",7.558,0.878406887580996,0,0.878406887580996
"A1SRJKD5QTAOM",NA,NA,"wolfe","image-076","wolfe_image-076-as","wolfe_image-076-b","wolfe_image-076-bs",275.842,-1,16,46522,212,87,"1",46.522,1.66765837695695,0,1.66765837695695
