"workerId","assignmentId","hitId","database","image","unmod_image_splash","mod_image","mod_image_splash","expTimer","response","trial_number","rt","x","y","click_acc","rt_s","log_rt","outliers","removed_RT"
"A10Z4QVBJIA914",NA,NA,"wolfe","103_R_hook","wolfe_103_R_hook-as","wolfe_103_R_hook-b","wolfe_103_R_hook-bs",80.444,-1,3,13234,647,98,"1",13.234,1.12169113030758,0,1.12169113030758
"A10Z4QVBJIA914",NA,NA,"wolfe","060_R_pillow","wolfe_060_R_pillow-as","wolfe_060_R_pillow-b","wolfe_060_R_pillow-bs",181.149,-1,14,8056,394,290,"1",8.056,0.906119457545562,0,0.906119457545562
"A10Z4QVBJIA914",NA,NA,"wolfe","040_R_painting","wolfe_040_R_painting-as","wolfe_040_R_painting-b","wolfe_040_R_painting-bs",221.926,-1,18,7695,511,92,"1",7.695,0.886208624167498,0,0.886208624167498
"A10Z4QVBJIA914",NA,NA,"wolfe","062_R_flowers","wolfe_062_R_flowers-as","wolfe_062_R_flowers-b","wolfe_062_R_flowers-bs",251.043,-1,21,7441,565,276,"1",7.441,0.871631304537554,0,0.871631304537554
"A10Z4QVBJIA914",NA,NA,"wolfe","016_R_art","wolfe_016_R_art-as","wolfe_016_R_art-b","wolfe_016_R_art-bs",269.558,-1,23,6758,621,195,"1",6.758,0.829818187438877,0,0.829818187438877
"A10Z4QVBJIA914",NA,NA,"wolfe","070_R_lamp","wolfe_070_R_lamp-as","wolfe_070_R_lamp-b","wolfe_070_R_lamp-bs",278.315,-1,24,7084,613,148,"1",7.084,0.850278552518037,0,0.850278552518037
"A10Z4QVBJIA914",NA,NA,"wolfe","128_R_pot","wolfe_128_R_pot-as","wolfe_128_R_pot-b","wolfe_128_R_pot-bs",350.008,-1,31,7503,500,243,"1",7.503,0.875234946450165,0,0.875234946450165
"A10ZW7G8U02Y78",NA,NA,"wolfe","056_L_comforter","wolfe_056_L_comforter-as","wolfe_056_L_comforter-b","wolfe_056_L_comforter-bs",76.902,-1,4,10939,158,331,"1",10.939,1.03897762233269,0,1.03897762233269
"A10ZW7G8U02Y78",NA,NA,"wolfe","068_L_faucet","wolfe_068_L_faucet-as","wolfe_068_L_faucet-b","wolfe_068_L_faucet-bs",91.214,-1,5,12809,288,301,"1",12.809,1.10751522565146,0,1.10751522565146
"A10ZW7G8U02Y78",NA,NA,"wolfe","075_L_light","wolfe_075_L_light-as","wolfe_075_L_light-b","wolfe_075_L_light-bs",116.804,-1,7,17043,141,56,"1",17.043,1.23154604399692,0,1.23154604399692
"A10ZW7G8U02Y78",NA,NA,"wolfe","120_L_art","wolfe_120_L_art-as","wolfe_120_L_art-b","wolfe_120_L_art-bs",127.738,-1,8,10614,217,150,"1",10.614,1.02587908329337,0,1.02587908329337
"A10ZW7G8U02Y78",NA,NA,"wolfe","074_L_book","wolfe_074_L_book-as","wolfe_074_L_book-b","wolfe_074_L_book-bs",139.424,-1,9,10838,251,319,"1",10.838,1.03494914667637,0,1.03494914667637
"A10ZW7G8U02Y78",NA,NA,"wolfe","087_L_towelhandle","wolfe_087_L_towelhandle-as","wolfe_087_L_towelhandle-b","wolfe_087_L_towelhandle-bs",149.153,-1,10,8876,48,332,"1",8.876,0.948217293559971,0,0.948217293559971
"A10ZW7G8U02Y78",NA,NA,"wolfe","005_L_mirror","wolfe_005_L_mirror-as","wolfe_005_L_mirror-b","wolfe_005_L_mirror-bs",156.784,-1,11,6889,150,223,"1",6.889,0.838156184752148,0,0.838156184752148
"A10ZW7G8U02Y78",NA,NA,"wolfe","011_L_parfum","wolfe_011_L_parfum-as","wolfe_011_L_parfum-b","wolfe_011_L_parfum-bs",168.493,-1,12,10879,278,334,"1",10.879,1.0365889767554,0,1.0365889767554
"A10ZW7G8U02Y78",NA,NA,"wolfe","090_L_lamp","wolfe_090_L_lamp-as","wolfe_090_L_lamp-b","wolfe_090_L_lamp-bs",178.217,-1,13,9343,223,292,"1",9.343,0.97048634884765,0,0.97048634884765
"A10ZW7G8U02Y78",NA,NA,"wolfe","008_L_bottle","wolfe_008_L_bottle-as","wolfe_008_L_bottle-b","wolfe_008_L_bottle-bs",187.441,-1,14,8743,82,303,"1",8.743,0.941660478388392,0,0.941660478388392
"A10ZW7G8U02Y78",NA,NA,"wolfe","054_L_firewood","wolfe_054_L_firewood-as","wolfe_054_L_firewood-b","wolfe_054_L_firewood-bs",196.559,-1,15,8623,28,314,"1",8.623,0.935658386100634,0,0.935658386100634
"A10ZW7G8U02Y78",NA,NA,"wolfe","035_L_fruit","wolfe_035_L_fruit-as","wolfe_035_L_fruit-b","wolfe_035_L_fruit-bs",204.311,-1,16,7055,138,284,"1",7.055,0.848497018090367,0,0.848497018090367
"A10ZW7G8U02Y78",NA,NA,"wolfe","114_L_bird","wolfe_114_L_bird-as","wolfe_114_L_bird-b","wolfe_114_L_bird-bs",223.341,-1,18,8825,291,352,"1",8.825,0.94571471405986,0,0.94571471405986
"A10ZW7G8U02Y78",NA,NA,"wolfe","051_L_owl","wolfe_051_L_owl-as","wolfe_051_L_owl-b","wolfe_051_L_owl-bs",230.82,-1,19,6880,273,298,"1",6.88,0.837588438235511,0,0.837588438235511
"A10ZW7G8U02Y78",NA,NA,"wolfe","004_L_electricalgrid","wolfe_004_L_electricalgrid-as","wolfe_004_L_electricalgrid-b","wolfe_004_L_electricalgrid-bs",240.473,-1,20,8800,242,34,"1",8.8,0.944482672150169,0,0.944482672150169
"A10ZW7G8U02Y78",NA,NA,"wolfe","040_L_painting","wolfe_040_L_painting-as","wolfe_040_L_painting-b","wolfe_040_L_painting-bs",247.686,-1,21,6808,135,83,"1",6.808,0.833019547076531,0,0.833019547076531
"A10ZW7G8U02Y78",NA,NA,"wolfe","096_L_painting","wolfe_096_L_painting-as","wolfe_096_L_painting-b","wolfe_096_L_painting-bs",256.635,-1,22,8668,63,217,"1",8.668,0.93791890264778,0,0.93791890264778
"A10ZW7G8U02Y78",NA,NA,"wolfe","023_L_remote","wolfe_023_L_remote-as","wolfe_023_L_remote-b","wolfe_023_L_remote-bs",274.039,-1,24,7139,226,460,"1",7.139,0.853637381958594,0,0.853637381958594
"A10ZW7G8U02Y78",NA,NA,"wolfe","128_L_pot","wolfe_128_L_pot-as","wolfe_128_L_pot-b","wolfe_128_L_pot-bs",283.756,-1,25,8818,154,251,"1",8.818,0.945370094490304,0,0.945370094490304
"A10ZW7G8U02Y78",NA,NA,"wolfe","101_L_cup","wolfe_101_L_cup-as","wolfe_101_L_cup-b","wolfe_101_L_cup-bs",291.34,-1,26,6841,325,142,"1",6.841,0.83511959042455,0,0.83511959042455
"A10ZW7G8U02Y78",NA,NA,"wolfe","121_L_car","wolfe_121_L_car-as","wolfe_121_L_car-b","wolfe_121_L_car-bs",300.273,-1,27,8586,45,348,"1",8.586,0.93379088414342,0,0.93379088414342
"A10ZW7G8U02Y78",NA,NA,"wolfe","107_L_shirts","wolfe_107_L_shirts-as","wolfe_107_L_shirts-b","wolfe_107_L_shirts-bs",311.105,-1,28,10557,134,278,"1",10.557,1.02354052155485,0,1.02354052155485
"A10ZW7G8U02Y78",NA,NA,"wolfe","088_L_clock","wolfe_088_L_clock-as","wolfe_088_L_clock-b","wolfe_088_L_clock-bs",328.75,-1,29,17095,253,75,"1",17.095,1.23286910513261,0,1.23286910513261
"A10ZW7G8U02Y78",NA,NA,"wolfe","002_L_napkin","wolfe_002_L_napkin-as","wolfe_002_L_napkin-b","wolfe_002_L_napkin-bs",338.004,-1,30,8718,265,404,"1",8.718,0.940416864681665,0,0.940416864681665
"A10ZW7G8U02Y78",NA,NA,"wolfe","117_L_plant_sized","wolfe_117_L_plant_sized-as","wolfe_117_L_plant_sized-b","wolfe_117_L_plant_sized-bs",359.148,-1,32,10637,64,326,"1",10.637,1.02681915924123,0,1.02681915924123
"A110KENBXU7SUJ",NA,NA,"wolfe","100_L_mirror","wolfe_100_L_mirror-as","wolfe_100_L_mirror-b","wolfe_100_L_mirror-bs",47.27,-1,3,6724,312,283,"1",6.724,0.827627704767433,0,0.827627704767433
"A110KENBXU7SUJ",NA,NA,"wolfe","128_L_pot","wolfe_128_L_pot-as","wolfe_128_L_pot-b","wolfe_128_L_pot-bs",66.685,-1,5,8471,162,252,"1",8.471,0.927934681741179,0,0.927934681741179
"A110KENBXU7SUJ",NA,NA,"wolfe","006_L_vase","wolfe_006_L_vase-as","wolfe_006_L_vase-b","wolfe_006_L_vase-bs",76.307,-1,6,9040,181,253,"1",9.04,0.956168430475363,0,0.956168430475363
"A110KENBXU7SUJ",NA,NA,"wolfe","125_L_sofa","wolfe_125_L_sofa-as","wolfe_125_L_sofa-b","wolfe_125_L_sofa-bs",86.352,-1,7,9619,88,347,"1",9.619,0.9831299247347,0,0.9831299247347
"A110KENBXU7SUJ",NA,NA,"wolfe","060_L_pillow","wolfe_060_L_pillow-as","wolfe_060_L_pillow-b","wolfe_060_L_pillow-bs",93.961,-1,8,6877,272,295,"1",6.877,0.837399024342023,0,0.837399024342023
"A110KENBXU7SUJ",NA,NA,"wolfe","028_L_vase","wolfe_028_L_vase-as","wolfe_028_L_vase-b","wolfe_028_L_vase-bs",105.379,-1,9,10917,179,300,"1",10.917,1.0381033103059,0,1.0381033103059
"A110KENBXU7SUJ",NA,NA,"wolfe","057_L_bin","wolfe_057_L_bin-as","wolfe_057_L_bin-b","wolfe_057_L_bin-bs",118.981,-1,10,12747,263,339,"1",12.747,1.10540798580918,0,1.10540798580918
"A110KENBXU7SUJ",NA,NA,"wolfe","102_L_shoppingbag","wolfe_102_L_shoppingbag-as","wolfe_102_L_shoppingbag-b","wolfe_102_L_shoppingbag-bs",128.566,-1,11,9016,201,372,"1",9.016,0.95501390303805,0,0.95501390303805
"A110KENBXU7SUJ",NA,NA,"wolfe","045_L_musicdock","wolfe_045_L_musicdock-as","wolfe_045_L_musicdock-b","wolfe_045_L_musicdock-bs",138.133,-1,12,8879,86,266,"1",8.879,0.948364055988369,0,0.948364055988369
"A110KENBXU7SUJ",NA,NA,"wolfe","023_L_remote","wolfe_023_L_remote-as","wolfe_023_L_remote-b","wolfe_023_L_remote-bs",148.091,-1,13,9304,230,452,"1",9.304,0.968669701720392,0,0.968669701720392
"A110KENBXU7SUJ",NA,NA,"wolfe","054_L_firewood","wolfe_054_L_firewood-as","wolfe_054_L_firewood-b","wolfe_054_L_firewood-bs",155.467,-1,14,6802,33,318,"1",6.802,0.832636627596703,0,0.832636627596703
"A110KENBXU7SUJ",NA,NA,"wolfe","126_L_candles","wolfe_126_L_candles-as","wolfe_126_L_candles-b","wolfe_126_L_candles-bs",181.693,-1,16,9183,29,293,"1",9.183,0.962984584316997,0,0.962984584316997
"A110KENBXU7SUJ",NA,NA,"wolfe","058_L_clutch","wolfe_058_L_clutch-as","wolfe_058_L_clutch-b","wolfe_058_L_clutch-bs",222.457,-1,19,8609,208,374,"1",8.609,0.934952707817858,0,0.934952707817858
"A110KENBXU7SUJ",NA,NA,"wolfe","084_L_light","wolfe_084_L_light-as","wolfe_084_L_light-b","wolfe_084_L_light-bs",233.677,-1,20,10758,136,141,"1",10.758,1.03173153994583,0,1.03173153994583
"A110KENBXU7SUJ",NA,NA,"wolfe","107_L_shirts","wolfe_107_L_shirts-as","wolfe_107_L_shirts-b","wolfe_107_L_shirts-bs",243.503,-1,21,9076,140,266,"1",9.076,0.957894487212898,0,0.957894487212898
"A110KENBXU7SUJ",NA,NA,"wolfe","105_L_hat","wolfe_105_L_hat-as","wolfe_105_L_hat-b","wolfe_105_L_hat-bs",253.612,-1,22,8725,119,437,"1",8.725,0.940765435631218,0,0.940765435631218
"A110KENBXU7SUJ",NA,NA,"wolfe","065_L_cd","wolfe_065_L_cd-as","wolfe_065_L_cd-b","wolfe_065_L_cd-bs",265.089,-1,23,10921,187,194,"1",10.921,1.03826240710478,0,1.03826240710478
"A110KENBXU7SUJ",NA,NA,"wolfe","073_L_coffeemug","wolfe_073_L_coffeemug-as","wolfe_073_L_coffeemug-b","wolfe_073_L_coffeemug-bs",275.038,-1,24,8685,39,229,"1",8.685,0.938769822783117,0,0.938769822783117
"A110KENBXU7SUJ",NA,NA,"wolfe","009_L_carpet","wolfe_009_L_carpet-as","wolfe_009_L_carpet-b","wolfe_009_L_carpet-bs",282.344,-1,25,6871,234,451,"1",6.871,0.837019948540908,0,0.837019948540908
"A110KENBXU7SUJ",NA,NA,"wolfe","040_L_painting","wolfe_040_L_painting-as","wolfe_040_L_painting-b","wolfe_040_L_painting-bs",294.229,-1,26,11015,137,83,"1",11.015,1.04198450148679,0,1.04198450148679
"A110KENBXU7SUJ",NA,NA,"wolfe","022_L_lamp","wolfe_022_L_lamp-as","wolfe_022_L_lamp-b","wolfe_022_L_lamp-bs",303.257,-1,27,8664,234,69,"1",8.664,0.937718443617264,0,0.937718443617264
"A110KENBXU7SUJ",NA,NA,"wolfe","115_L_pot","wolfe_115_L_pot-as","wolfe_115_L_pot-b","wolfe_115_L_pot-bs",319.299,-1,29,6717,123,231,"1",6.717,0.827175348298693,0,0.827175348298693
"A110KENBXU7SUJ",NA,NA,"wolfe","014_L_lamp","wolfe_014_L_lamp-as","wolfe_014_L_lamp-b","wolfe_014_L_lamp-bs",327.322,-1,30,6995,173,117,"1",6.995,0.844787718827846,0,0.844787718827846
"A110KENBXU7SUJ",NA,NA,"wolfe","036_L_bowl","wolfe_036_L_bowl-as","wolfe_036_L_bowl-b","wolfe_036_L_bowl-bs",336.548,-1,31,6635,306,203,"1",6.635,0.821840927200454,0,0.821840927200454
"A110KENBXU7SUJ",NA,NA,"wolfe","109_L_pillow","wolfe_109_L_pillow-as","wolfe_109_L_pillow-b","wolfe_109_L_pillow-bs",350.489,-1,32,13202,268,294,"1",13.202,1.12063972841557,0,1.12063972841557
"A11MCPY8W4U6FL",NA,NA,"wolfe","066_L_vase","wolfe_066_L_vase-as","wolfe_066_L_vase-b","wolfe_066_L_vase-bs",108.827,-1,6,12666,73,168,"1",12.666,1.1026394836913,0,1.1026394836913
"A11MCPY8W4U6FL",NA,NA,"wolfe","033_L_vase","wolfe_033_L_vase-as","wolfe_033_L_vase-b","wolfe_033_L_vase-bs",117.045,-1,7,7564,78,199,"1",7.564,0.878751520173002,0,0.878751520173002
"A11MCPY8W4U6FL",NA,NA,"wolfe","116_L_basket","wolfe_116_L_basket-as","wolfe_116_L_basket-b","wolfe_116_L_basket-bs",127.123,-1,8,9380,125,434,"1",9.38,0.972202838379065,0,0.972202838379065
"A11MCPY8W4U6FL",NA,NA,"wolfe","051_L_owl","wolfe_051_L_owl-as","wolfe_051_L_owl-b","wolfe_051_L_owl-bs",137.274,-1,9,9141,271,297,"1",9.141,0.960993708942336,0,0.960993708942336
"A11MCPY8W4U6FL",NA,NA,"wolfe","065_L_cd","wolfe_065_L_cd-as","wolfe_065_L_cd-b","wolfe_065_L_cd-bs",171.658,-1,11,8818,182,191,"1",8.818,0.945370094490304,0,0.945370094490304
"A11MCPY8W4U6FL",NA,NA,"wolfe","061_L_glass","wolfe_061_L_glass-as","wolfe_061_L_glass-b","wolfe_061_L_glass-bs",179.732,-1,12,7078,248,212,"1",7.078,0.849910558301496,0,0.849910558301496
"A11MCPY8W4U6FL",NA,NA,"wolfe","049_L_painting","wolfe_049_L_painting-as","wolfe_049_L_painting-b","wolfe_049_L_painting-bs",223.962,-1,14,10008,139,124,"1",10.008,1.00034729668536,0,1.00034729668536
"A11MCPY8W4U6FL",NA,NA,"wolfe","070_L_lamp","wolfe_070_L_lamp-as","wolfe_070_L_lamp-b","wolfe_070_L_lamp-bs",235.742,-1,15,11150,69,153,"1",11.15,1.04727486738418,0,1.04727486738418
"A11MCPY8W4U6FL",NA,NA,"wolfe","007_L_soap","wolfe_007_L_soap-as","wolfe_007_L_soap-b","wolfe_007_L_soap-bs",267.33,-1,17,11052,165,475,"1",11.052,1.04344087624447,0,1.04344087624447
"A11MCPY8W4U6FL",NA,NA,"wolfe","112_L_basket","wolfe_112_L_basket-as","wolfe_112_L_basket-b","wolfe_112_L_basket-bs",277.595,-1,18,9524,57,390,"1",9.524,0.978819386732842,0,0.978819386732842
"A11MCPY8W4U6FL",NA,NA,"wolfe","040_L_painting","wolfe_040_L_painting-as","wolfe_040_L_painting-b","wolfe_040_L_painting-bs",301.361,-1,20,7347,131,85,"1",7.347,0.866110039844377,0,0.866110039844377
"A11MCPY8W4U6FL",NA,NA,"wolfe","016_L_art","wolfe_016_L_art-as","wolfe_016_L_art-b","wolfe_016_L_art-bs",319.218,-1,22,9606,49,198,"1",9.606,0.982542582302943,0,0.982542582302943
"A11MCPY8W4U6FL",NA,NA,"wolfe","089_L_poster","wolfe_089_L_poster-as","wolfe_089_L_poster-b","wolfe_089_L_poster-bs",326.675,-1,23,6982,298,122,"1",6.982,0.84397984447816,0,0.84397984447816
"A11MCPY8W4U6FL",NA,NA,"wolfe","054_L_firewood","wolfe_054_L_firewood-as","wolfe_054_L_firewood-b","wolfe_054_L_firewood-bs",334.466,-1,24,7212,38,311,"1",7.212,0.858055718050364,0,0.858055718050364
"A11MCPY8W4U6FL",NA,NA,"wolfe","097_L_light","wolfe_097_L_light-as","wolfe_097_L_light-b","wolfe_097_L_light-bs",368.604,-1,28,8948,328,167,"1",8.948,0.951725975424592,0,0.951725975424592
"A11MCPY8W4U6FL",NA,NA,"wolfe","060_L_pillow","wolfe_060_L_pillow-as","wolfe_060_L_pillow-b","wolfe_060_L_pillow-bs",400.337,-1,32,8997,266,294,"1",8.997,0.95409772047919,0,0.95409772047919
"A11PIARI7WALAX",NA,NA,"wolfe","097_L_light","wolfe_097_L_light-as","wolfe_097_L_light-b","wolfe_097_L_light-bs",56.319,-1,3,6966,323,176,"1",6.966,0.842983470122218,0,0.842983470122218
"A11PIARI7WALAX",NA,NA,"wolfe","060_L_pillow","wolfe_060_L_pillow-as","wolfe_060_L_pillow-b","wolfe_060_L_pillow-bs",75.634,-1,5,7021,274,285,"1",7.021,0.846398973034675,0,0.846398973034675
"A11PIARI7WALAX",NA,NA,"wolfe","110_L_plant","wolfe_110_L_plant-as","wolfe_110_L_plant-b","wolfe_110_L_plant-bs",84.867,-1,6,8816,195,359,"1",8.816,0.94527158150771,0,0.94527158150771
"A11PIARI7WALAX",NA,NA,"wolfe","013_L_lamp","wolfe_013_L_lamp-as","wolfe_013_L_lamp-b","wolfe_013_L_lamp-bs",102.293,-1,8,8932,145,173,"1",8.932,0.9509487143994,0,0.9509487143994
"A11PIARI7WALAX",NA,NA,"wolfe","041_L_fruit","wolfe_041_L_fruit-as","wolfe_041_L_fruit-b","wolfe_041_L_fruit-bs",109.862,-1,9,7181,52,340,"1",7.181,0.85618492672717,0,0.85618492672717
"A11PIARI7WALAX",NA,NA,"wolfe","054_L_firewood","wolfe_054_L_firewood-as","wolfe_054_L_firewood-b","wolfe_054_L_firewood-bs",116.932,-1,10,6604,18,324,"1",6.604,0.819807064590756,0,0.819807064590756
"A11PIARI7WALAX",NA,NA,"wolfe","125_L_sofa","wolfe_125_L_sofa-as","wolfe_125_L_sofa-b","wolfe_125_L_sofa-bs",126.318,-1,11,8719,92,342,"1",8.719,0.940466677663529,0,0.940466677663529
"A11PIARI7WALAX",NA,NA,"wolfe","048_L_art","wolfe_048_L_art-as","wolfe_048_L_art-b","wolfe_048_L_art-bs",135.505,-1,12,8645,35,213,"1",8.645,0.936764997609941,0,0.936764997609941
"A11PIARI7WALAX",NA,NA,"wolfe","020_L_walldeco","wolfe_020_L_walldeco-as","wolfe_020_L_walldeco-b","wolfe_020_L_walldeco-bs",142.725,-1,13,6650,22,111,"1",6.65,0.822821645303105,0,0.822821645303105
"A11PIARI7WALAX",NA,NA,"wolfe","042_L_tap","wolfe_042_L_tap-as","wolfe_042_L_tap-b","wolfe_042_L_tap-bs",150.781,-1,14,7510,311,217,"1",7.51,0.875639937004168,0,0.875639937004168
"A11PIARI7WALAX",NA,NA,"wolfe","032_L_bottle","wolfe_032_L_bottle-as","wolfe_032_L_bottle-b","wolfe_032_L_bottle-bs",160.379,-1,15,8870,249,148,"1",8.87,0.947923619831726,0,0.947923619831726
"A11PIARI7WALAX",NA,NA,"wolfe","036_L_bowl","wolfe_036_L_bowl-as","wolfe_036_L_bowl-b","wolfe_036_L_bowl-bs",167.742,-1,16,6960,308,206,"1",6.96,0.842609239610562,0,0.842609239610562
"A11PIARI7WALAX",NA,NA,"wolfe","084_L_light","wolfe_084_L_light-as","wolfe_084_L_light-b","wolfe_084_L_light-bs",174.955,-1,17,6725,142,155,"1",6.725,0.827692288674446,0,0.827692288674446
"A11PIARI7WALAX",NA,NA,"wolfe","025_L_vase","wolfe_025_L_vase-as","wolfe_025_L_vase-b","wolfe_025_L_vase-bs",182.419,-1,18,6552,36,305,"1",6.552,0.816373888752362,0,0.816373888752362
"A11PIARI7WALAX",NA,NA,"wolfe","109_L_pillow","wolfe_109_L_pillow-as","wolfe_109_L_pillow-b","wolfe_109_L_pillow-bs",189.708,-1,19,6528,267,292,"1",6.528,0.814780145745805,0,0.814780145745805
"A11PIARI7WALAX",NA,NA,"wolfe","010_L_candle","wolfe_010_L_candle-as","wolfe_010_L_candle-b","wolfe_010_L_candle-bs",199.266,-1,20,8695,70,244,"1",8.695,0.939269586338731,0,0.939269586338731
"A11PIARI7WALAX",NA,NA,"wolfe","065_L_cd","wolfe_065_L_cd-as","wolfe_065_L_cd-b","wolfe_065_L_cd-bs",206.475,-1,21,6552,181,189,"1",6.552,0.816373888752362,0,0.816373888752362
"A11PIARI7WALAX",NA,NA,"wolfe","035_L_fruit","wolfe_035_L_fruit-as","wolfe_035_L_fruit-b","wolfe_035_L_fruit-bs",213.855,-1,22,6568,138,285,"1",6.568,0.817433144111384,0,0.817433144111384
"A11PIARI7WALAX",NA,NA,"wolfe","003_L_ducks","wolfe_003_L_ducks-as","wolfe_003_L_ducks-b","wolfe_003_L_ducks-bs",221.05,-1,23,6540,243,330,"1",6.54,0.815577748324267,0,0.815577748324267
"A11PIARI7WALAX",NA,NA,"wolfe","083_L_knob","wolfe_083_L_knob-as","wolfe_083_L_knob-b","wolfe_083_L_knob-bs",235.421,-1,25,6767,84,378,"1",6.767,0.830396176483469,0,0.830396176483469
"A11PIARI7WALAX",NA,NA,"wolfe","015_L_ceilinglight","wolfe_015_L_ceilinglight-as","wolfe_015_L_ceilinglight-b","wolfe_015_L_ceilinglight-bs",242.856,-1,26,6726,95,84,"1",6.726,0.827756862978617,0,0.827756862978617
"A11PIARI7WALAX",NA,NA,"wolfe","022_L_lamp","wolfe_022_L_lamp-as","wolfe_022_L_lamp-b","wolfe_022_L_lamp-bs",249.844,-1,27,6484,219,56,"1",6.484,0.811843006176477,0,0.811843006176477
"A11PIARI7WALAX",NA,NA,"wolfe","111_L_pot","wolfe_111_L_pot-as","wolfe_111_L_pot-b","wolfe_111_L_pot-bs",257.395,-1,28,6599,193,385,"1",6.599,0.819478128362123,0,0.819478128362123
"A11PIARI7WALAX",NA,NA,"wolfe","093_L_switch","wolfe_093_L_switch-as","wolfe_093_L_switch-b","wolfe_093_L_switch-bs",264.729,-1,29,6632,125,367,"1",6.632,0.821644517542217,0,0.821644517542217
"A11PIARI7WALAX",NA,NA,"wolfe","071_L_art","wolfe_071_L_art-as","wolfe_071_L_art-b","wolfe_071_L_art-bs",271.788,-1,30,6521,159,274,"1",6.521,0.81431420020746,0,0.81431420020746
"A11PIARI7WALAX",NA,NA,"wolfe","119_L_painting","wolfe_119_L_painting-as","wolfe_119_L_painting-b","wolfe_119_L_painting-bs",279.083,-1,31,6511,251,245,"1",6.511,0.813647695346897,0,0.813647695346897
"A11PIARI7WALAX",NA,NA,"wolfe","038_L_art","wolfe_038_L_art-as","wolfe_038_L_art-b","wolfe_038_L_art-bs",286.221,-1,32,6514,304,169,"1",6.514,0.813847754228854,0,0.813847754228854
"A11W55U13HODN1",NA,NA,"wolfe","045_R_musicdock","wolfe_045_R_musicdock-as","wolfe_045_R_musicdock-b","wolfe_045_R_musicdock-bs",93.974,-1,4,15639,597,265,"1",15.639,1.19420897964668,0,1.19420897964668
"A11W55U13HODN1",NA,NA,"wolfe","082_R_bowl","wolfe_082_R_bowl-as","wolfe_082_R_bowl-b","wolfe_082_R_bowl-bs",119.919,-1,5,24528,600,428,"1",24.528,1.3896621375103,0,1.3896621375103
"A11W55U13HODN1",NA,NA,"wolfe","056_R_comforter","wolfe_056_R_comforter-as","wolfe_056_R_comforter-b","wolfe_056_R_comforter-bs",128.001,-1,6,7619,510,341,"1",7.619,0.881897973573011,0,0.881897973573011
"A11W55U13HODN1",NA,NA,"wolfe","011_R_parfum","wolfe_011_R_parfum-as","wolfe_011_R_parfum-b","wolfe_011_R_parfum-bs",136.896,-1,7,7066,391,339,"1",7.066,0.849173633098827,0,0.849173633098827
"A11W55U13HODN1",NA,NA,"wolfe","021_R_keyboard","wolfe_021_R_keyboard-as","wolfe_021_R_keyboard-b","wolfe_021_R_keyboard-bs",145.689,-1,8,7131,548,357,"1",7.131,0.853150436447843,0,0.853150436447843
"A11W55U13HODN1",NA,NA,"wolfe","018_R_plant","wolfe_018_R_plant-as","wolfe_018_R_plant-b","wolfe_018_R_plant-bs",153.721,-1,9,6972,588,269,"1",6.972,0.843357378437956,0,0.843357378437956
"A11W55U13HODN1",NA,NA,"wolfe","027_R_soapdish","wolfe_027_R_soapdish-as","wolfe_027_R_soapdish-b","wolfe_027_R_soapdish-bs",161.949,-1,10,6987,633,275,"1",6.987,0.844290743254343,0,0.844290743254343
"A11W55U13HODN1",NA,NA,"wolfe","052_R_speaker","wolfe_052_R_speaker-as","wolfe_052_R_speaker-b","wolfe_052_R_speaker-bs",170.169,-1,11,6936,507,333,"1",6.936,0.841109084468154,0,0.841109084468154
"A11W55U13HODN1",NA,NA,"wolfe","096_R_painting","wolfe_096_R_painting-as","wolfe_096_R_painting-b","wolfe_096_R_painting-bs",178.888,-1,12,7349,610,231,"1",7.349,0.866228247379647,0,0.866228247379647
"A11W55U13HODN1",NA,NA,"wolfe","053_R_handle","wolfe_053_R_handle-as","wolfe_053_R_handle-b","wolfe_053_R_handle-bs",200.513,-1,13,19686,511,331,"1",19.686,1.29415748076969,0,1.29415748076969
"A11W55U13HODN1",NA,NA,"wolfe","078_R_faucet","wolfe_078_R_faucet-as","wolfe_078_R_faucet-b","wolfe_078_R_faucet-bs",208.725,-1,14,6855,395,375,"1",6.855,0.836007459125532,0,0.836007459125532
"A11W55U13HODN1",NA,NA,"wolfe","016_R_art","wolfe_016_R_art-as","wolfe_016_R_art-b","wolfe_016_R_art-bs",217.456,-1,15,7042,620,211,"1",7.042,0.847696020734165,0,0.847696020734165
"A11W55U13HODN1",NA,NA,"wolfe","112_R_basket","wolfe_112_R_basket-as","wolfe_112_R_basket-b","wolfe_112_R_basket-bs",228.084,-1,16,8837,615,407,"1",8.837,0.946304854993475,0,0.946304854993475
"A11W55U13HODN1",NA,NA,"wolfe","057_R_bin","wolfe_057_R_bin-as","wolfe_057_R_bin-b","wolfe_057_R_bin-bs",236.368,-1,17,7087,403,339,"1",7.087,0.850462432761517,0,0.850462432761517
"A11W55U13HODN1",NA,NA,"wolfe","077_R_footrest","wolfe_077_R_footrest-as","wolfe_077_R_footrest-b","wolfe_077_R_footrest-bs",245.314,-1,18,7282,349,357,"1",7.282,0.862250674597925,0,0.862250674597925
"A11W55U13HODN1",NA,NA,"wolfe","088_R_clock","wolfe_088_R_clock-as","wolfe_088_R_clock-b","wolfe_088_R_clock-bs",286.322,-1,19,38657,411,75,"1",38.657,1.58722814731282,0,1.58722814731282
"A11W55U13HODN1",NA,NA,"wolfe","062_R_flowers","wolfe_062_R_flowers-as","wolfe_062_R_flowers-b","wolfe_062_R_flowers-bs",295.087,-1,20,7263,552,283,"1",7.263,0.861116044161395,0,0.861116044161395
"A11W55U13HODN1",NA,NA,"wolfe","084_R_light","wolfe_084_R_light-as","wolfe_084_R_light-b","wolfe_084_R_light-bs",303.706,-1,21,7062,525,153,"1",7.062,0.848927713227078,0,0.848927713227078
"A11W55U13HODN1",NA,NA,"wolfe","014_R_lamp","wolfe_014_R_lamp-as","wolfe_014_R_lamp-b","wolfe_014_R_lamp-bs",312.206,-1,22,6912,501,114,"1",6.912,0.839603729470837,0,0.839603729470837
"A11W55U13HODN1",NA,NA,"wolfe","086_R_book","wolfe_086_R_book-as","wolfe_086_R_book-b","wolfe_086_R_book-bs",323.028,-1,23,8882,421,310,"1",8.882,0.948510768837657,0,0.948510768837657
"A11W55U13HODN1",NA,NA,"wolfe","002_R_napkin","wolfe_002_R_napkin-as","wolfe_002_R_napkin-b","wolfe_002_R_napkin-bs",331.864,-1,24,6972,406,408,"1",6.972,0.843357378437956,0,0.843357378437956
"A11W55U13HODN1",NA,NA,"wolfe","110_R_plant","wolfe_110_R_plant-as","wolfe_110_R_plant-b","wolfe_110_R_plant-bs",340.372,-1,25,6910,468,361,"1",6.91,0.839478047374198,0,0.839478047374198
"A11W55U13HODN1",NA,NA,"wolfe","038_R_art","wolfe_038_R_art-as","wolfe_038_R_art-b","wolfe_038_R_art-bs",348.675,-1,26,8051,361,205,"1",8.051,0.905849826642319,0,0.905849826642319
"A11W55U13HODN1",NA,NA,"wolfe","105_R_hat","wolfe_105_R_hat-as","wolfe_105_R_hat-b","wolfe_105_R_hat-bs",359.181,-1,27,9338,550,425,"1",9.338,0.970253869594787,0,0.970253869594787
"A11W55U13HODN1",NA,NA,"wolfe","065_R_cd","wolfe_065_R_cd-as","wolfe_065_R_cd-b","wolfe_065_R_cd-bs",375.892,-1,28,15020,488,195,"1",15.02,1.17666993266815,0,1.17666993266815
"A11W55U13HODN1",NA,NA,"wolfe","034_R_handle","wolfe_034_R_handle-as","wolfe_034_R_handle-b","wolfe_034_R_handle-bs",384.586,-1,29,6981,565,328,"1",6.981,0.843917638006392,0,0.843917638006392
"A11W55U13HODN1",NA,NA,"wolfe","098_R_slippers","wolfe_098_R_slippers-as","wolfe_098_R_slippers-b","wolfe_098_R_slippers-bs",393.407,-1,30,6800,406,377,"1",6.8,0.832508912706236,0,0.832508912706236
"A11W55U13HODN1",NA,NA,"wolfe","024_R_towels","wolfe_024_R_towels-as","wolfe_024_R_towels-b","wolfe_024_R_towels-bs",422.539,-1,31,27512,384,417,"1",27.512,1.43952216281396,0,1.43952216281396
"A11W55U13HODN1",NA,NA,"wolfe","051_R_owl","wolfe_051_R_owl-as","wolfe_051_R_owl-b","wolfe_051_R_owl-bs",431.303,-1,32,6916,395,303,"1",6.916,0.839854984601885,0,0.839854984601885
"A1251G78LIS2M3",NA,NA,"wolfe","052_R_speaker","wolfe_052_R_speaker-as","wolfe_052_R_speaker-b","wolfe_052_R_speaker-bs",370.97,-1,3,9055,488,334,"1",9.055,0.956888454650077,0,0.956888454650077
"A1251G78LIS2M3",NA,NA,"wolfe","016_R_art","wolfe_016_R_art-as","wolfe_016_R_art-b","wolfe_016_R_art-bs",392.448,-1,5,8361,619,194,"1",8.361,0.922258223432967,0,0.922258223432967
"A1251G78LIS2M3",NA,NA,"wolfe","031_R_log","wolfe_031_R_log-as","wolfe_031_R_log-b","wolfe_031_R_log-bs",401.72,-1,6,8329,492,44,"1",8.329,0.920592862084809,0,0.920592862084809
"A1251G78LIS2M3",NA,NA,"wolfe","027_R_soapdish","wolfe_027_R_soapdish-as","wolfe_027_R_soapdish-b","wolfe_027_R_soapdish-bs",414.037,-1,7,11521,628,276,"1",11.521,1.06149017662482,0,1.06149017662482
"A1251G78LIS2M3",NA,NA,"wolfe","004_R_electricalgrid","wolfe_004_R_electricalgrid-as","wolfe_004_R_electricalgrid-b","wolfe_004_R_electricalgrid-bs",422.72,-1,8,8020,414,36,"1",8.02,0.904174368284164,0,0.904174368284164
"A1251G78LIS2M3",NA,NA,"wolfe","102_R_shoppingbag","wolfe_102_R_shoppingbag-as","wolfe_102_R_shoppingbag-b","wolfe_102_R_shoppingbag-bs",432.411,-1,9,9188,473,357,"1",9.188,0.963220986522988,0,0.963220986522988
"A1251G78LIS2M3",NA,NA,"wolfe","099_R_sconce","wolfe_099_R_sconce-as","wolfe_099_R_sconce-b","wolfe_099_R_sconce-bs",441.941,-1,10,7983,480,169,"1",7.983,0.902166129271051,0,0.902166129271051
"A1251G78LIS2M3",NA,NA,"wolfe","005_R_mirror","wolfe_005_R_mirror-as","wolfe_005_R_mirror-b","wolfe_005_R_mirror-bs",450.68,-1,11,8263,507,218,"1",8.263,0.917137752756444,0,0.917137752756444
"A1251G78LIS2M3",NA,NA,"wolfe","080_R_plant","wolfe_080_R_plant-as","wolfe_080_R_plant-b","wolfe_080_R_plant-bs",463.597,-1,12,11709,350,241,"1",11.709,1.06851980600091,0,1.06851980600091
"A1251G78LIS2M3",NA,NA,"wolfe","101_R_cup","wolfe_101_R_cup-as","wolfe_101_R_cup-b","wolfe_101_R_cup-bs",473.34,-1,13,9280,349,142,"1",9.28,0.967547976218862,0,0.967547976218862
"A1251G78LIS2M3",NA,NA,"wolfe","069_R_things","wolfe_069_R_things-as","wolfe_069_R_things-b","wolfe_069_R_things-bs",485.236,-1,14,11484,589,128,"1",11.484,1.06009318382447,0,1.06009318382447
"A1251G78LIS2M3",NA,NA,"wolfe","068_R_faucet","wolfe_068_R_faucet-as","wolfe_068_R_faucet-b","wolfe_068_R_faucet-bs",499.923,-1,15,14061,380,308,"1",14.061,1.14801620823987,0,1.14801620823987
"A1251G78LIS2M3",NA,NA,"wolfe","120_R_art","wolfe_120_R_art-as","wolfe_120_R_art-b","wolfe_120_R_art-bs",592.86,-1,20,11699,448,148,"1",11.699,1.06814874097329,0,1.06814874097329
"A1251G78LIS2M3",NA,NA,"wolfe","054_R_firewood","wolfe_054_R_firewood-as","wolfe_054_R_firewood-b","wolfe_054_R_firewood-bs",604.121,-1,21,9329,632,322,"1",9.329,0.969835093075798,0,0.969835093075798
"A1251G78LIS2M3",NA,NA,"wolfe","073_R_coffeemug","wolfe_073_R_coffeemug-as","wolfe_073_R_coffeemug-b","wolfe_073_R_coffeemug-bs",614.61,-1,22,8136,629,229,"1",8.136,0.910410939914688,0,0.910410939914688
"A1251G78LIS2M3",NA,NA,"wolfe","106_R_toweldispenser","wolfe_106_R_toweldispenser-as","wolfe_106_R_toweldispenser-b","wolfe_106_R_toweldispenser-bs",625.39,-1,23,9110,420,142,"1",9.11,0.959518376972998,0,0.959518376972998
"A1251G78LIS2M3",NA,NA,"wolfe","095_R_candle","wolfe_095_R_candle-as","wolfe_095_R_candle-b","wolfe_095_R_candle-bs",637.96,-1,24,10609,463,289,"1",10.609,1.02567444941034,0,1.02567444941034
"A1251G78LIS2M3",NA,NA,"wolfe","047_R_handle","wolfe_047_R_handle-as","wolfe_047_R_handle-b","wolfe_047_R_handle-bs",652.03,-1,25,12387,542,423,"1",12.387,1.09296613759436,0,1.09296613759436
"A1251G78LIS2M3",NA,NA,"wolfe","013_R_lamp","wolfe_013_R_lamp-as","wolfe_013_R_lamp-b","wolfe_013_R_lamp-bs",671.701,-1,26,17742,518,168,"1",17.742,1.24900257490976,0,1.24900257490976
"A1251G78LIS2M3",NA,NA,"wolfe","091_R_airfreshener","wolfe_091_R_airfreshener-as","wolfe_091_R_airfreshener-b","wolfe_091_R_airfreshener-bs",691.46,-1,27,18538,493,192,"1",18.538,1.26806287782268,0,1.26806287782268
"A1251G78LIS2M3",NA,NA,"wolfe","081_R_football","wolfe_081_R_football-as","wolfe_081_R_football-b","wolfe_081_R_football-bs",710.97,-1,28,17937,362,357,"1",17.937,1.25374980813981,0,1.25374980813981
"A1251G78LIS2M3",NA,NA,"wolfe","007_R_soap","wolfe_007_R_soap-as","wolfe_007_R_soap-b","wolfe_007_R_soap-bs",734.668,-1,30,9149,493,484,"1",9.149,0.961373627594801,0,0.961373627594801
"A1251G78LIS2M3",NA,NA,"wolfe","117_R_plant_sized","wolfe_117_R_plant_sized-as","wolfe_117_R_plant_sized-b","wolfe_117_R_plant_sized-bs",749.889,-1,31,12981,595,348,"1",12.981,1.11330814991839,0,1.11330814991839
"A1251G78LIS2M3",NA,NA,"wolfe","033_R_vase","wolfe_033_R_vase-as","wolfe_033_R_vase-b","wolfe_033_R_vase-bs",759.467,-1,32,8087,585,196,"1",8.087,0.907787443110616,0,0.907787443110616
"A12O9P1OTMJOPW",NA,NA,"wolfe","042_R_tap","wolfe_042_R_tap-as","wolfe_042_R_tap-b","wolfe_042_R_tap-bs",173.14,-1,13,12263,354,227,"1",12.263,1.08859672826275,0,1.08859672826275
"A12O9P1OTMJOPW",NA,NA,"wolfe","111_R_pot","wolfe_111_R_pot-as","wolfe_111_R_pot-b","wolfe_111_R_pot-bs",185.154,-1,14,11028,478,377,"1",11.028,1.04249675743374,0,1.04249675743374
"A12O9P1OTMJOPW",NA,NA,"wolfe","100_R_mirror","wolfe_100_R_mirror-as","wolfe_100_R_mirror-b","wolfe_100_R_mirror-bs",195.019,-1,15,8862,341,300,"1",8.862,0.947531745695593,0,0.947531745695593
"A12O9P1OTMJOPW",NA,NA,"wolfe","025_R_vase","wolfe_025_R_vase-as","wolfe_025_R_vase-b","wolfe_025_R_vase-bs",209.109,-1,16,13383,625,331,"1",13.383,1.12655347796128,0,1.12655347796128
"A12O9P1OTMJOPW",NA,NA,"wolfe","049_R_painting","wolfe_049_R_painting-as","wolfe_049_R_painting-b","wolfe_049_R_painting-bs",247.999,-1,18,13153,524,134,"1",13.153,1.11902482011478,0,1.11902482011478
"A12O9P1OTMJOPW",NA,NA,"wolfe","043_R_clock","wolfe_043_R_clock-as","wolfe_043_R_clock-b","wolfe_043_R_clock-bs",267.36,-1,19,18514,450,212,"1",18.514,1.26750025939327,0,1.26750025939327
"A12O9P1OTMJOPW",NA,NA,"wolfe","093_R_switch","wolfe_093_R_switch-as","wolfe_093_R_switch-b","wolfe_093_R_switch-bs",287.211,-1,20,19061,542,367,"1",19.061,1.28014568135422,0,1.28014568135422
"A12O9P1OTMJOPW",NA,NA,"wolfe","108_R_boa","wolfe_108_R_boa-as","wolfe_108_R_boa-b","wolfe_108_R_boa-bs",296.751,-1,21,8749,343,218,"1",8.749,0.941958416530814,0,0.941958416530814
"A12O9P1OTMJOPW",NA,NA,"wolfe","026_R_rack","wolfe_026_R_rack-as","wolfe_026_R_rack-b","wolfe_026_R_rack-bs",310.263,-1,22,12817,597,276,"1",12.817,1.10778638431595,0,1.10778638431595
"A12O9P1OTMJOPW",NA,NA,"wolfe","038_R_art","wolfe_038_R_art-as","wolfe_038_R_art-b","wolfe_038_R_art-bs",327.972,-1,23,17004,365,190,"1",17.004,1.23055109629509,0,1.23055109629509
"A12O9P1OTMJOPW",NA,NA,"wolfe","077_R_footrest","wolfe_077_R_footrest-as","wolfe_077_R_footrest-b","wolfe_077_R_footrest-bs",341.567,-1,24,12982,340,361,"1",12.982,1.11334160479511,0,1.11334160479511
"A12O9P1OTMJOPW",NA,NA,"wolfe","006_R_vase","wolfe_006_R_vase-as","wolfe_006_R_vase-b","wolfe_006_R_vase-bs",352.778,-1,25,10403,478,251,"1",10.403,1.01715859848781,0,1.01715859848781
"A12O9P1OTMJOPW",NA,NA,"wolfe","102_R_shoppingbag","wolfe_102_R_shoppingbag-as","wolfe_102_R_shoppingbag-b","wolfe_102_R_shoppingbag-bs",362.441,-1,26,8927,475,355,"1",8.927,0.950705534773861,0,0.950705534773861
"A12O9P1OTMJOPW",NA,NA,"wolfe","078_R_faucet","wolfe_078_R_faucet-as","wolfe_078_R_faucet-b","wolfe_078_R_faucet-bs",376.13,-1,27,13046,393,377,"1",13.046,1.11547737418647,0,1.11547737418647
"A12O9P1OTMJOPW",NA,NA,"wolfe","082_R_bowl","wolfe_082_R_bowl-as","wolfe_082_R_bowl-b","wolfe_082_R_bowl-bs",389.911,-1,28,13065,565,418,"1",13.065,1.11610941406334,0,1.11610941406334
"A12O9P1OTMJOPW",NA,NA,"wolfe","123_R_pot","wolfe_123_R_pot-as","wolfe_123_R_pot-b","wolfe_123_R_pot-bs",446.672,-1,30,11402,640,384,"1",11.402,1.05698103666811,0,1.05698103666811
"A12O9P1OTMJOPW",NA,NA,"wolfe","084_R_light","wolfe_084_R_light-as","wolfe_084_R_light-b","wolfe_084_R_light-bs",455.875,-1,31,8649,527,166,"1",8.649,0.93696589710787,0,0.93696589710787
"A12O9P1OTMJOPW",NA,NA,"wolfe","005_R_mirror","wolfe_005_R_mirror-as","wolfe_005_R_mirror-b","wolfe_005_R_mirror-bs",473.599,-1,32,16991,506,218,"1",16.991,1.23021893988738,0,1.23021893988738
"A145Z2L40FAB8J",NA,NA,"wolfe","078_L_faucet","wolfe_078_L_faucet-as","wolfe_078_L_faucet-b","wolfe_078_L_faucet-bs",201.433,-1,3,7320,268,382,"1",7.32,0.864511081058392,0,0.864511081058392
"A145Z2L40FAB8J",NA,NA,"wolfe","032_L_bottle","wolfe_032_L_bottle-as","wolfe_032_L_bottle-b","wolfe_032_L_bottle-bs",209.614,-1,4,6699,252,144,"1",6.699,0.8260099777911,0,0.8260099777911
"A145Z2L40FAB8J",NA,NA,"wolfe","029_L_glass","wolfe_029_L_glass-as","wolfe_029_L_glass-b","wolfe_029_L_glass-bs",217.717,-1,5,7681,182,272,"1",7.681,0.885417765110936,0,0.885417765110936
"A145Z2L40FAB8J",NA,NA,"wolfe","022_L_lamp","wolfe_022_L_lamp-as","wolfe_022_L_lamp-b","wolfe_022_L_lamp-bs",233.859,-1,7,6514,239,67,"1",6.514,0.813847754228854,0,0.813847754228854
"A145Z2L40FAB8J",NA,NA,"wolfe","048_L_art","wolfe_048_L_art-as","wolfe_048_L_art-b","wolfe_048_L_art-bs",267.376,-1,11,6764,30,176,"1",6.764,0.830203598925704,0,0.830203598925704
"A145Z2L40FAB8J",NA,NA,"wolfe","053_L_handle","wolfe_053_L_handle-as","wolfe_053_L_handle-b","wolfe_053_L_handle-bs",275.292,-1,12,6686,180,329,"1",6.686,0.82516637225655,0,0.82516637225655
"A145Z2L40FAB8J",NA,NA,"wolfe","096_L_painting","wolfe_096_L_painting-as","wolfe_096_L_painting-b","wolfe_096_L_painting-bs",283.099,-1,13,6545,69,225,"1",6.545,0.815909650886775,0,0.815909650886775
"A145Z2L40FAB8J",NA,NA,"wolfe","052_L_speaker","wolfe_052_L_speaker-as","wolfe_052_L_speaker-b","wolfe_052_L_speaker-bs",290.628,-1,14,6534,193,325,"1",6.534,0.815179130139419,0,0.815179130139419
"A145Z2L40FAB8J",NA,NA,"wolfe","043_L_clock","wolfe_043_L_clock-as","wolfe_043_L_clock-b","wolfe_043_L_clock-bs",306.647,-1,16,6704,214,214,"1",6.704,0.82633400562222,0,0.82633400562222
"A145Z2L40FAB8J",NA,NA,"wolfe","038_L_art","wolfe_038_L_art-as","wolfe_038_L_art-b","wolfe_038_L_art-bs",337.701,-1,20,6568,302,225,"1",6.568,0.817433144111384,0,0.817433144111384
"A145Z2L40FAB8J",NA,NA,"wolfe","072_L_handle","wolfe_072_L_handle-as","wolfe_072_L_handle-b","wolfe_072_L_handle-bs",354.984,-1,22,6657,103,445,"1",6.657,0.823278556951671,0,0.823278556951671
"A145Z2L40FAB8J",NA,NA,"wolfe","014_L_lamp","wolfe_014_L_lamp-as","wolfe_014_L_lamp-b","wolfe_014_L_lamp-bs",362.807,-1,23,6607,166,120,"1",6.607,0.820004306808318,0,0.820004306808318
"A145Z2L40FAB8J",NA,NA,"wolfe","086_L_book","wolfe_086_L_book-as","wolfe_086_L_book-b","wolfe_086_L_book-bs",379.878,-1,25,6607,249,309,"1",6.607,0.820004306808318,0,0.820004306808318
"A145Z2L40FAB8J",NA,NA,"wolfe","104_L_bottle","wolfe_104_L_bottle-as","wolfe_104_L_bottle-b","wolfe_104_L_bottle-bs",387.977,-1,26,7058,322,293,"1",7.058,0.84868165402395,0,0.84868165402395
"A145Z2L40FAB8J",NA,NA,"wolfe","100_L_mirror","wolfe_100_L_mirror-as","wolfe_100_L_mirror-b","wolfe_100_L_mirror-bs",395.473,-1,27,6552,322,291,"1",6.552,0.816373888752362,0,0.816373888752362
"A145Z2L40FAB8J",NA,NA,"wolfe","109_L_pillow","wolfe_109_L_pillow-as","wolfe_109_L_pillow-b","wolfe_109_L_pillow-bs",430.265,-1,31,6829,251,289,"1",6.829,0.834357112718405,0,0.834357112718405
"A145Z2L40FAB8J",NA,NA,"wolfe","082_L_bowl","wolfe_082_L_bowl-as","wolfe_082_L_bowl-b","wolfe_082_L_bowl-bs",437.912,-1,32,6657,63,435,"1",6.657,0.823278556951671,0,0.823278556951671
"A14EYTLSMJRPUK",NA,NA,"wolfe","119_R_painting","wolfe_119_R_painting-as","wolfe_119_R_painting-b","wolfe_119_R_painting-bs",37.133,-1,3,6430,401,244,"1",6.43,0.808210972924222,0,0.808210972924222
"A14EYTLSMJRPUK",NA,NA,"wolfe","016_R_art","wolfe_016_R_art-as","wolfe_016_R_art-b","wolfe_016_R_art-bs",60.326,-1,6,6448,618,180,"1",6.448,0.809425028797034,0,0.809425028797034
"A14EYTLSMJRPUK",NA,NA,"wolfe","013_R_lamp","wolfe_013_R_lamp-as","wolfe_013_R_lamp-b","wolfe_013_R_lamp-bs",75.259,-1,8,6461,524,181,"1",6.461,0.810299741040169,0,0.810299741040169
"A14EYTLSMJRPUK",NA,NA,"wolfe","070_R_lamp","wolfe_070_R_lamp-as","wolfe_070_R_lamp-b","wolfe_070_R_lamp-bs",82.633,-1,9,6471,606,172,"1",6.471,0.810971399822207,0,0.810971399822207
"A14EYTLSMJRPUK",NA,NA,"wolfe","074_R_book","wolfe_074_R_book-as","wolfe_074_R_book-b","wolfe_074_R_book-bs",97.731,-1,11,6414,421,328,"1",6.414,0.807128955592422,0,0.807128955592422
"A14EYTLSMJRPUK",NA,NA,"wolfe","098_R_slippers","wolfe_098_R_slippers-as","wolfe_098_R_slippers-b","wolfe_098_R_slippers-bs",105.202,-1,12,6432,401,373,"1",6.432,0.808346035740395,0,0.808346035740395
"A14EYTLSMJRPUK",NA,NA,"wolfe","102_R_shoppingbag","wolfe_102_R_shoppingbag-as","wolfe_102_R_shoppingbag-b","wolfe_102_R_shoppingbag-bs",120.333,-1,14,6485,477,365,"1",6.485,0.811909980420099,0,0.811909980420099
"A14EYTLSMJRPUK",NA,NA,"wolfe","036_R_bowl","wolfe_036_R_bowl-as","wolfe_036_R_bowl-b","wolfe_036_R_bowl-bs",127.63,-1,15,6492,354,207,"1",6.492,0.812378511154194,0,0.812378511154194
"A14EYTLSMJRPUK",NA,NA,"wolfe","111_R_pot","wolfe_111_R_pot-as","wolfe_111_R_pot-b","wolfe_111_R_pot-bs",150.85,-1,18,6533,457,366,"1",6.533,0.815112658189813,0,0.815112658189813
"A14EYTLSMJRPUK",NA,NA,"wolfe","004_R_electricalgrid","wolfe_004_R_electricalgrid-as","wolfe_004_R_electricalgrid-b","wolfe_004_R_electricalgrid-bs",170.267,-1,20,6549,418,44,"1",6.549,0.816174990428802,0,0.816174990428802
"A14EYTLSMJRPUK",NA,NA,"wolfe","072_R_handle","wolfe_072_R_handle-as","wolfe_072_R_handle-b","wolfe_072_R_handle-bs",177.784,-1,21,6682,570,450,"1",6.682,0.824906471302112,0,0.824906471302112
"A14EYTLSMJRPUK",NA,NA,"wolfe","114_R_bird","wolfe_114_R_bird-as","wolfe_114_R_bird-b","wolfe_114_R_bird-bs",185.248,-1,22,6580,377,359,"1",6.58,0.818225893613955,0,0.818225893613955
"A14EYTLSMJRPUK",NA,NA,"wolfe","054_R_firewood","wolfe_054_R_firewood-as","wolfe_054_R_firewood-b","wolfe_054_R_firewood-bs",193.094,-1,23,6501,632,313,"1",6.501,0.81298016603948,0,0.81298016603948
"A14EYTLSMJRPUK",NA,NA,"wolfe","020_R_walldeco","wolfe_020_R_walldeco-as","wolfe_020_R_walldeco-b","wolfe_020_R_walldeco-bs",200.487,-1,24,6506,665,126,"1",6.506,0.813314058945835,0,0.813314058945835
"A14EYTLSMJRPUK",NA,NA,"wolfe","080_R_plant","wolfe_080_R_plant-as","wolfe_080_R_plant-b","wolfe_080_R_plant-bs",207.821,-1,25,6468,349,244,"1",6.468,0.810770011234364,0,0.810770011234364
"A14EYTLSMJRPUK",NA,NA,"wolfe","110_R_plant","wolfe_110_R_plant-as","wolfe_110_R_plant-b","wolfe_110_R_plant-bs",215.205,-1,26,6451,476,374,"1",6.451,0.80962704189405,0,0.80962704189405
"A14EYTLSMJRPUK",NA,NA,"wolfe","093_R_switch","wolfe_093_R_switch-as","wolfe_093_R_switch-b","wolfe_093_R_switch-bs",229.992,-1,28,6420,534,358,"1",6.42,0.807535028068853,0,0.807535028068853
"A14EYTLSMJRPUK",NA,NA,"wolfe","068_R_faucet","wolfe_068_R_faucet-as","wolfe_068_R_faucet-b","wolfe_068_R_faucet-bs",259.994,-1,32,6459,379,307,"1",6.459,0.81016528454315,0,0.81016528454315
"A14WLAP6TCEKO0",NA,NA,"wolfe","072_R_handle","wolfe_072_R_handle-as","wolfe_072_R_handle-b","wolfe_072_R_handle-bs",106.947,-1,4,17114,571,441,"1",17.114,1.23335152765327,0,1.23335152765327
"A14WLAP6TCEKO0",NA,NA,"wolfe","078_R_faucet","wolfe_078_R_faucet-as","wolfe_078_R_faucet-b","wolfe_078_R_faucet-bs",115.033,-1,5,7077,400,377,"1",7.077,0.849849195605258,0,0.849849195605258
"A14WLAP6TCEKO0",NA,NA,"wolfe","008_R_bottle","wolfe_008_R_bottle-as","wolfe_008_R_bottle-b","wolfe_008_R_bottle-bs",124.447,-1,6,8893,587,307,"1",8.893,0.949048292315664,0,0.949048292315664
"A14WLAP6TCEKO0",NA,NA,"wolfe","040_R_painting","wolfe_040_R_painting-as","wolfe_040_R_painting-b","wolfe_040_R_painting-bs",131.919,-1,7,6701,526,81,"1",6.701,0.826139617935915,0,0.826139617935915
"A14WLAP6TCEKO0",NA,NA,"wolfe","031_R_log","wolfe_031_R_log-as","wolfe_031_R_log-b","wolfe_031_R_log-bs",155.575,-1,9,15152,475,51,"1",15.152,1.1804699616592,0,1.1804699616592
"A14WLAP6TCEKO0",NA,NA,"wolfe","067_R_painting","wolfe_067_R_painting-as","wolfe_067_R_painting-b","wolfe_067_R_painting-bs",162.943,-1,10,6664,639,328,"1",6.664,0.823734988398731,0,0.823734988398731
"A14WLAP6TCEKO0",NA,NA,"wolfe","122_R_chair","wolfe_122_R_chair-as","wolfe_122_R_chair-b","wolfe_122_R_chair-bs",183.218,-1,12,8945,402,155,"1",8.945,0.951580344903392,0,0.951580344903392
"A14WLAP6TCEKO0",NA,NA,"wolfe","044_R_light","wolfe_044_R_light-as","wolfe_044_R_light-b","wolfe_044_R_light-bs",214.236,-1,14,22639,376,380,"1",22.639,1.35485723947412,0,1.35485723947412
"A14WLAP6TCEKO0",NA,NA,"wolfe","086_R_book","wolfe_086_R_book-as","wolfe_086_R_book-b","wolfe_086_R_book-bs",224.149,-1,15,8764,421,309,"1",8.764,0.942702368888668,0,0.942702368888668
"A14WLAP6TCEKO0",NA,NA,"wolfe","061_R_glass","wolfe_061_R_glass-as","wolfe_061_R_glass-b","wolfe_061_R_glass-bs",231.881,-1,16,6665,415,209,"1",6.665,0.823800153749878,0,0.823800153749878
"A14WLAP6TCEKO0",NA,NA,"wolfe","098_R_slippers","wolfe_098_R_slippers-as","wolfe_098_R_slippers-b","wolfe_098_R_slippers-bs",241.617,-1,17,8841,402,376,"1",8.841,0.946501390569587,0,0.946501390569587
"A14WLAP6TCEKO0",NA,NA,"wolfe","064_R_bottles","wolfe_064_R_bottles-as","wolfe_064_R_bottles-b","wolfe_064_R_bottles-bs",251.119,-1,18,8792,553,227,"1",8.792,0.944087679415434,0,0.944087679415434
"A14WLAP6TCEKO0",NA,NA,"wolfe","007_R_soap","wolfe_007_R_soap-as","wolfe_007_R_soap-b","wolfe_007_R_soap-bs",258.665,-1,19,6966,500,485,"1",6.966,0.842983470122218,0,0.842983470122218
"A14WLAP6TCEKO0",NA,NA,"wolfe","069_R_things","wolfe_069_R_things-as","wolfe_069_R_things-b","wolfe_069_R_things-bs",282.415,-1,20,23285,603,125,"1",23.285,1.36707624226875,0,1.36707624226875
"A14WLAP6TCEKO0",NA,NA,"wolfe","046_R_remote","wolfe_046_R_remote-as","wolfe_046_R_remote-b","wolfe_046_R_remote-bs",290.495,-1,21,6738,372,317,"1",6.738,0.828531006645101,0,0.828531006645101
"A14WLAP6TCEKO0",NA,NA,"wolfe","115_R_pot","wolfe_115_R_pot-as","wolfe_115_R_pot-b","wolfe_115_R_pot-bs",300.089,-1,22,8772,543,235,"1",8.772,0.943098623005485,0,0.943098623005485
"A14WLAP6TCEKO0",NA,NA,"wolfe","100_R_mirror","wolfe_100_R_mirror-as","wolfe_100_R_mirror-b","wolfe_100_R_mirror-bs",307.591,-1,23,6666,343,299,"1",6.666,0.823865309324511,0,0.823865309324511
"A14WLAP6TCEKO0",NA,NA,"wolfe","127_R_light","wolfe_127_R_light-as","wolfe_127_R_light-b","wolfe_127_R_light-bs",319.063,-1,24,10811,457,202,"1",10.811,1.0338658673479,0,1.0338658673479
"A14WLAP6TCEKO0",NA,NA,"wolfe","071_R_art","wolfe_071_R_art-as","wolfe_071_R_art-b","wolfe_071_R_art-bs",326.543,-1,25,6858,501,265,"1",6.858,0.836197480778925,0,0.836197480778925
"A14WLAP6TCEKO0",NA,NA,"wolfe","089_R_poster","wolfe_089_R_poster-as","wolfe_089_R_poster-b","wolfe_089_R_poster-bs",340.297,-1,26,13316,367,125,"1",13.316,1.12437378648463,0,1.12437378648463
"A14WLAP6TCEKO0",NA,NA,"wolfe","058_R_clutch","wolfe_058_R_clutch-as","wolfe_058_R_clutch-b","wolfe_058_R_clutch-bs",349.235,-1,27,8477,476,379,"1",8.477,0.928242183157309,0,0.928242183157309
"A14WLAP6TCEKO0",NA,NA,"wolfe","126_R_candles","wolfe_126_R_candles-as","wolfe_126_R_candles-b","wolfe_126_R_candles-bs",359.016,-1,28,8775,644,278,"1",8.775,0.943247125137862,0,0.943247125137862
"A14WLAP6TCEKO0",NA,NA,"wolfe","033_R_vase","wolfe_033_R_vase-as","wolfe_033_R_vase-b","wolfe_033_R_vase-bs",366.441,-1,29,6667,584,209,"1",6.667,0.823930455125564,0,0.823930455125564
"A14WLAP6TCEKO0",NA,NA,"wolfe","093_R_switch","wolfe_093_R_switch-as","wolfe_093_R_switch-b","wolfe_093_R_switch-bs",376.248,-1,30,8940,538,361,"1",8.94,0.951337518795918,0,0.951337518795918
"A14WLAP6TCEKO0",NA,NA,"wolfe","047_R_handle","wolfe_047_R_handle-as","wolfe_047_R_handle-b","wolfe_047_R_handle-bs",389.593,-1,31,12708,548,423,"1",12.708,1.10407720615511,0,1.10407720615511
"A14WLAP6TCEKO0",NA,NA,"wolfe","066_R_vase","wolfe_066_R_vase-as","wolfe_066_R_vase-b","wolfe_066_R_vase-bs",397.269,-1,32,6744,596,179,"1",6.744,0.828917561616686,0,0.828917561616686
"A1522U5W2U1DMN",NA,NA,"wolfe","118_R_shoes","wolfe_118_R_shoes-as","wolfe_118_R_shoes-b","wolfe_118_R_shoes-bs",47.6,-1,3,6714,401,353,"1",6.714,0.826981336911994,0,0.826981336911994
"A1522U5W2U1DMN",NA,NA,"wolfe","050_R_book","wolfe_050_R_book-as","wolfe_050_R_book-b","wolfe_050_R_book-bs",55.052,-1,4,7024,567,56,"1",7.024,0.846584502898046,0,0.846584502898046
"A1522U5W2U1DMN",NA,NA,"wolfe","071_R_art","wolfe_071_R_art-as","wolfe_071_R_art-b","wolfe_071_R_art-bs",79.917,-1,6,4962,516,268,"1",4.962,0.69565675993619,0,0.69565675993619
"A1522U5W2U1DMN",NA,NA,"wolfe","004_R_electricalgrid","wolfe_004_R_electricalgrid-as","wolfe_004_R_electricalgrid-b","wolfe_004_R_electricalgrid-bs",97.51,-1,8,7139,415,24,"1",7.139,0.853637381958594,0,0.853637381958594
"A1522U5W2U1DMN",NA,NA,"wolfe","043_R_clock","wolfe_043_R_clock-as","wolfe_043_R_clock-b","wolfe_043_R_clock-bs",114.228,-1,10,7113,457,213,"1",7.113,0.852052808697851,0,0.852052808697851
"A1522U5W2U1DMN",NA,NA,"wolfe","025_R_vase","wolfe_025_R_vase-as","wolfe_025_R_vase-b","wolfe_025_R_vase-bs",122.27,-1,11,7685,622,316,"1",7.685,0.885643871835764,0,0.885643871835764
"A1522U5W2U1DMN",NA,NA,"wolfe","035_R_fruit","wolfe_035_R_fruit-as","wolfe_035_R_fruit-b","wolfe_035_R_fruit-bs",163.096,-1,15,5135,530,282,"1",5.135,0.710540447933297,0,0.710540447933297
"A1522U5W2U1DMN",NA,NA,"wolfe","127_R_light","wolfe_127_R_light-as","wolfe_127_R_light-b","wolfe_127_R_light-bs",169.94,-1,16,6672,461,203,"1",6.672,0.824256037629682,0,0.824256037629682
"A1522U5W2U1DMN",NA,NA,"wolfe","044_R_light","wolfe_044_R_light-as","wolfe_044_R_light-b","wolfe_044_R_light-bs",177.19,-1,17,7026,370,376,"1",7.026,0.846708145456007,0,0.846708145456007
"A1522U5W2U1DMN",NA,NA,"wolfe","021_R_keyboard","wolfe_021_R_keyboard-as","wolfe_021_R_keyboard-b","wolfe_021_R_keyboard-bs",183.539,-1,18,6167,537,349,"1",6.167,0.790073948426305,0,0.790073948426305
"A1522U5W2U1DMN",NA,NA,"wolfe","077_R_footrest","wolfe_077_R_footrest-as","wolfe_077_R_footrest-b","wolfe_077_R_footrest-bs",190.567,-1,19,6597,340,354,"1",6.597,0.819346484080453,0,0.819346484080453
"A1522U5W2U1DMN",NA,NA,"wolfe","023_R_remote","wolfe_023_R_remote-as","wolfe_023_R_remote-b","wolfe_023_R_remote-bs",196.176,-1,20,5383,430,464,"1",5.383,0.731024379815688,0,0.731024379815688
"A1522U5W2U1DMN",NA,NA,"wolfe","019_R_lamp_sized","wolfe_019_R_lamp_sized-as","wolfe_019_R_lamp_sized-b","wolfe_019_R_lamp_sized-bs",201.367,-1,21,5037,460,138,"1",5.037,0.702171950857711,0,0.702171950857711
"A1522U5W2U1DMN",NA,NA,"wolfe","037_R_towel","wolfe_037_R_towel-as","wolfe_037_R_towel-b","wolfe_037_R_towel-bs",209.309,-1,22,7749,347,226,"1",7.749,0.88924566089298,0,0.88924566089298
"A1522U5W2U1DMN",NA,NA,"wolfe","128_R_pot","wolfe_128_R_pot-as","wolfe_128_R_pot-b","wolfe_128_R_pot-bs",215.985,-1,23,6521,508,260,"1",6.521,0.81431420020746,0,0.81431420020746
"A1522U5W2U1DMN",NA,NA,"wolfe","097_R_light","wolfe_097_R_light-as","wolfe_097_R_light-b","wolfe_097_R_light-bs",221.343,-1,24,5207,348,166,"1",5.207,0.716587577675692,0,0.716587577675692
"A1522U5W2U1DMN",NA,NA,"wolfe","110_R_plant","wolfe_110_R_plant-as","wolfe_110_R_plant-b","wolfe_110_R_plant-bs",226.296,-1,25,4798,487,356,"1",4.798,0.681060243631812,0,0.681060243631812
"A1522U5W2U1DMN",NA,NA,"wolfe","030_R_drawer","wolfe_030_R_drawer-as","wolfe_030_R_drawer-b","wolfe_030_R_drawer-bs",231.103,-1,26,4662,408,317,"1",4.662,0.668572269184558,0,0.668572269184558
"A1522U5W2U1DMN",NA,NA,"wolfe","009_R_carpet","wolfe_009_R_carpet-as","wolfe_009_R_carpet-b","wolfe_009_R_carpet-bs",243.186,-1,28,4707,441,441,"1",4.707,0.672744198306599,0,0.672744198306599
"A1522U5W2U1DMN",NA,NA,"wolfe","054_R_firewood","wolfe_054_R_firewood-as","wolfe_054_R_firewood-b","wolfe_054_R_firewood-bs",248.173,-1,29,4795,637,316,"1",4.795,0.680788611506682,0,0.680788611506682
"A1522U5W2U1DMN",NA,NA,"wolfe","027_R_soapdish","wolfe_027_R_soapdish-as","wolfe_027_R_soapdish-b","wolfe_027_R_soapdish-bs",261.133,-1,30,12815,633,269,"1",12.815,1.10771861052026,0,1.10771861052026
"A1522U5W2U1DMN",NA,NA,"wolfe","082_R_bowl","wolfe_082_R_bowl-as","wolfe_082_R_bowl-b","wolfe_082_R_bowl-bs",272.434,-1,31,11095,601,433,"1",11.095,1.04512730656803,0,1.04512730656803
"A1522U5W2U1DMN",NA,NA,"wolfe","125_R_sofa","wolfe_125_R_sofa-as","wolfe_125_R_sofa-b","wolfe_125_R_sofa-bs",279.751,-1,32,6955,573,346,"1",6.955,0.842297134328065,0,0.842297134328065
"A15GLNTVDPCXUQ",NA,NA,"wolfe","011_R_parfum","wolfe_011_R_parfum-as","wolfe_011_R_parfum-b","wolfe_011_R_parfum-bs",916.783,-1,3,12876,399,343,"1",12.876,1.10978096801358,0,1.10978096801358
"A15GLNTVDPCXUQ",NA,NA,"wolfe","099_R_sconce","wolfe_099_R_sconce-as","wolfe_099_R_sconce-b","wolfe_099_R_sconce-bs",926.047,-1,4,7455,477,197,"1",7.455,0.872447647789013,0,0.872447647789013
"A15GLNTVDPCXUQ",NA,NA,"wolfe","001_R_mirror","wolfe_001_R_mirror-as","wolfe_001_R_mirror-b","wolfe_001_R_mirror-bs",935.6,-1,5,7946,369,190,"1",7.946,0.900148560719344,0,0.900148560719344
"A15GLNTVDPCXUQ",NA,NA,"wolfe","091_R_airfreshener","wolfe_091_R_airfreshener-as","wolfe_091_R_airfreshener-b","wolfe_091_R_airfreshener-bs",947.528,-1,6,9669,493,188,"1",9.669,0.985381560231997,0,0.985381560231997
"A15GLNTVDPCXUQ",NA,NA,"wolfe","093_R_switch","wolfe_093_R_switch-as","wolfe_093_R_switch-b","wolfe_093_R_switch-bs",959.768,-1,7,9990,537,365,"1",9.99,0.999565488225982,0,0.999565488225982
"A15GLNTVDPCXUQ",NA,NA,"wolfe","064_R_bottles","wolfe_064_R_bottles-as","wolfe_064_R_bottles-b","wolfe_064_R_bottles-bs",980.512,-1,9,7592,540,220,"1",7.592,0.880356199419236,0,0.880356199419236
"A15GLNTVDPCXUQ",NA,NA,"wolfe","077_R_footrest","wolfe_077_R_footrest-as","wolfe_077_R_footrest-b","wolfe_077_R_footrest-bs",990.041,-1,10,7782,317,361,"1",7.782,0.891091226467724,0,0.891091226467724
"A15GLNTVDPCXUQ",NA,NA,"wolfe","122_R_chair","wolfe_122_R_chair-as","wolfe_122_R_chair-b","wolfe_122_R_chair-bs",1001.801,-1,11,9847,406,156,"1",9.847,0.993303937919474,0,0.993303937919474
"A15GLNTVDPCXUQ",NA,NA,"wolfe","100_R_mirror","wolfe_100_R_mirror-as","wolfe_100_R_mirror-b","wolfe_100_R_mirror-bs",1010.513,-1,12,7702,378,309,"1",7.702,0.886603514286712,0,0.886603514286712
"A15GLNTVDPCXUQ",NA,NA,"wolfe","045_R_musicdock","wolfe_045_R_musicdock-as","wolfe_045_R_musicdock-b","wolfe_045_R_musicdock-bs",1044.057,-1,15,8377,587,275,"1",8.377,0.923088515442399,0,0.923088515442399
"A15GLNTVDPCXUQ",NA,NA,"wolfe","095_R_candle","wolfe_095_R_candle-as","wolfe_095_R_candle-b","wolfe_095_R_candle-bs",1056.616,-1,16,10726,461,291,"1",10.726,1.03043779262705,0,1.03043779262705
"A15GLNTVDPCXUQ",NA,NA,"wolfe","005_R_mirror","wolfe_005_R_mirror-as","wolfe_005_R_mirror-b","wolfe_005_R_mirror-bs",1066.136,-1,17,7761,506,238,"1",7.761,0.889917683436206,0,0.889917683436206
"A15GLNTVDPCXUQ",NA,NA,"wolfe","028_R_vase","wolfe_028_R_vase-as","wolfe_028_R_vase-b","wolfe_028_R_vase-bs",1077.504,-1,18,9791,459,307,"1",9.791,0.990827050567479,0,0.990827050567479
"A15GLNTVDPCXUQ",NA,NA,"wolfe","111_R_pot","wolfe_111_R_pot-as","wolfe_111_R_pot-b","wolfe_111_R_pot-bs",1093.176,-1,19,14462,473,380,"1",14.462,1.16022835719786,0,1.16022835719786
"A15GLNTVDPCXUQ",NA,NA,"wolfe","075_R_light","wolfe_075_R_light-as","wolfe_075_R_light-b","wolfe_075_R_light-bs",1102.752,-1,20,7787,529,53,"1",7.787,0.891370174696148,0,0.891370174696148
"A15GLNTVDPCXUQ",NA,NA,"wolfe","117_R_plant_sized","wolfe_117_R_plant_sized-as","wolfe_117_R_plant_sized-b","wolfe_117_R_plant_sized-bs",1112.943,-1,21,9319,598,336,"1",9.319,0.969369311733527,0,0.969369311733527
"A15GLNTVDPCXUQ",NA,NA,"wolfe","037_R_towel","wolfe_037_R_towel-as","wolfe_037_R_towel-b","wolfe_037_R_towel-bs",1121.943,-1,22,8401,344,225,"1",8.401,0.924330984708678,0,0.924330984708678
"A15GLNTVDPCXUQ",NA,NA,"wolfe","078_R_faucet","wolfe_078_R_faucet-as","wolfe_078_R_faucet-b","wolfe_078_R_faucet-bs",1138.175,-1,24,7752,404,384,"1",7.752,0.889413764042709,0,0.889413764042709
"A15GLNTVDPCXUQ",NA,NA,"wolfe","101_R_cup","wolfe_101_R_cup-as","wolfe_101_R_cup-b","wolfe_101_R_cup-bs",1155.735,-1,26,7535,360,150,"1",7.535,0.877083256650651,0,0.877083256650651
"A15GLNTVDPCXUQ",NA,NA,"wolfe","050_R_book","wolfe_050_R_book-as","wolfe_050_R_book-b","wolfe_050_R_book-bs",1164.167,-1,27,7811,570,65,"1",7.811,0.892706637805666,0,0.892706637805666
"A15GLNTVDPCXUQ",NA,NA,"wolfe","116_R_basket","wolfe_116_R_basket-as","wolfe_116_R_basket-b","wolfe_116_R_basket-bs",1174.343,-1,28,9586,548,432,"1",9.586,0.981637424655769,0,0.981637424655769
"A15GLNTVDPCXUQ",NA,NA,"wolfe","023_R_remote","wolfe_023_R_remote-as","wolfe_023_R_remote-b","wolfe_023_R_remote-bs",1183.935,-1,29,9031,464,477,"1",9.031,0.955735842277666,0,0.955735842277666
"A15GLNTVDPCXUQ",NA,NA,"wolfe","097_R_light","wolfe_097_R_light-as","wolfe_097_R_light-b","wolfe_097_R_light-bs",1192.719,-1,30,8076,341,173,"1",8.076,0.907196310271602,0,0.907196310271602
"A15GLNTVDPCXUQ",NA,NA,"wolfe","022_R_lamp","wolfe_022_R_lamp-as","wolfe_022_R_lamp-b","wolfe_022_R_lamp-bs",1202.127,-1,31,8911,440,76,"1",8.911,0.949926443667912,0,0.949926443667912
"A15GLNTVDPCXUQ",NA,NA,"wolfe","002_R_napkin","wolfe_002_R_napkin-as","wolfe_002_R_napkin-b","wolfe_002_R_napkin-bs",1218.407,-1,32,15398,385,408,"1",15.398,1.18746431529292,0,1.18746431529292
"A173A97OFDAX9F",NA,NA,"wolfe","067_R_painting","wolfe_067_R_painting-as","wolfe_067_R_painting-b","wolfe_067_R_painting-bs",131.341,-1,11,9078,628,327,"1",9.078,0.95799017840683,0,0.95799017840683
"A173A97OFDAX9F",NA,NA,"wolfe","074_R_book","wolfe_074_R_book-as","wolfe_074_R_book-b","wolfe_074_R_book-bs",152.269,-1,13,9463,409,324,"1",9.463,0.976028840091126,0,0.976028840091126
"A173A97OFDAX9F",NA,NA,"wolfe","092_R_candles","wolfe_092_R_candles-as","wolfe_092_R_candles-b","wolfe_092_R_candles-bs",163.581,-1,14,10885,642,451,"1",10.885,1.03682843337711,0,1.03682843337711
"A173A97OFDAX9F",NA,NA,"wolfe","120_R_art","wolfe_120_R_art-as","wolfe_120_R_art-b","wolfe_120_R_art-bs",238.084,-1,18,7099,461,149,"1",7.099,0.851197176174161,0,0.851197176174161
"A173A97OFDAX9F",NA,NA,"wolfe","111_R_pot","wolfe_111_R_pot-as","wolfe_111_R_pot-b","wolfe_111_R_pot-bs",270.244,-1,21,6796,464,379,"1",6.796,0.832253370197008,0,0.832253370197008
"A173A97OFDAX9F",NA,NA,"wolfe","109_R_pillow","wolfe_109_R_pillow-as","wolfe_109_R_pillow-b","wolfe_109_R_pillow-bs",345.165,-1,26,6684,400,288,"1",6.684,0.825036441221354,0,0.825036441221354
"A173A97OFDAX9F",NA,NA,"wolfe","124_R_vase","wolfe_124_R_vase-as","wolfe_124_R_vase-b","wolfe_124_R_vase-bs",375.644,-1,29,6732,496,365,"1",6.732,0.828144107303786,0,0.828144107303786
"A17LF7GCAFYMSL",NA,NA,"wolfe","126_R_candles","wolfe_126_R_candles-as","wolfe_126_R_candles-b","wolfe_126_R_candles-bs",298.465,-1,6,11412,641,278,"1",11.412,1.05736176298504,0,1.05736176298504
"A17LF7GCAFYMSL",NA,NA,"wolfe","013_R_lamp","wolfe_013_R_lamp-as","wolfe_013_R_lamp-b","wolfe_013_R_lamp-bs",331.519,-1,8,9175,518,166,"1",9.175,0.962606072924127,0,0.962606072924127
"A17LF7GCAFYMSL",NA,NA,"wolfe","083_R_knob","wolfe_083_R_knob-as","wolfe_083_R_knob-b","wolfe_083_R_knob-bs",344.824,-1,9,10917,582,385,"1",10.917,1.0381033103059,0,1.0381033103059
"A17LF7GCAFYMSL",NA,NA,"wolfe","071_R_art","wolfe_071_R_art-as","wolfe_071_R_art-b","wolfe_071_R_art-bs",361.963,-1,10,15570,501,267,"1",15.57,1.19228861256812,0,1.19228861256812
"A17LF7GCAFYMSL",NA,NA,"wolfe","025_R_vase","wolfe_025_R_vase-as","wolfe_025_R_vase-b","wolfe_025_R_vase-bs",377.095,-1,11,13024,628,319,"1",13.024,1.11474438754513,0,1.11474438754513
"A17LF7GCAFYMSL",NA,NA,"wolfe","023_R_remote","wolfe_023_R_remote-as","wolfe_023_R_remote-b","wolfe_023_R_remote-bs",401.884,-1,13,10682,436,459,"1",10.682,1.02865257363312,0,1.02865257363312
"A17LF7GCAFYMSL",NA,NA,"wolfe","022_R_lamp","wolfe_022_R_lamp-as","wolfe_022_R_lamp-b","wolfe_022_R_lamp-bs",419.47,-1,14,15508,437,69,"1",15.508,1.19055579233517,0,1.19055579233517
"A17LF7GCAFYMSL",NA,NA,"wolfe","128_R_pot","wolfe_128_R_pot-as","wolfe_128_R_pot-b","wolfe_128_R_pot-bs",440.761,-1,15,19138,501,246,"1",19.138,1.28189655024606,0,1.28189655024606
"A17LF7GCAFYMSL",NA,NA,"wolfe","102_R_shoppingbag","wolfe_102_R_shoppingbag-as","wolfe_102_R_shoppingbag-b","wolfe_102_R_shoppingbag-bs",451.615,-1,16,9302,471,353,"1",9.302,0.968576335175498,0,0.968576335175498
"A17LF7GCAFYMSL",NA,NA,"wolfe","097_R_light","wolfe_097_R_light-as","wolfe_097_R_light-b","wolfe_097_R_light-bs",460.794,-1,17,6907,345,173,"1",6.907,0.839289456006147,0,0.839289456006147
"A17LF7GCAFYMSL",NA,NA,"wolfe","029_R_glass","wolfe_029_R_glass-as","wolfe_029_R_glass-b","wolfe_029_R_glass-bs",471.374,-1,18,8570,483,256,"1",8.57,0.932980821923198,0,0.932980821923198
"A17LF7GCAFYMSL",NA,NA,"wolfe","109_R_pillow","wolfe_109_R_pillow-as","wolfe_109_R_pillow-b","wolfe_109_R_pillow-bs",485.093,-1,19,11050,401,298,"1",11.05,1.04336227802113,0,1.04336227802113
"A17LF7GCAFYMSL",NA,NA,"wolfe","036_R_bowl","wolfe_036_R_bowl-as","wolfe_036_R_bowl-b","wolfe_036_R_bowl-bs",550.825,-1,23,21343,358,207,"1",21.343,1.32925546437964,0,1.32925546437964
"A17LF7GCAFYMSL",NA,NA,"wolfe","021_R_keyboard","wolfe_021_R_keyboard-as","wolfe_021_R_keyboard-b","wolfe_021_R_keyboard-bs",561.882,-1,24,8930,534,346,"1",8.93,0.950851458888546,0,0.950851458888546
"A17LF7GCAFYMSL",NA,NA,"wolfe","074_R_book","wolfe_074_R_book-as","wolfe_074_R_book-b","wolfe_074_R_book-bs",570.549,-1,25,6743,421,319,"1",6.743,0.82885315967664,0,0.82885315967664
"A17LF7GCAFYMSL",NA,NA,"wolfe","108_R_boa","wolfe_108_R_boa-as","wolfe_108_R_boa-b","wolfe_108_R_boa-bs",589.824,-1,27,6608,349,212,"1",6.608,0.820070034312326,0,0.820070034312326
"A17LF7GCAFYMSL",NA,NA,"wolfe","019_R_lamp_sized","wolfe_019_R_lamp_sized-as","wolfe_019_R_lamp_sized-b","wolfe_019_R_lamp_sized-bs",609.276,-1,28,17346,465,143,"1",17.346,1.2391993420543,0,1.2391993420543
"A17LF7GCAFYMSL",NA,NA,"wolfe","054_R_firewood","wolfe_054_R_firewood-as","wolfe_054_R_firewood-b","wolfe_054_R_firewood-bs",619.929,-1,29,8630,641,314,"1",8.63,0.93601079571521,0,0.93601079571521
"A17LF7GCAFYMSL",NA,NA,"wolfe","116_R_basket","wolfe_116_R_basket-as","wolfe_116_R_basket-b","wolfe_116_R_basket-bs",632.037,-1,30,8797,533,435,"1",8.797,0.944334591970782,0,0.944334591970782
"A17LF7GCAFYMSL",NA,NA,"wolfe","043_R_clock","wolfe_043_R_clock-as","wolfe_043_R_clock-b","wolfe_043_R_clock-bs",647.6,-1,31,12940,453,210,"1",12.94,1.11193427633268,0,1.11193427633268
"A17LF7GCAFYMSL",NA,NA,"wolfe","052_R_speaker","wolfe_052_R_speaker-as","wolfe_052_R_speaker-b","wolfe_052_R_speaker-bs",660.606,-1,32,10911,477,324,"1",10.911,1.03786455577437,0,1.03786455577437
"A17M8NL5LMUB8S",NA,NA,"wolfe","013_R_lamp","wolfe_013_R_lamp-as","wolfe_013_R_lamp-b","wolfe_013_R_lamp-bs",82.35,-1,3,10786,520,173,"1",10.786,1.03286041595214,0,1.03286041595214
"A17M8NL5LMUB8S",NA,NA,"wolfe","122_R_chair","wolfe_122_R_chair-as","wolfe_122_R_chair-b","wolfe_122_R_chair-bs",91.077,-1,4,6490,400,162,"1",6.49,0.812244696800369,0,0.812244696800369
"A17M8NL5LMUB8S",NA,NA,"wolfe","111_R_pot","wolfe_111_R_pot-as","wolfe_111_R_pot-b","wolfe_111_R_pot-bs",101.87,-1,5,8547,469,385,"1",8.547,0.931813703959139,0,0.931813703959139
"A17M8NL5LMUB8S",NA,NA,"wolfe","078_R_faucet","wolfe_078_R_faucet-as","wolfe_078_R_faucet-b","wolfe_078_R_faucet-bs",112.886,-1,6,6668,400,383,"1",6.668,0.823995591155968,0,0.823995591155968
"A17M8NL5LMUB8S",NA,NA,"wolfe","112_R_basket","wolfe_112_R_basket-as","wolfe_112_R_basket-b","wolfe_112_R_basket-bs",121.478,-1,7,6473,596,397,"1",6.473,0.81110560701793,0,0.81110560701793
"A17M8NL5LMUB8S",NA,NA,"wolfe","105_R_hat","wolfe_105_R_hat-as","wolfe_105_R_hat-b","wolfe_105_R_hat-bs",132.038,-1,8,8664,549,424,"1",8.664,0.937718443617264,0,0.937718443617264
"A17M8NL5LMUB8S",NA,NA,"wolfe","065_R_cd","wolfe_065_R_cd-as","wolfe_065_R_cd-b","wolfe_065_R_cd-bs",140.246,-1,9,6517,486,197,"1",6.517,0.8140477209956,0,0.8140477209956
"A17M8NL5LMUB8S",NA,NA,"wolfe","114_R_bird","wolfe_114_R_bird-as","wolfe_114_R_bird-b","wolfe_114_R_bird-bs",148.566,-1,10,6570,374,362,"1",6.57,0.817565369559781,0,0.817565369559781
"A17M8NL5LMUB8S",NA,NA,"wolfe","018_R_plant","wolfe_018_R_plant-as","wolfe_018_R_plant-b","wolfe_018_R_plant-bs",154.198,-1,11,4675,592,253,"1",4.675,0.669781615208537,0,0.669781615208537
"A17M8NL5LMUB8S",NA,NA,"wolfe","117_R_plant_sized","wolfe_117_R_plant_sized-as","wolfe_117_R_plant_sized-b","wolfe_117_R_plant_sized-bs",159.414,-1,12,4606,585,331,"1",4.606,0.663323933628212,0,0.663323933628212
"A17M8NL5LMUB8S",NA,NA,"wolfe","071_R_art","wolfe_071_R_art-as","wolfe_071_R_art-b","wolfe_071_R_art-bs",164.75,-1,13,4612,504,264,"1",4.612,0.663889298622661,0,0.663889298622661
"A17M8NL5LMUB8S",NA,NA,"wolfe","088_R_clock","wolfe_088_R_clock-as","wolfe_088_R_clock-b","wolfe_088_R_clock-bs",171.533,-1,14,6498,411,71,"1",6.498,0.812779707008964,0,0.812779707008964
"A17M8NL5LMUB8S",NA,NA,"wolfe","115_R_pot","wolfe_115_R_pot-as","wolfe_115_R_pot-b","wolfe_115_R_pot-bs",178.174,-1,15,6463,540,235,"1",6.463,0.810434155922673,0,0.810434155922673
"A17M8NL5LMUB8S",NA,NA,"wolfe","005_R_mirror","wolfe_005_R_mirror-as","wolfe_005_R_mirror-b","wolfe_005_R_mirror-bs",186.021,-1,16,7300,515,231,"1",7.3,0.863322860120456,0,0.863322860120456
"A17M8NL5LMUB8S",NA,NA,"wolfe","072_R_handle","wolfe_072_R_handle-as","wolfe_072_R_handle-b","wolfe_072_R_handle-bs",193.511,-1,17,6836,577,445,"1",6.836,0.834802054048699,0,0.834802054048699
"A17M8NL5LMUB8S",NA,NA,"wolfe","076_R_hook","wolfe_076_R_hook-as","wolfe_076_R_hook-b","wolfe_076_R_hook-bs",200.366,-1,18,6478,627,197,"1",6.478,0.811440943674158,0,0.811440943674158
"A17M8NL5LMUB8S",NA,NA,"wolfe","081_R_football","wolfe_081_R_football-as","wolfe_081_R_football-b","wolfe_081_R_football-bs",208.254,-1,19,6832,361,353,"1",6.832,0.834547857680949,0,0.834547857680949
"A17M8NL5LMUB8S",NA,NA,"wolfe","003_R_ducks","wolfe_003_R_ducks-as","wolfe_003_R_ducks-b","wolfe_003_R_ducks-bs",215.781,-1,20,6563,426,329,"1",6.563,0.817102404256923,0,0.817102404256923
"A17M8NL5LMUB8S",NA,NA,"wolfe","040_R_painting","wolfe_040_R_painting-as","wolfe_040_R_painting-b","wolfe_040_R_painting-bs",246.19,-1,22,6400,541,78,"1",6.4,0.806179973983887,0,0.806179973983887
"A17M8NL5LMUB8S",NA,NA,"wolfe","037_R_towel","wolfe_037_R_towel-as","wolfe_037_R_towel-b","wolfe_037_R_towel-bs",253.67,-1,23,6893,341,225,"1",6.893,0.838408278494187,0,0.838408278494187
"A17M8NL5LMUB8S",NA,NA,"wolfe","043_R_clock","wolfe_043_R_clock-as","wolfe_043_R_clock-b","wolfe_043_R_clock-bs",260.934,-1,24,6931,453,209,"1",6.931,0.840795898847094,0,0.840795898847094
"A17M8NL5LMUB8S",NA,NA,"wolfe","083_R_knob","wolfe_083_R_knob-as","wolfe_083_R_knob-b","wolfe_083_R_knob-bs",270.686,-1,25,8951,588,379,"1",8.951,0.951871557128364,0,0.951871557128364
"A17M8NL5LMUB8S",NA,NA,"wolfe","123_R_pot","wolfe_123_R_pot-as","wolfe_123_R_pot-b","wolfe_123_R_pot-bs",278.029,-1,26,6741,640,388,"1",6.741,0.828724327138791,0,0.828724327138791
"A17M8NL5LMUB8S",NA,NA,"wolfe","095_R_candle","wolfe_095_R_candle-as","wolfe_095_R_candle-b","wolfe_095_R_candle-bs",285.526,-1,27,6827,465,289,"1",6.827,0.834229902851677,0,0.834229902851677
"A17M8NL5LMUB8S",NA,NA,"wolfe","093_R_switch","wolfe_093_R_switch-as","wolfe_093_R_switch-b","wolfe_093_R_switch-bs",292.869,-1,28,6647,533,359,"1",6.647,0.822625678774141,0,0.822625678774141
"A17M8NL5LMUB8S",NA,NA,"wolfe","125_R_sofa","wolfe_125_R_sofa-as","wolfe_125_R_sofa-b","wolfe_125_R_sofa-bs",302.741,-1,29,9431,574,345,"1",9.431,0.97455774485358,0,0.97455774485358
"A17M8NL5LMUB8S",NA,NA,"wolfe","107_R_shirts","wolfe_107_R_shirts-as","wolfe_107_R_shirts-b","wolfe_107_R_shirts-bs",316.07,-1,31,6660,525,256,"1",6.66,0.823474229170301,0,0.823474229170301
"A17M8NL5LMUB8S",NA,NA,"wolfe","101_R_cup","wolfe_101_R_cup-as","wolfe_101_R_cup-b","wolfe_101_R_cup-bs",321.574,-1,32,4811,353,141,"1",4.811,0.682235356902564,0,0.682235356902564
"A18MHXGNZMORFP",NA,NA,"wolfe","124_R_vase","wolfe_124_R_vase-as","wolfe_124_R_vase-b","wolfe_124_R_vase-bs",110.14,-1,4,9275,489,370,"1",9.275,0.967313918287083,0,0.967313918287083
"A18MHXGNZMORFP",NA,NA,"wolfe","067_R_painting","wolfe_067_R_painting-as","wolfe_067_R_painting-b","wolfe_067_R_painting-bs",119.02,-1,5,6943,633,330,"1",6.943,0.841547165256553,0,0.841547165256553
"A18MHXGNZMORFP",NA,NA,"wolfe","096_R_painting","wolfe_096_R_painting-as","wolfe_096_R_painting-b","wolfe_096_R_painting-bs",137.807,-1,7,6784,604,221,"1",6.784,0.831485839248657,0,0.831485839248657
"A18MHXGNZMORFP",NA,NA,"wolfe","091_R_airfreshener","wolfe_091_R_airfreshener-as","wolfe_091_R_airfreshener-b","wolfe_091_R_airfreshener-bs",146.19,-1,8,6839,501,189,"1",6.839,0.83499260373303,0,0.83499260373303
"A18MHXGNZMORFP",NA,NA,"wolfe","117_R_plant_sized","wolfe_117_R_plant_sized-as","wolfe_117_R_plant_sized-b","wolfe_117_R_plant_sized-bs",153.491,-1,9,6703,591,340,"1",6.703,0.826269219393726,0,0.826269219393726
"A18MHXGNZMORFP",NA,NA,"wolfe","121_R_car","wolfe_121_R_car-as","wolfe_121_R_car-b","wolfe_121_R_car-bs",160.617,-1,10,6699,621,348,"1",6.699,0.8260099777911,0,0.8260099777911
"A18MHXGNZMORFP",NA,NA,"wolfe","109_R_pillow","wolfe_109_R_pillow-as","wolfe_109_R_pillow-b","wolfe_109_R_pillow-bs",167.716,-1,11,6601,396,285,"1",6.601,0.819609732751585,0,0.819609732751585
"A18MHXGNZMORFP",NA,NA,"wolfe","056_R_comforter","wolfe_056_R_comforter-as","wolfe_056_R_comforter-b","wolfe_056_R_comforter-bs",174.889,-1,12,6662,524,336,"1",6.662,0.823604628355158,0,0.823604628355158
"A18MHXGNZMORFP",NA,NA,"wolfe","016_R_art","wolfe_016_R_art-as","wolfe_016_R_art-b","wolfe_016_R_art-bs",220.034,-1,14,8143,621,189,"1",8.143,0.910784434792837,0,0.910784434792837
"A18MHXGNZMORFP",NA,NA,"wolfe","008_R_bottle","wolfe_008_R_bottle-as","wolfe_008_R_bottle-b","wolfe_008_R_bottle-bs",227.405,-1,15,6682,594,317,"1",6.682,0.824906471302112,0,0.824906471302112
"A18MHXGNZMORFP",NA,NA,"wolfe","023_R_remote","wolfe_023_R_remote-as","wolfe_023_R_remote-b","wolfe_023_R_remote-bs",234.619,-1,16,6702,447,470,"1",6.702,0.826204423499253,0,0.826204423499253
"A18MHXGNZMORFP",NA,NA,"wolfe","079_R_bowl","wolfe_079_R_bowl-as","wolfe_079_R_bowl-b","wolfe_079_R_bowl-bs",241.942,-1,17,6617,393,109,"1",6.617,0.820661134643595,0,0.820661134643595
"A18MHXGNZMORFP",NA,NA,"wolfe","015_R_ceilinglight","wolfe_015_R_ceilinglight-as","wolfe_015_R_ceilinglight-b","wolfe_015_R_ceilinglight-bs",263.82,-1,20,6792,576,84,"1",6.792,0.831997677235896,0,0.831997677235896
"A18MHXGNZMORFP",NA,NA,"wolfe","009_R_carpet","wolfe_009_R_carpet-as","wolfe_009_R_carpet-b","wolfe_009_R_carpet-bs",278.364,-1,22,6702,435,441,"1",6.702,0.826204423499253,0,0.826204423499253
"A18MHXGNZMORFP",NA,NA,"wolfe","053_R_handle","wolfe_053_R_handle-as","wolfe_053_R_handle-b","wolfe_053_R_handle-bs",285.967,-1,23,6715,503,329,"1",6.715,0.827046017004734,0,0.827046017004734
"A18MHXGNZMORFP",NA,NA,"wolfe","064_R_bottles","wolfe_064_R_bottles-as","wolfe_064_R_bottles-b","wolfe_064_R_bottles-bs",323.892,-1,25,6919,549,219,"1",6.919,0.840043330603494,0,0.840043330603494
"A18MHXGNZMORFP",NA,NA,"wolfe","068_R_faucet","wolfe_068_R_faucet-as","wolfe_068_R_faucet-b","wolfe_068_R_faucet-bs",331.369,-1,26,6926,380,305,"1",6.926,0.840482487213442,0,0.840482487213442
"A18MHXGNZMORFP",NA,NA,"wolfe","038_R_art","wolfe_038_R_art-as","wolfe_038_R_art-b","wolfe_038_R_art-bs",338.857,-1,27,6760,363,171,"1",6.76,0.829946695941636,0,0.829946695941636
"A18MHXGNZMORFP",NA,NA,"wolfe","074_R_book","wolfe_074_R_book-as","wolfe_074_R_book-b","wolfe_074_R_book-bs",346.165,-1,28,6778,413,321,"1",6.778,0.831101564501359,0,0.831101564501359
"A18MHXGNZMORFP",NA,NA,"wolfe","093_R_switch","wolfe_093_R_switch-as","wolfe_093_R_switch-b","wolfe_093_R_switch-bs",353.824,-1,29,7138,541,366,"1",7.138,0.853576543619642,0,0.853576543619642
"A18MHXGNZMORFP",NA,NA,"wolfe","052_R_speaker","wolfe_052_R_speaker-as","wolfe_052_R_speaker-b","wolfe_052_R_speaker-bs",371.051,-1,31,6762,496,332,"1",6.762,0.83007516642975,0,0.83007516642975
"A1AT47U7BICOLR",NA,NA,"wolfe","113_L_plant","wolfe_113_L_plant-as","wolfe_113_L_plant-b","wolfe_113_L_plant-bs",175.169,-1,17,4049,302,259,"1",4.049,0.607347776768413,0,0.607347776768413
"A1B5O1E2T429ET",NA,NA,"wolfe","014_L_lamp","wolfe_014_L_lamp-as","wolfe_014_L_lamp-b","wolfe_014_L_lamp-bs",142.143,-1,6,7362,163,124,"1",7.362,0.866995813110648,0,0.866995813110648
"A1B5O1E2T429ET",NA,NA,"wolfe","112_L_basket","wolfe_112_L_basket-as","wolfe_112_L_basket-b","wolfe_112_L_basket-bs",149.68,-1,7,6882,61,405,"1",6.882,0.837714668284911,0,0.837714668284911
"A1B5O1E2T429ET",NA,NA,"wolfe","123_L_pot","wolfe_123_L_pot-as","wolfe_123_L_pot-b","wolfe_123_L_pot-bs",159.663,-1,8,9187,16,380,"1",9.187,0.963173716375252,0,0.963173716375252
"A1B5O1E2T429ET",NA,NA,"wolfe","027_L_soapdish","wolfe_027_L_soapdish-as","wolfe_027_L_soapdish-b","wolfe_027_L_soapdish-bs",168.064,-1,9,6881,35,279,"1",6.881,0.837651557846392,0,0.837651557846392
"A1B5O1E2T429ET",NA,NA,"wolfe","125_L_sofa","wolfe_125_L_sofa-as","wolfe_125_L_sofa-b","wolfe_125_L_sofa-bs",176.048,-1,10,6884,100,350,"1",6.884,0.837840861655523,0,0.837840861655523
"A1B5O1E2T429ET",NA,NA,"wolfe","025_L_vase","wolfe_025_L_vase-as","wolfe_025_L_vase-b","wolfe_025_L_vase-bs",204.096,-1,13,8857,42,339,"1",8.857,0.947286644677798,0,0.947286644677798
"A1B5O1E2T429ET",NA,NA,"wolfe","040_L_painting","wolfe_040_L_painting-as","wolfe_040_L_painting-b","wolfe_040_L_painting-bs",213.55,-1,14,8648,139,86,"1",8.648,0.936915680945254,0,0.936915680945254
"A1B5O1E2T429ET",NA,NA,"wolfe","128_L_pot","wolfe_128_L_pot-as","wolfe_128_L_pot-b","wolfe_128_L_pot-bs",244.264,-1,17,6986,153,256,"1",6.986,0.844228581301628,0,0.844228581301628
"A1B5O1E2T429ET",NA,NA,"wolfe","117_L_plant_sized","wolfe_117_L_plant_sized-as","wolfe_117_L_plant_sized-b","wolfe_117_L_plant_sized-bs",251.935,-1,18,6817,109,324,"1",6.817,0.833593293998456,0,0.833593293998456
"A1B5O1E2T429ET",NA,NA,"wolfe","051_L_owl","wolfe_051_L_owl-as","wolfe_051_L_owl-b","wolfe_051_L_owl-bs",259.327,-1,19,6618,269,297,"1",6.618,0.820726762823834,0,0.820726762823834
"A1B5O1E2T429ET",NA,NA,"wolfe","116_L_basket","wolfe_116_L_basket-as","wolfe_116_L_basket-b","wolfe_116_L_basket-bs",267.174,-1,20,6623,138,439,"1",6.623,0.821054755046888,0,0.821054755046888
"A1B5O1E2T429ET",NA,NA,"wolfe","113_L_plant","wolfe_113_L_plant-as","wolfe_113_L_plant-b","wolfe_113_L_plant-bs",277.326,-1,21,8910,302,270,"1",8.91,0.949877704036875,0,0.949877704036875
"A1B5O1E2T429ET",NA,NA,"wolfe","119_L_painting","wolfe_119_L_painting-as","wolfe_119_L_painting-b","wolfe_119_L_painting-bs",295.287,-1,23,8726,255,249,"1",8.726,0.940815208650801,0,0.940815208650801
"A1B5O1E2T429ET",NA,NA,"wolfe","127_L_light","wolfe_127_L_light-as","wolfe_127_L_light-b","wolfe_127_L_light-bs",305.024,-1,24,8968,203,208,"1",8.968,0.952695599586917,0,0.952695599586917
"A1B5O1E2T429ET",NA,NA,"wolfe","115_L_pot","wolfe_115_L_pot-as","wolfe_115_L_pot-b","wolfe_115_L_pot-bs",314.863,-1,25,9043,128,239,"1",9.043,0.956312530841194,0,0.956312530841194
"A1B5O1E2T429ET",NA,NA,"wolfe","048_L_art","wolfe_048_L_art-as","wolfe_048_L_art-b","wolfe_048_L_art-bs",356.895,-1,29,13057,32,262,"1",13.057,1.11584340411282,0,1.11584340411282
"A1B5O1E2T429ET",NA,NA,"wolfe","084_L_light","wolfe_084_L_light-as","wolfe_084_L_light-b","wolfe_084_L_light-bs",374.088,-1,31,8771,138,158,"1",8.771,0.943049111008407,0,0.943049111008407
"A1B5O1E2T429ET",NA,NA,"wolfe","050_L_book","wolfe_050_L_book-as","wolfe_050_L_book-b","wolfe_050_L_book-bs",387.855,-1,32,12867,103,67,"1",12.867,1.10947730095874,0,1.10947730095874
"A1BM57TUNAQIXM",NA,NA,"wolfe","007_L_soap","wolfe_007_L_soap-as","wolfe_007_L_soap-b","wolfe_007_L_soap-bs",175.682,-1,3,25257,169,481,"1",25.257,1.4023817642391,0,1.4023817642391
"A1BM57TUNAQIXM",NA,NA,"wolfe","125_L_sofa","wolfe_125_L_sofa-as","wolfe_125_L_sofa-b","wolfe_125_L_sofa-bs",187.805,-1,5,10982,95,343,"1",10.982,1.04068143937336,0,1.04068143937336
"A1BM57TUNAQIXM",NA,NA,"wolfe","028_L_vase","wolfe_028_L_vase-as","wolfe_028_L_vase-b","wolfe_028_L_vase-bs",197.892,-1,6,8733,189,298,"1",8.733,0.941163460158473,0,0.941163460158473
"A1BM57TUNAQIXM",NA,NA,"wolfe","040_L_painting","wolfe_040_L_painting-as","wolfe_040_L_painting-b","wolfe_040_L_painting-bs",205.886,-1,7,6764,138,87,"1",6.764,0.830203598925704,0,0.830203598925704
"A1BM57TUNAQIXM",NA,NA,"wolfe","025_L_vase","wolfe_025_L_vase-as","wolfe_025_L_vase-b","wolfe_025_L_vase-bs",215.968,-1,8,8642,39,310,"1",8.642,0.936614261975211,0,0.936614261975211
"A1BM57TUNAQIXM",NA,NA,"wolfe","006_L_vase","wolfe_006_L_vase-as","wolfe_006_L_vase-b","wolfe_006_L_vase-bs",225.844,-1,9,8672,188,250,"1",8.672,0.938119269194312,0,0.938119269194312
"A1BM57TUNAQIXM",NA,NA,"wolfe","102_L_shoppingbag","wolfe_102_L_shoppingbag-as","wolfe_102_L_shoppingbag-b","wolfe_102_L_shoppingbag-bs",235.512,-1,10,8606,183,351,"1",8.606,0.934801341746537,0,0.934801341746537
"A1BM57TUNAQIXM",NA,NA,"wolfe","095_L_candle","wolfe_095_L_candle-as","wolfe_095_L_candle-b","wolfe_095_L_candle-bs",245.349,-1,11,8793,201,282,"1",8.793,0.944137073158098,0,0.944137073158098
"A1BM57TUNAQIXM",NA,NA,"wolfe","056_L_comforter","wolfe_056_L_comforter-as","wolfe_056_L_comforter-b","wolfe_056_L_comforter-bs",258.776,-1,12,12820,157,346,"1",12.82,1.1078880251828,0,1.1078880251828
"A1BM57TUNAQIXM",NA,NA,"wolfe","051_L_owl","wolfe_051_L_owl-as","wolfe_051_L_owl-b","wolfe_051_L_owl-bs",268.404,-1,13,8591,269,297,"1",8.591,0.934043719035525,0,0.934043719035525
"A1BM57TUNAQIXM",NA,NA,"wolfe","044_L_light","wolfe_044_L_light-as","wolfe_044_L_light-b","wolfe_044_L_light-bs",275.942,-1,14,6702,289,387,"1",6.702,0.826204423499253,0,0.826204423499253
"A1BM57TUNAQIXM",NA,NA,"wolfe","018_L_plant","wolfe_018_L_plant-as","wolfe_018_L_plant-b","wolfe_018_L_plant-bs",285.232,-1,15,8546,85,289,"1",8.546,0.931762888481178,0,0.931762888481178
"A1BM57TUNAQIXM",NA,NA,"wolfe","016_L_art","wolfe_016_L_art-as","wolfe_016_L_art-b","wolfe_016_L_art-bs",292.726,-1,16,6602,47,183,"1",6.602,0.819675519994293,0,0.819675519994293
"A1BM57TUNAQIXM",NA,NA,"wolfe","003_L_ducks","wolfe_003_L_ducks-as","wolfe_003_L_ducks-b","wolfe_003_L_ducks-bs",302.188,-1,17,8564,238,332,"1",8.564,0.932676658622401,0,0.932676658622401
"A1BM57TUNAQIXM",NA,NA,"wolfe","019_L_lamp_sized","wolfe_019_L_lamp_sized-as","wolfe_019_L_lamp_sized-b","wolfe_019_L_lamp_sized-bs",331.986,-1,20,12831,191,137,"1",12.831,1.10826050497647,0,1.10826050497647
"A1BM57TUNAQIXM",NA,NA,"wolfe","064_L_bottles","wolfe_064_L_bottles-as","wolfe_064_L_bottles-b","wolfe_064_L_bottles-bs",394.489,-1,23,8633,125,217,"1",8.633,0.936161740911158,0,0.936161740911158
"A1BM57TUNAQIXM",NA,NA,"wolfe","100_L_mirror","wolfe_100_L_mirror-as","wolfe_100_L_mirror-b","wolfe_100_L_mirror-bs",450.097,-1,26,8787,333,291,"1",8.787,0.943840626401261,0,0.943840626401261
"A1BM57TUNAQIXM",NA,NA,"wolfe","050_L_book","wolfe_050_L_book-as","wolfe_050_L_book-b","wolfe_050_L_book-bs",457.923,-1,27,6844,110,61,"1",6.844,0.835310000869063,0,0.835310000869063
"A1BM57TUNAQIXM",NA,NA,"wolfe","092_L_candles","wolfe_092_L_candles-as","wolfe_092_L_candles-b","wolfe_092_L_candles-bs",482.081,-1,28,23412,22,451,"1",23.412,1.36943851544214,0,1.36943851544214
"A1BM57TUNAQIXM",NA,NA,"wolfe","098_L_slippers","wolfe_098_L_slippers-as","wolfe_098_L_slippers-b","wolfe_098_L_slippers-bs",533.463,-1,30,6625,254,373,"1",6.625,0.821185882608846,0,0.821185882608846
"A1BM57TUNAQIXM",NA,NA,"wolfe","086_L_book","wolfe_086_L_book-as","wolfe_086_L_book-b","wolfe_086_L_book-bs",543.565,-1,31,8982,243,307,"1",8.982,0.953373050726696,0,0.953373050726696
"A1BM57TUNAQIXM",NA,NA,"wolfe","105_L_hat","wolfe_105_L_hat-as","wolfe_105_L_hat-b","wolfe_105_L_hat-bs",553.129,-1,32,8716,119,423,"1",8.716,0.940317221574218,0,0.940317221574218
"A1BQTDDVCHQM5T",NA,NA,"wolfe","015_R_ceilinglight","wolfe_015_R_ceilinglight-as","wolfe_015_R_ceilinglight-b","wolfe_015_R_ceilinglight-bs",95.241,-1,3,20681,567,90,"1",20.681,1.31557153461445,0,1.31557153461445
"A1BQTDDVCHQM5T",NA,NA,"wolfe","103_R_hook","wolfe_103_R_hook-as","wolfe_103_R_hook-b","wolfe_103_R_hook-bs",110.033,-1,4,13554,643,101,"1",13.554,1.13206748130401,0,1.13206748130401
"A1BQTDDVCHQM5T",NA,NA,"wolfe","030_R_drawer","wolfe_030_R_drawer-as","wolfe_030_R_drawer-b","wolfe_030_R_drawer-bs",121.441,-1,5,10300,420,307,"1",10.3,1.01283722470517,0,1.01283722470517
"A1BQTDDVCHQM5T",NA,NA,"wolfe","108_R_boa","wolfe_108_R_boa-as","wolfe_108_R_boa-b","wolfe_108_R_boa-bs",135.304,-1,6,12687,342,210,"1",12.687,1.10335893986656,0,1.10335893986656
"A1BQTDDVCHQM5T",NA,NA,"wolfe","027_R_soapdish","wolfe_027_R_soapdish-as","wolfe_027_R_soapdish-b","wolfe_027_R_soapdish-bs",153.521,-1,8,6985,633,272,"1",6.985,0.844166410450201,0,0.844166410450201
"A1BQTDDVCHQM5T",NA,NA,"wolfe","001_R_mirror","wolfe_001_R_mirror-as","wolfe_001_R_mirror-b","wolfe_001_R_mirror-bs",161.232,-1,9,7107,375,180,"1",7.107,0.851686315442428,0,0.851686315442428
"A1BQTDDVCHQM5T",NA,NA,"wolfe","048_R_art","wolfe_048_R_art-as","wolfe_048_R_art-b","wolfe_048_R_art-bs",168.84,-1,10,6927,630,201,"1",6.927,0.840545187636839,0,0.840545187636839
"A1BQTDDVCHQM5T",NA,NA,"wolfe","021_R_keyboard","wolfe_021_R_keyboard-as","wolfe_021_R_keyboard-b","wolfe_021_R_keyboard-bs",177.578,-1,11,7803,540,351,"1",7.803,0.892261606915535,0,0.892261606915535
"A1BQTDDVCHQM5T",NA,NA,"wolfe","045_R_musicdock","wolfe_045_R_musicdock-as","wolfe_045_R_musicdock-b","wolfe_045_R_musicdock-bs",185.176,-1,12,6753,587,266,"1",6.753,0.829496749720182,0,0.829496749720182
"A1BQTDDVCHQM5T",NA,NA,"wolfe","031_R_log","wolfe_031_R_log-as","wolfe_031_R_log-b","wolfe_031_R_log-bs",205.584,-1,15,6778,471,59,"1",6.778,0.831101564501359,0,0.831101564501359
"A1BQTDDVCHQM5T",NA,NA,"wolfe","124_R_vase","wolfe_124_R_vase-as","wolfe_124_R_vase-b","wolfe_124_R_vase-bs",212.464,-1,16,6090,505,371,"1",6.09,0.784617292632875,0,0.784617292632875
"A1BQTDDVCHQM5T",NA,NA,"wolfe","025_R_vase","wolfe_025_R_vase-as","wolfe_025_R_vase-b","wolfe_025_R_vase-bs",220.312,-1,17,6881,623,294,"1",6.881,0.837651557846392,0,0.837651557846392
"A1BQTDDVCHQM5T",NA,NA,"wolfe","058_R_clutch","wolfe_058_R_clutch-as","wolfe_058_R_clutch-b","wolfe_058_R_clutch-bs",234.52,-1,19,5989,473,374,"1",5.989,0.777354313084209,0,0.777354313084209
"A1BQTDDVCHQM5T",NA,NA,"wolfe","113_R_plant","wolfe_113_R_plant-as","wolfe_113_R_plant-b","wolfe_113_R_plant-bs",240.928,-1,20,5687,362,261,"1",5.687,0.754883228252168,0,0.754883228252168
"A1BQTDDVCHQM5T",NA,NA,"wolfe","006_R_vase","wolfe_006_R_vase-as","wolfe_006_R_vase-b","wolfe_006_R_vase-bs",247.705,-1,21,5569,486,255,"1",5.569,0.745777217889759,0,0.745777217889759
"A1BQTDDVCHQM5T",NA,NA,"wolfe","101_R_cup","wolfe_101_R_cup-as","wolfe_101_R_cup-b","wolfe_101_R_cup-bs",254.04,-1,22,5359,354,135,"1",5.359,0.729083757043612,0,0.729083757043612
"A1BQTDDVCHQM5T",NA,NA,"wolfe","076_R_hook","wolfe_076_R_hook-as","wolfe_076_R_hook-b","wolfe_076_R_hook-bs",285.584,-1,26,6731,637,212,"1",6.731,0.828079590556746,0,0.828079590556746
"A1BQTDDVCHQM5T",NA,NA,"wolfe","099_R_sconce","wolfe_099_R_sconce-as","wolfe_099_R_sconce-b","wolfe_099_R_sconce-bs",292.384,-1,27,5873,475,165,"1",5.873,0.768860000842957,0,0.768860000842957
"A1BQTDDVCHQM5T",NA,NA,"wolfe","106_R_toweldispenser","wolfe_106_R_toweldispenser-as","wolfe_106_R_toweldispenser-b","wolfe_106_R_toweldispenser-bs",315.512,-1,30,8988,420,135,"1",8.988,0.953663063747091,0,0.953663063747091
"A1BQTDDVCHQM5T",NA,NA,"wolfe","090_R_lamp","wolfe_090_R_lamp-as","wolfe_090_R_lamp-b","wolfe_090_R_lamp-bs",329.729,-1,32,5360,442,290,"1",5.36,0.72916478969277,0,0.72916478969277
"A1DD39VFCRWI8G",NA,NA,"wolfe","038_L_art","wolfe_038_L_art-as","wolfe_038_L_art-b","wolfe_038_L_art-bs",281.54,-1,17,12003,297,175,"1",12.003,1.07928980609866,0,1.07928980609866
"A1DD39VFCRWI8G",NA,NA,"wolfe","064_L_bottles","wolfe_064_L_bottles-as","wolfe_064_L_bottles-b","wolfe_064_L_bottles-bs",293.116,-1,18,10898,121,225,"1",10.898,1.03734680356809,0,1.03734680356809
"A1DD39VFCRWI8G",NA,NA,"wolfe","104_L_bottle","wolfe_104_L_bottle-as","wolfe_104_L_bottle-b","wolfe_104_L_bottle-bs",303.332,-1,19,9601,323,285,"1",9.601,0.982316469692065,0,0.982316469692065
"A1DD39VFCRWI8G",NA,NA,"wolfe","023_L_remote","wolfe_023_L_remote-as","wolfe_023_L_remote-b","wolfe_023_L_remote-bs",312.723,-1,20,8795,217,460,"1",8.795,0.94423584379348,0,0.94423584379348
"A1DD39VFCRWI8G",NA,NA,"wolfe","056_L_comforter","wolfe_056_L_comforter-as","wolfe_056_L_comforter-b","wolfe_056_L_comforter-bs",320.907,-1,21,7593,162,337,"1",7.593,0.880413399877917,0,0.880413399877917
"A1DD39VFCRWI8G",NA,NA,"wolfe","124_L_vase","wolfe_124_L_vase-as","wolfe_124_L_vase-b","wolfe_124_L_vase-bs",330.403,-1,22,8941,174,368,"1",8.941,0.951386094880293,0,0.951386094880293
"A1DD39VFCRWI8G",NA,NA,"wolfe","079_L_bowl","wolfe_079_L_bowl-as","wolfe_079_L_bowl-b","wolfe_079_L_bowl-bs",340.315,-1,23,9114,264,107,"1",9.114,0.95970902424643,0,0.95970902424643
"A1DD39VFCRWI8G",NA,NA,"wolfe","075_L_light","wolfe_075_L_light-as","wolfe_075_L_light-b","wolfe_075_L_light-bs",349.875,-1,24,8835,141,50,"1",8.835,0.946206553842783,0,0.946206553842783
"A1DD39VFCRWI8G",NA,NA,"wolfe","006_L_vase","wolfe_006_L_vase-as","wolfe_006_L_vase-b","wolfe_006_L_vase-bs",359.355,-1,25,8765,198,246,"1",8.765,0.942751920429814,0,0.942751920429814
"A1DD39VFCRWI8G",NA,NA,"wolfe","035_L_fruit","wolfe_035_L_fruit-as","wolfe_035_L_fruit-b","wolfe_035_L_fruit-bs",368.051,-1,26,7899,140,285,"1",7.899,0.897572113825731,0,0.897572113825731
"A1DD39VFCRWI8G",NA,NA,"wolfe","059_L_car","wolfe_059_L_car-as","wolfe_059_L_car-b","wolfe_059_L_car-bs",376.819,-1,27,8061,226,159,"1",8.061,0.906388921152831,0,0.906388921152831
"A1DD39VFCRWI8G",NA,NA,"wolfe","126_L_candles","wolfe_126_L_candles-as","wolfe_126_L_candles-b","wolfe_126_L_candles-bs",387.163,-1,28,9685,27,282,"1",9.685,0.98609962505513,0,0.98609962505513
"A1DD39VFCRWI8G",NA,NA,"wolfe","063_L_laptop","wolfe_063_L_laptop-as","wolfe_063_L_laptop-b","wolfe_063_L_laptop-bs",405.651,-1,29,17871,53,279,"1",17.871,1.25214885481851,0,1.25214885481851
"A1DD39VFCRWI8G",NA,NA,"wolfe","050_L_book","wolfe_050_L_book-as","wolfe_050_L_book-b","wolfe_050_L_book-bs",418.019,-1,30,11688,101,60,"1",11.688,1.06774020292624,0,1.06774020292624
"A1DD39VFCRWI8G",NA,NA,"wolfe","116_L_basket","wolfe_116_L_basket-as","wolfe_116_L_basket-b","wolfe_116_L_basket-bs",429.474,-1,31,10627,131,436,"1",10.627,1.02641068057877,0,1.02641068057877
"A1DD39VFCRWI8G",NA,NA,"wolfe","085_L_switchboard","wolfe_085_L_switchboard-as","wolfe_085_L_switchboard-b","wolfe_085_L_switchboard-bs",443.067,-1,32,12849,191,305,"1",12.849,1.10886932911623,0,1.10886932911623
"A1DS5O8MSI3ZH0",NA,NA,"wolfe","060_R_pillow","wolfe_060_R_pillow-as","wolfe_060_R_pillow-b","wolfe_060_R_pillow-bs",91.697,-1,3,10125,390,286,"1",10.125,1.00539503188671,0,1.00539503188671
"A1DS5O8MSI3ZH0",NA,NA,"wolfe","043_R_clock","wolfe_043_R_clock-as","wolfe_043_R_clock-b","wolfe_043_R_clock-bs",115.062,-1,5,6782,457,212,"1",6.782,0.831357785442068,0,0.831357785442068
"A1DS5O8MSI3ZH0",NA,NA,"wolfe","052_R_speaker","wolfe_052_R_speaker-as","wolfe_052_R_speaker-b","wolfe_052_R_speaker-bs",124.029,-1,6,7066,492,331,"1",7.066,0.849173633098827,0,0.849173633098827
"A1DS5O8MSI3ZH0",NA,NA,"wolfe","065_R_cd","wolfe_065_R_cd-as","wolfe_065_R_cd-b","wolfe_065_R_cd-bs",139.277,-1,7,6731,491,196,"1",6.731,0.828079590556746,0,0.828079590556746
"A1DS5O8MSI3ZH0",NA,NA,"wolfe","056_R_comforter","wolfe_056_R_comforter-as","wolfe_056_R_comforter-b","wolfe_056_R_comforter-bs",208.917,-1,9,6866,494,339,"1",6.866,0.836703799089731,0,0.836703799089731
"A1DS5O8MSI3ZH0",NA,NA,"wolfe","075_R_light","wolfe_075_R_light-as","wolfe_075_R_light-b","wolfe_075_R_light-bs",216.828,-1,10,6764,525,53,"1",6.764,0.830203598925704,0,0.830203598925704
"A1DS5O8MSI3ZH0",NA,NA,"wolfe","061_R_glass","wolfe_061_R_glass-as","wolfe_061_R_glass-b","wolfe_061_R_glass-bs",224.444,-1,11,6596,416,203,"1",6.596,0.819280646972481,0,0.819280646972481
"A1DS5O8MSI3ZH0",NA,NA,"wolfe","104_R_bottle","wolfe_104_R_bottle-as","wolfe_104_R_bottle-b","wolfe_104_R_bottle-bs",232.1,-1,12,6706,354,289,"1",6.706,0.826463549092801,0,0.826463549092801
"A1DS5O8MSI3ZH0",NA,NA,"wolfe","106_R_toweldispenser","wolfe_106_R_toweldispenser-as","wolfe_106_R_toweldispenser-b","wolfe_106_R_toweldispenser-bs",239.956,-1,13,6686,416,140,"1",6.686,0.82516637225655,0,0.82516637225655
"A1DS5O8MSI3ZH0",NA,NA,"wolfe","101_R_cup","wolfe_101_R_cup-as","wolfe_101_R_cup-b","wolfe_101_R_cup-bs",251.164,-1,14,10243,355,149,"1",10.243,1.01042717271705,0,1.01042717271705
"A1DS5O8MSI3ZH0",NA,NA,"wolfe","089_R_poster","wolfe_089_R_poster-as","wolfe_089_R_poster-b","wolfe_089_R_poster-bs",258.619,-1,15,6749,364,110,"1",6.749,0.829239428141389,0,0.829239428141389
"A1DS5O8MSI3ZH0",NA,NA,"wolfe","002_R_napkin","wolfe_002_R_napkin-as","wolfe_002_R_napkin-b","wolfe_002_R_napkin-bs",266.292,-1,16,6681,401,402,"1",6.681,0.824841471753701,0,0.824841471753701
"A1DS5O8MSI3ZH0",NA,NA,"wolfe","001_R_mirror","wolfe_001_R_mirror-as","wolfe_001_R_mirror-b","wolfe_001_R_mirror-bs",273.847,-1,17,6651,381,188,"1",6.651,0.822886947834151,0,0.822886947834151
"A1DS5O8MSI3ZH0",NA,NA,"wolfe","038_R_art","wolfe_038_R_art-as","wolfe_038_R_art-b","wolfe_038_R_art-bs",281.287,-1,18,6613,365,173,"1",6.613,0.820398522703982,0,0.820398522703982
"A1DS5O8MSI3ZH0",NA,NA,"wolfe","122_R_chair","wolfe_122_R_chair-as","wolfe_122_R_chair-b","wolfe_122_R_chair-bs",291.008,-1,19,8657,398,158,"1",8.657,0.93736741751729,0,0.93736741751729
"A1DS5O8MSI3ZH0",NA,NA,"wolfe","054_R_firewood","wolfe_054_R_firewood-as","wolfe_054_R_firewood-b","wolfe_054_R_firewood-bs",298.951,-1,20,6695,629,324,"1",6.695,0.825750581348028,0,0.825750581348028
"A1DS5O8MSI3ZH0",NA,NA,"wolfe","063_R_laptop","wolfe_063_R_laptop-as","wolfe_063_R_laptop-b","wolfe_063_R_laptop-bs",306.535,-1,21,6962,614,279,"1",6.962,0.84273401894827,0,0.84273401894827
"A1DS5O8MSI3ZH0",NA,NA,"wolfe","024_R_towels","wolfe_024_R_towels-as","wolfe_024_R_towels-b","wolfe_024_R_towels-bs",314.343,-1,22,6633,390,422,"1",6.633,0.821709997298376,0,0.821709997298376
"A1DS5O8MSI3ZH0",NA,NA,"wolfe","048_R_art","wolfe_048_R_art-as","wolfe_048_R_art-b","wolfe_048_R_art-bs",330.104,-1,24,6680,628,208,"1",6.68,0.824776462475546,0,0.824776462475546
"A1DS5O8MSI3ZH0",NA,NA,"wolfe","121_R_car","wolfe_121_R_car-as","wolfe_121_R_car-b","wolfe_121_R_car-bs",339.591,-1,25,8679,622,348,"1",8.679,0.938469688367645,0,0.938469688367645
"A1DS5O8MSI3ZH0",NA,NA,"wolfe","018_R_plant","wolfe_018_R_plant-as","wolfe_018_R_plant-b","wolfe_018_R_plant-bs",347.631,-1,26,7405,580,259,"1",7.405,0.869525062857227,0,0.869525062857227
"A1DS5O8MSI3ZH0",NA,NA,"wolfe","116_R_basket","wolfe_116_R_basket-as","wolfe_116_R_basket-b","wolfe_116_R_basket-bs",357.206,-1,27,8709,543,443,"1",8.709,0.939968290551336,0,0.939968290551336
"A1DS5O8MSI3ZH0",NA,NA,"wolfe","099_R_sconce","wolfe_099_R_sconce-as","wolfe_099_R_sconce-b","wolfe_099_R_sconce-bs",376.128,-1,29,9798,479,181,"1",9.798,0.991137435120312,0,0.991137435120312
"A1DS5O8MSI3ZH0",NA,NA,"wolfe","008_R_bottle","wolfe_008_R_bottle-as","wolfe_008_R_bottle-b","wolfe_008_R_bottle-bs",383.688,-1,30,6858,580,309,"1",6.858,0.836197480778925,0,0.836197480778925
"A1DS5O8MSI3ZH0",NA,NA,"wolfe","090_R_lamp","wolfe_090_R_lamp-as","wolfe_090_R_lamp-b","wolfe_090_R_lamp-bs",391.532,-1,31,6670,445,302,"1",6.67,0.824125833916549,0,0.824125833916549
"A1DS5O8MSI3ZH0",NA,NA,"wolfe","123_R_pot","wolfe_123_R_pot-as","wolfe_123_R_pot-b","wolfe_123_R_pot-bs",400.635,-1,32,8593,648,384,"1",8.593,0.934144811792477,0,0.934144811792477
"A1F9WGMST4WH88",NA,NA,"wolfe","119_L_painting","wolfe_119_L_painting-as","wolfe_119_L_painting-b","wolfe_119_L_painting-bs",413.397,-1,3,6829,252,249,"1",6.829,0.834357112718405,0,0.834357112718405
"A1F9WGMST4WH88",NA,NA,"wolfe","048_L_art","wolfe_048_L_art-as","wolfe_048_L_art-b","wolfe_048_L_art-bs",421.18,-1,4,7257,33,187,"1",7.257,0.860757123081542,0,0.860757123081542
"A1F9WGMST4WH88",NA,NA,"wolfe","025_L_vase","wolfe_025_L_vase-as","wolfe_025_L_vase-b","wolfe_025_L_vase-bs",502.524,-1,13,9115,33,317,"1",9.115,0.959756672990995,0,0.959756672990995
"A1F9WGMST4WH88",NA,NA,"wolfe","026_L_rack","wolfe_026_L_rack-as","wolfe_026_L_rack-b","wolfe_026_L_rack-bs",510.039,-1,14,7019,53,278,"1",7.019,0.846275242412213,0,0.846275242412213
"A1F9WGMST4WH88",NA,NA,"wolfe","125_L_sofa","wolfe_125_L_sofa-as","wolfe_125_L_sofa-b","wolfe_125_L_sofa-bs",554.337,-1,19,9043,105,342,"1",9.043,0.956312530841194,0,0.956312530841194
"A1F9WGMST4WH88",NA,NA,"wolfe","052_L_speaker","wolfe_052_L_speaker-as","wolfe_052_L_speaker-b","wolfe_052_L_speaker-bs",578.665,-1,22,6915,199,340,"1",6.915,0.839792184445329,0,0.839792184445329
"A1F9WGMST4WH88",NA,NA,"wolfe","069_L_things","wolfe_069_L_things-as","wolfe_069_L_things-b","wolfe_069_L_things-bs",586.359,-1,23,7131,40,119,"1",7.131,0.853150436447843,0,0.853150436447843
"A1F9WGMST4WH88",NA,NA,"wolfe","071_L_art","wolfe_071_L_art-as","wolfe_071_L_art-b","wolfe_071_L_art-bs",625.149,-1,27,9751,168,269,"1",9.751,0.98904915643822,0,0.98904915643822
"A1FJINS24NQMIE",NA,NA,"wolfe","067_R_painting","wolfe_067_R_painting-as","wolfe_067_R_painting-b","wolfe_067_R_painting-bs",65.64,-1,4,7257,630,329,"1",7.257,0.860757123081542,0,0.860757123081542
"A1FJINS24NQMIE",NA,NA,"wolfe","005_R_mirror","wolfe_005_R_mirror-as","wolfe_005_R_mirror-b","wolfe_005_R_mirror-bs",75.568,-1,5,9210,507,251,"1",9.21,0.964259630196849,0,0.964259630196849
"A1FJINS24NQMIE",NA,NA,"wolfe","002_R_napkin","wolfe_002_R_napkin-as","wolfe_002_R_napkin-b","wolfe_002_R_napkin-bs",108.636,-1,6,32421,391,412,"1",32.421,1.51082640618751,0,1.51082640618751
"A1FJINS24NQMIE",NA,NA,"wolfe","080_R_plant","wolfe_080_R_plant-as","wolfe_080_R_plant-b","wolfe_080_R_plant-bs",135.316,-1,7,25852,359,239,"1",25.852,1.41249414725064,0,1.41249414725064
"A1FJINS24NQMIE",NA,NA,"wolfe","006_R_vase","wolfe_006_R_vase-as","wolfe_006_R_vase-b","wolfe_006_R_vase-bs",145.472,-1,8,9003,474,253,"1",9.003,0.954387250144515,0,0.954387250144515
"A1FJINS24NQMIE",NA,NA,"wolfe","062_R_flowers","wolfe_062_R_flowers-as","wolfe_062_R_flowers-b","wolfe_062_R_flowers-bs",157.484,-1,9,11154,557,275,"1",11.154,1.04743064015554,0,1.04743064015554
"A1FJINS24NQMIE",NA,NA,"wolfe","009_R_carpet","wolfe_009_R_carpet-as","wolfe_009_R_carpet-b","wolfe_009_R_carpet-bs",165.336,-1,10,7261,434,440,"1",7.261,0.860996436757196,0,0.860996436757196
"A1FJINS24NQMIE",NA,NA,"wolfe","015_R_ceilinglight","wolfe_015_R_ceilinglight-as","wolfe_015_R_ceilinglight-b","wolfe_015_R_ceilinglight-bs",186.672,-1,12,12939,568,80,"1",12.939,1.11190071286561,0,1.11190071286561
"A1FJINS24NQMIE",NA,NA,"wolfe","116_R_basket","wolfe_116_R_basket-as","wolfe_116_R_basket-b","wolfe_116_R_basket-bs",196.188,-1,13,8988,536,434,"1",8.988,0.953663063747091,0,0.953663063747091
"A1FJINS24NQMIE",NA,NA,"wolfe","040_R_painting","wolfe_040_R_painting-as","wolfe_040_R_painting-b","wolfe_040_R_painting-bs",209.776,-1,14,12955,530,88,"1",12.955,1.11243741732184,0,1.11243741732184
"A1FJINS24NQMIE",NA,NA,"wolfe","008_R_bottle","wolfe_008_R_bottle-as","wolfe_008_R_bottle-b","wolfe_008_R_bottle-bs",221.34,-1,15,10952,580,310,"1",10.952,1.03949343512593,0,1.03949343512593
"A1FJINS24NQMIE",NA,NA,"wolfe","019_R_lamp_sized","wolfe_019_R_lamp_sized-as","wolfe_019_R_lamp_sized-b","wolfe_019_R_lamp_sized-bs",246.577,-1,18,7021,479,139,"1",7.021,0.846398973034675,0,0.846398973034675
"A1FJINS24NQMIE",NA,NA,"wolfe","032_R_bottle","wolfe_032_R_bottle-as","wolfe_032_R_bottle-b","wolfe_032_R_bottle-bs",254.092,-1,19,6849,415,150,"1",6.849,0.835627166209898,0,0.835627166209898
"A1FJINS24NQMIE",NA,NA,"wolfe","081_R_football","wolfe_081_R_football-as","wolfe_081_R_football-b","wolfe_081_R_football-bs",286.736,-1,20,31915,360,363,"1",31.915,1.50399484876582,0,1.50399484876582
"A1FJINS24NQMIE",NA,NA,"wolfe","070_R_lamp","wolfe_070_R_lamp-as","wolfe_070_R_lamp-b","wolfe_070_R_lamp-bs",294.705,-1,21,7446,602,156,"1",7.446,0.871923031882373,0,0.871923031882373
"A1FJINS24NQMIE",NA,NA,"wolfe","016_R_art","wolfe_016_R_art-as","wolfe_016_R_art-b","wolfe_016_R_art-bs",302.357,-1,22,7064,621,201,"1",7.064,0.849050690569512,0,0.849050690569512
"A1FJINS24NQMIE",NA,NA,"wolfe","100_R_mirror","wolfe_100_R_mirror-as","wolfe_100_R_mirror-b","wolfe_100_R_mirror-bs",309.757,-1,23,6827,344,289,"1",6.827,0.834229902851677,0,0.834229902851677
"A1FJINS24NQMIE",NA,NA,"wolfe","096_R_painting","wolfe_096_R_painting-as","wolfe_096_R_painting-b","wolfe_096_R_painting-bs",319.377,-1,24,9094,608,226,"1",9.094,0.958754949869089,0,0.958754949869089
"A1FJINS24NQMIE",NA,NA,"wolfe","075_R_light","wolfe_075_R_light-as","wolfe_075_R_light-b","wolfe_075_R_light-bs",341.616,-1,25,21571,524,52,"1",21.571,1.33387027882601,0,1.33387027882601
"A1FJINS24NQMIE",NA,NA,"wolfe","072_R_handle","wolfe_072_R_handle-as","wolfe_072_R_handle-b","wolfe_072_R_handle-bs",353.293,-1,26,11117,572,444,"1",11.117,1.04598760566097,0,1.04598760566097
"A1FJINS24NQMIE",NA,NA,"wolfe","001_R_mirror","wolfe_001_R_mirror-as","wolfe_001_R_mirror-b","wolfe_001_R_mirror-bs",360.973,-1,27,7143,374,176,"1",7.143,0.853880650124542,0,0.853880650124542
"A1FJINS24NQMIE",NA,NA,"wolfe","065_R_cd","wolfe_065_R_cd-as","wolfe_065_R_cd-b","wolfe_065_R_cd-bs",383.097,-1,28,21611,482,193,"1",21.611,1.33467486334015,0,1.33467486334015
"A1FJINS24NQMIE",NA,NA,"wolfe","095_R_candle","wolfe_095_R_candle-as","wolfe_095_R_candle-b","wolfe_095_R_candle-bs",391.092,-1,29,7199,463,292,"1",7.199,0.857272173564041,0,0.857272173564041
"A1FJINS24NQMIE",NA,NA,"wolfe","052_R_speaker","wolfe_052_R_speaker-as","wolfe_052_R_speaker-b","wolfe_052_R_speaker-bs",400.208,-1,30,8628,494,340,"1",8.628,0.935910136430507,0,0.935910136430507
"A1FJINS24NQMIE",NA,NA,"wolfe","013_R_lamp","wolfe_013_R_lamp-as","wolfe_013_R_lamp-b","wolfe_013_R_lamp-bs",411.985,-1,31,11250,516,179,"1",11.25,1.05115252244738,0,1.05115252244738
"A1FJINS24NQMIE",NA,NA,"wolfe","090_R_lamp","wolfe_090_R_lamp-as","wolfe_090_R_lamp-b","wolfe_090_R_lamp-bs",441.137,-1,32,28451,434,311,"1",28.451,1.45409753564671,0,1.45409753564671
"A1G6DFTYUM578N",NA,NA,"wolfe","109_L_pillow","wolfe_109_L_pillow-as","wolfe_109_L_pillow-b","wolfe_109_L_pillow-bs",45.188,-1,5,6961,269,290,"1",6.961,0.842671633760788,0,0.842671633760788
"A1G6DFTYUM578N",NA,NA,"wolfe","001_L_mirror","wolfe_001_L_mirror-as","wolfe_001_L_mirror-b","wolfe_001_L_mirror-bs",104.392,-1,12,7160,278,186,"1",7.16,0.854913022307856,0,0.854913022307856
"A1G6DFTYUM578N",NA,NA,"wolfe","052_L_speaker","wolfe_052_L_speaker-as","wolfe_052_L_speaker-b","wolfe_052_L_speaker-bs",203.035,-1,24,7409,171,332,"1",7.409,0.86975959478241,0,0.86975959478241
"A1G6DFTYUM578N",NA,NA,"wolfe","124_L_vase","wolfe_124_L_vase-as","wolfe_124_L_vase-b","wolfe_124_L_vase-bs",226.132,-1,27,6936,164,364,"1",6.936,0.841109084468154,0,0.841109084468154
"A1G6DFTYUM578N",NA,NA,"wolfe","100_L_mirror","wolfe_100_L_mirror-as","wolfe_100_L_mirror-b","wolfe_100_L_mirror-bs",241.473,-1,29,7056,321,287,"1",7.056,0.848558572123763,0,0.848558572123763
"A1G6DFTYUM578N",NA,NA,"wolfe","093_L_switch","wolfe_093_L_switch-as","wolfe_093_L_switch-b","wolfe_093_L_switch-bs",251.324,-1,30,8378,128,354,"1",8.378,0.923140356025201,0,0.923140356025201
"A1G6DFTYUM578N",NA,NA,"wolfe","083_L_knob","wolfe_083_L_knob-as","wolfe_083_L_knob-b","wolfe_083_L_knob-bs",274.516,-1,32,13211,74,381,"1",13.211,1.12093569256113,0,1.12093569256113
"A1G86FHR2YOW12",NA,NA,"wolfe","069_L_things","wolfe_069_L_things-as","wolfe_069_L_things-b","wolfe_069_L_things-bs",64.549,-1,4,9059,64,110,"1",9.059,0.9570802596579,0,0.9570802596579
"A1G86FHR2YOW12",NA,NA,"wolfe","060_L_pillow","wolfe_060_L_pillow-as","wolfe_060_L_pillow-b","wolfe_060_L_pillow-bs",72.9,-1,5,6815,277,288,"1",6.815,0.833465860170692,0,0.833465860170692
"A1G86FHR2YOW12",NA,NA,"wolfe","067_L_painting","wolfe_067_L_painting-as","wolfe_067_L_painting-b","wolfe_067_L_painting-bs",84.949,-1,6,10777,40,335,"1",10.777,1.03249788285711,0,1.03249788285711
"A1G86FHR2YOW12",NA,NA,"wolfe","106_L_toweldispenser","wolfe_106_L_toweldispenser-as","wolfe_106_L_toweldispenser-b","wolfe_106_L_toweldispenser-bs",94.816,-1,7,8928,255,143,"1",8.928,0.950754181593504,0,0.950754181593504
"A1G86FHR2YOW12",NA,NA,"wolfe","096_L_painting","wolfe_096_L_painting-as","wolfe_096_L_painting-b","wolfe_096_L_painting-bs",103.22,-1,8,6732,69,218,"1",6.732,0.828144107303786,0,0.828144107303786
"A1G86FHR2YOW12",NA,NA,"wolfe","032_L_bottle","wolfe_032_L_bottle-as","wolfe_032_L_bottle-b","wolfe_032_L_bottle-bs",111.068,-1,9,6825,246,144,"1",6.825,0.834102655712794,0,0.834102655712794
"A1G86FHR2YOW12",NA,NA,"wolfe","068_L_faucet","wolfe_068_L_faucet-as","wolfe_068_L_faucet-b","wolfe_068_L_faucet-bs",121.515,-1,10,8935,289,304,"1",8.935,0.951094556841663,0,0.951094556841663
"A1G86FHR2YOW12",NA,NA,"wolfe","045_L_musicdock","wolfe_045_L_musicdock-as","wolfe_045_L_musicdock-b","wolfe_045_L_musicdock-bs",129.124,-1,11,6801,78,272,"1",6.801,0.83257277484618,0,0.83257277484618
"A1G86FHR2YOW12",NA,NA,"wolfe","038_L_art","wolfe_038_L_art-as","wolfe_038_L_art-b","wolfe_038_L_art-bs",145.513,-1,13,4908,298,170,"1",4.908,0.690904554054967,0,0.690904554054967
"A1G86FHR2YOW12",NA,NA,"wolfe","110_L_plant","wolfe_110_L_plant-as","wolfe_110_L_plant-b","wolfe_110_L_plant-bs",152.74,-1,14,6643,197,348,"1",6.643,0.82236425244155,0,0.82236425244155
"A1G86FHR2YOW12",NA,NA,"wolfe","059_L_car","wolfe_059_L_car-as","wolfe_059_L_car-b","wolfe_059_L_car-bs",160.477,-1,15,6972,241,164,"1",6.972,0.843357378437956,0,0.843357378437956
"A1G86FHR2YOW12",NA,NA,"wolfe","043_L_clock","wolfe_043_L_clock-as","wolfe_043_L_clock-b","wolfe_043_L_clock-bs",170.021,-1,16,8889,211,211,"1",8.889,0.948852906199714,0,0.948852906199714
"A1G86FHR2YOW12",NA,NA,"wolfe","122_L_chair","wolfe_122_L_chair-as","wolfe_122_L_chair-b","wolfe_122_L_chair-bs",177.248,-1,17,6664,267,157,"1",6.664,0.823734988398731,0,0.823734988398731
"A1G86FHR2YOW12",NA,NA,"wolfe","092_L_candles","wolfe_092_L_candles-as","wolfe_092_L_candles-b","wolfe_092_L_candles-bs",186.889,-1,18,8733,18,448,"1",8.733,0.941163460158473,0,0.941163460158473
"A1G86FHR2YOW12",NA,NA,"wolfe","047_L_handle","wolfe_047_L_handle-as","wolfe_047_L_handle-b","wolfe_047_L_handle-bs",196.791,-1,19,8690,122,428,"1",8.69,0.939019776448666,0,0.939019776448666
"A1G86FHR2YOW12",NA,NA,"wolfe","064_L_bottles","wolfe_064_L_bottles-as","wolfe_064_L_bottles-b","wolfe_064_L_bottles-bs",204.502,-1,20,6637,123,220,"1",6.637,0.821971817642043,0,0.821971817642043
"A1G86FHR2YOW12",NA,NA,"wolfe","101_L_cup","wolfe_101_L_cup-as","wolfe_101_L_cup-b","wolfe_101_L_cup-bs",220.556,-1,22,4982,318,135,"1",4.982,0.697403723200488,0,0.697403723200488
"A1G86FHR2YOW12",NA,NA,"wolfe","128_L_pot","wolfe_128_L_pot-as","wolfe_128_L_pot-b","wolfe_128_L_pot-bs",229.033,-1,23,6856,147,249,"1",6.856,0.836070808915142,0,0.836070808915142
"A1G86FHR2YOW12",NA,NA,"wolfe","109_L_pillow","wolfe_109_L_pillow-as","wolfe_109_L_pillow-b","wolfe_109_L_pillow-bs",238.303,-1,24,8645,271,291,"1",8.645,0.936764997609941,0,0.936764997609941
"A1G86FHR2YOW12",NA,NA,"wolfe","099_L_sconce","wolfe_099_L_sconce-as","wolfe_099_L_sconce-b","wolfe_099_L_sconce-bs",252.851,-1,26,6529,197,173,"1",6.529,0.814846668604463,0,0.814846668604463
"A1G86FHR2YOW12",NA,NA,"wolfe","115_L_pot","wolfe_115_L_pot-as","wolfe_115_L_pot-b","wolfe_115_L_pot-bs",260.835,-1,27,6923,121,231,"1",6.923,0.840294331611436,0,0.840294331611436
"A1G86FHR2YOW12",NA,NA,"wolfe","118_L_shoes","wolfe_118_L_shoes-as","wolfe_118_L_shoes-b","wolfe_118_L_shoes-bs",267.356,-1,28,4962,277,355,"1",4.962,0.69565675993619,0,0.69565675993619
"A1G86FHR2YOW12",NA,NA,"wolfe","040_L_painting","wolfe_040_L_painting-as","wolfe_040_L_painting-b","wolfe_040_L_painting-bs",274.613,-1,29,6568,131,81,"1",6.568,0.817433144111384,0,0.817433144111384
"A1G86FHR2YOW12",NA,NA,"wolfe","065_L_cd","wolfe_065_L_cd-as","wolfe_065_L_cd-b","wolfe_065_L_cd-bs",282.146,-1,30,6687,184,190,"1",6.687,0.8252313231999,0,0.8252313231999
