consent_response.keys,consent_response.rt,key_resp_2.keys,key_resp_2.rt,user_resp.keys,user_resp.rt,trials.thisRepN,trials.thisTrialN,trials.thisN,trials.thisIndex,trials.ran,image_1_text,image_2_text,database,image,number,age,worker_ID,date,expName,psychopyVersion,OS,frameRate,hitId,workerId,assignmentId,a,tp_a,b,tp_b,c,tp_c,catch_same_resp.keys,catch_same_resp.rt,image_1_text_catch_same,image_2_text_catch_same,image_catch_same,catch_different_resp.keys,catch_different_resp.rt,image_1_text_catch_different,image_2_text_catch_different,image_catch_different
space,3.896345,space,13.442155,6,12.81007,0,0,0,360,1,bed room with hot and pillow.  a light and class is present .  there is a televison present in the box,"a bed room with hot  and pillow, a light and class is present.  there is a television is present in the box",wolfe2,082_L_bowl,2,34,A1AZ97YYFVWFGC,2021-02-17_15h41.58.388,MetaAwareness,2020.1.2,Win32,60,3K2CEDRACC4YL1T7RTFTXT2BSB8TMI,A1AZ97YYFVWFGC,3WQ3B2KGE9J4FABVONAC1Q3AGDJ1B8,GBQW7,GBQW7,3WQ3B2KGE9J4FABVONAC1Q3AGDJ1B8,3WQ3B2KGE9J4FABVONAC1Q3AGDJ1B8,276287,276287,,,,,,,,,,
,,,,5,7.874835,0,1,1,513,1,a gathering room or lobby in an upscale cabin resort with a small decorative tree in the far corner,a gathering room or lobby in upscale cabin resort,wolfe2,113_R_plant,1,34,A1AZ97YYFVWFGC,2021-02-17_15h41.58.388,MetaAwareness,2020.1.2,Win32,60,3K2CEDRACC4YL1T7RTFTXT2BSB8TMI,A1AZ97YYFVWFGC,3WQ3B2KGE9J4FABVONAC1Q3AGDJ1B8,GBQW7,GBQW7,3WQ3B2KGE9J4FABVONAC1Q3AGDJ1B8,3WQ3B2KGE9J4FABVONAC1Q3AGDJ1B8,276287,276287,,,,,,,,,,
,,,,3,10.788765,0,2,2,273,1,a wooden living room with an empty desk,a wooden living room with a desk that has a notbook on it,wolfe2,063_L_laptop,1,34,A1AZ97YYFVWFGC,2021-02-17_15h41.58.388,MetaAwareness,2020.1.2,Win32,60,3K2CEDRACC4YL1T7RTFTXT2BSB8TMI,A1AZ97YYFVWFGC,3WQ3B2KGE9J4FABVONAC1Q3AGDJ1B8,GBQW7,GBQW7,3WQ3B2KGE9J4FABVONAC1Q3AGDJ1B8,3WQ3B2KGE9J4FABVONAC1Q3AGDJ1B8,276287,276287,,,,,,,,,,
,,,,4,7.580975,0,3,3,41,1,a bedroom with many mirrors and a single candle,a bedroom with many mirrors and two candles,wolfe2,010_L_candle,4,34,A1AZ97YYFVWFGC,2021-02-17_15h41.58.388,MetaAwareness,2020.1.2,Win32,60,3K2CEDRACC4YL1T7RTFTXT2BSB8TMI,A1AZ97YYFVWFGC,3WQ3B2KGE9J4FABVONAC1Q3AGDJ1B8,GBQW7,GBQW7,3WQ3B2KGE9J4FABVONAC1Q3AGDJ1B8,3WQ3B2KGE9J4FABVONAC1Q3AGDJ1B8,276287,276287,,,,,,,,,,
,,,,3,11.380365,0,4,4,271,1,a high-class looking family room with a seat in front of the fireplace. the fireplace has nothing in it.,a high-class looking family room with a seat in front of the fireplace. the fireplace has a white object in it,wolfe2,062_R_flowers,1,34,A1AZ97YYFVWFGC,2021-02-17_15h41.58.388,MetaAwareness,2020.1.2,Win32,60,3K2CEDRACC4YL1T7RTFTXT2BSB8TMI,A1AZ97YYFVWFGC,3WQ3B2KGE9J4FABVONAC1Q3AGDJ1B8,GBQW7,GBQW7,3WQ3B2KGE9J4FABVONAC1Q3AGDJ1B8,3WQ3B2KGE9J4FABVONAC1Q3AGDJ1B8,276287,276287,,,,,,,,,,
,,,,3,8.01385,0,5,5,138,1,this modern styled bathroom has two round shelves with a bottle on the left of the mirror,this modern styled bathroom has two round shelves with two bottles on the left of the mirror,wolfe2,032_R_bottle,2,34,A1AZ97YYFVWFGC,2021-02-17_15h41.58.388,MetaAwareness,2020.1.2,Win32,60,3K2CEDRACC4YL1T7RTFTXT2BSB8TMI,A1AZ97YYFVWFGC,3WQ3B2KGE9J4FABVONAC1Q3AGDJ1B8,GBQW7,GBQW7,3WQ3B2KGE9J4FABVONAC1Q3AGDJ1B8,3WQ3B2KGE9J4FABVONAC1Q3AGDJ1B8,276287,276287,,,,,,,,,,
,,,,4,16.51362,0,6,6,521,1,"with open doors, the living room has a small bird decor on the coffee table with 3 other knicknacks","with open doors, the living room has 3 knicknacks on the coffee table",wolfe2,114_R_bird,3,34,A1AZ97YYFVWFGC,2021-02-17_15h41.58.388,MetaAwareness,2020.1.2,Win32,60,3K2CEDRACC4YL1T7RTFTXT2BSB8TMI,A1AZ97YYFVWFGC,3WQ3B2KGE9J4FABVONAC1Q3AGDJ1B8,GBQW7,GBQW7,3WQ3B2KGE9J4FABVONAC1Q3AGDJ1B8,3WQ3B2KGE9J4FABVONAC1Q3AGDJ1B8,276287,276287,,,,,,,,,,
,,,,3,10.88438,0,7,7,233,1,a living room with a flat screen tv and sound systome on the wall. sound system does not have a cneter chanel speaker,a living room with a flat screen tv and sound systom on the wall. sound system includes a center channel speaker,wolfe2,052_R_speaker,4,34,A1AZ97YYFVWFGC,2021-02-17_15h41.58.388,MetaAwareness,2020.1.2,Win32,60,3K2CEDRACC4YL1T7RTFTXT2BSB8TMI,A1AZ97YYFVWFGC,3WQ3B2KGE9J4FABVONAC1Q3AGDJ1B8,GBQW7,GBQW7,3WQ3B2KGE9J4FABVONAC1Q3AGDJ1B8,3WQ3B2KGE9J4FABVONAC1Q3AGDJ1B8,276287,276287,,,,,,,,,,
,,,,4,12.88445,0,8,8,317,1,aa nice kitchen with marble counter tops an island and a what looks like pasta next to a double oven,a nice well lit kitchen with hardwood floors and what looks like dry pasta next to a double oven.,wolfe2,073_L_coffeemug,4,34,A1AZ97YYFVWFGC,2021-02-17_15h41.58.388,MetaAwareness,2020.1.2,Win32,60,3K2CEDRACC4YL1T7RTFTXT2BSB8TMI,A1AZ97YYFVWFGC,3WQ3B2KGE9J4FABVONAC1Q3AGDJ1B8,GBQW7,GBQW7,3WQ3B2KGE9J4FABVONAC1Q3AGDJ1B8,3WQ3B2KGE9J4FABVONAC1Q3AGDJ1B8,276287,276287,,,,,,,,,,
,,,,3,10.701735,0,9,9,37,1,a modern bedroom with white walls and floors and brown furniture in it,"a modern bedroom with white walls and floors, brown furniture, and a round pale taupe rug in it",wolfe2,009_L_carpet,4,34,A1AZ97YYFVWFGC,2021-02-17_15h41.58.388,MetaAwareness,2020.1.2,Win32,60,3K2CEDRACC4YL1T7RTFTXT2BSB8TMI,A1AZ97YYFVWFGC,3WQ3B2KGE9J4FABVONAC1Q3AGDJ1B8,GBQW7,GBQW7,3WQ3B2KGE9J4FABVONAC1Q3AGDJ1B8,3WQ3B2KGE9J4FABVONAC1Q3AGDJ1B8,276287,276287,,,,,,,,,,
,,,,3,6.71777,0,10,10,475,1,a bathroom with a tissue box on the wall,a bathroom without any tissue box on the wall,wolfe2,106_L_toweldispenser,2,34,A1AZ97YYFVWFGC,2021-02-17_15h41.58.388,MetaAwareness,2020.1.2,Win32,60,3K2CEDRACC4YL1T7RTFTXT2BSB8TMI,A1AZ97YYFVWFGC,3WQ3B2KGE9J4FABVONAC1Q3AGDJ1B8,GBQW7,GBQW7,3WQ3B2KGE9J4FABVONAC1Q3AGDJ1B8,3WQ3B2KGE9J4FABVONAC1Q3AGDJ1B8,276287,276287,,,,,,,,,,
,,,,4,6.41248,0,11,11,295,1,an office meeting room with a large tv,an office meeting room with a large tv and a small picture,wolfe2,067_R_painting,3,34,A1AZ97YYFVWFGC,2021-02-17_15h41.58.388,MetaAwareness,2020.1.2,Win32,60,3K2CEDRACC4YL1T7RTFTXT2BSB8TMI,A1AZ97YYFVWFGC,3WQ3B2KGE9J4FABVONAC1Q3AGDJ1B8,GBQW7,GBQW7,3WQ3B2KGE9J4FABVONAC1Q3AGDJ1B8,3WQ3B2KGE9J4FABVONAC1Q3AGDJ1B8,276287,276287,,,,,,,,,,
,,,,1,21.18602,0,12,12,221,1,very nice apartment with red as a theme. there is an empty bookshelf on the second row.,there are books on the second row of the bookshelf that was originally empty.,wolfe2,050_R_book,4,34,A1AZ97YYFVWFGC,2021-02-17_15h41.58.388,MetaAwareness,2020.1.2,Win32,60,3K2CEDRACC4YL1T7RTFTXT2BSB8TMI,A1AZ97YYFVWFGC,3WQ3B2KGE9J4FABVONAC1Q3AGDJ1B8,GBQW7,GBQW7,3WQ3B2KGE9J4FABVONAC1Q3AGDJ1B8,3WQ3B2KGE9J4FABVONAC1Q3AGDJ1B8,276287,276287,,,,,,,,,,
,,,,5,16.44713,0,13,13,524,1,"a warm-hued kitchen with a tile floor, a large central island, an open floor plan, and a potted plant next to the double oven","a warm-hued kitchen with a tile floor, a large central island, an open floor plan, and a window next to the double oven",wolfe2,115_R_pot,5,34,A1AZ97YYFVWFGC,2021-02-17_15h41.58.388,MetaAwareness,2020.1.2,Win32,60,3K2CEDRACC4YL1T7RTFTXT2BSB8TMI,A1AZ97YYFVWFGC,3WQ3B2KGE9J4FABVONAC1Q3AGDJ1B8,GBQW7,GBQW7,3WQ3B2KGE9J4FABVONAC1Q3AGDJ1B8,3WQ3B2KGE9J4FABVONAC1Q3AGDJ1B8,276287,276287,,,,,,,,,,
,,,,5,8.844985,0,14,14,129,1,an upscale bathroom with a space between cabinets.,an upscale bathroom with a counter top between cabinets.,wolfe2,030_L_drawer,5,34,A1AZ97YYFVWFGC,2021-02-17_15h41.58.388,MetaAwareness,2020.1.2,Win32,60,3K2CEDRACC4YL1T7RTFTXT2BSB8TMI,A1AZ97YYFVWFGC,3WQ3B2KGE9J4FABVONAC1Q3AGDJ1B8,GBQW7,GBQW7,3WQ3B2KGE9J4FABVONAC1Q3AGDJ1B8,3WQ3B2KGE9J4FABVONAC1Q3AGDJ1B8,276287,276287,,,,,,,,,,
,,,,5,10.852735,0,15,15,460,1,bathroom with 2 sinks and a shower thremostat and towle hook on the wall,bathroom with 2 sinks and a shower thermostat is on the wall,wolfe2,103_L_hook,4,34,A1AZ97YYFVWFGC,2021-02-17_15h41.58.388,MetaAwareness,2020.1.2,Win32,60,3K2CEDRACC4YL1T7RTFTXT2BSB8TMI,A1AZ97YYFVWFGC,3WQ3B2KGE9J4FABVONAC1Q3AGDJ1B8,GBQW7,GBQW7,3WQ3B2KGE9J4FABVONAC1Q3AGDJ1B8,3WQ3B2KGE9J4FABVONAC1Q3AGDJ1B8,276287,276287,,,,,,,,,,
,,,,4,13.981425,0,16,16,290,1,"a living space with a black wall, a white wall, a black chair and a white chair, and 6 wall-mounted lights","a living space with a black wall and a white wall, black furnature and white furnature, 6 wall-mounted lights, and a white decorative object",wolfe2,066_R_vase,1,34,A1AZ97YYFVWFGC,2021-02-17_15h41.58.388,MetaAwareness,2020.1.2,Win32,60,3K2CEDRACC4YL1T7RTFTXT2BSB8TMI,A1AZ97YYFVWFGC,3WQ3B2KGE9J4FABVONAC1Q3AGDJ1B8,GBQW7,GBQW7,3WQ3B2KGE9J4FABVONAC1Q3AGDJ1B8,3WQ3B2KGE9J4FABVONAC1Q3AGDJ1B8,276287,276287,,,,,,,,,,
,,,,5,7.90215,0,17,17,567,1,a modern looking livingroom with decorative items including three candles,a modern looking livingroom with decorative items,wolfe2,126_R_candles,5,34,A1AZ97YYFVWFGC,2021-02-17_15h41.58.388,MetaAwareness,2020.1.2,Win32,60,3K2CEDRACC4YL1T7RTFTXT2BSB8TMI,A1AZ97YYFVWFGC,3WQ3B2KGE9J4FABVONAC1Q3AGDJ1B8,GBQW7,GBQW7,3WQ3B2KGE9J4FABVONAC1Q3AGDJ1B8,3WQ3B2KGE9J4FABVONAC1Q3AGDJ1B8,276287,276287,,,,,,,,,,
,,,,5,8.82047,0,18,18,83,1,a small office with two discs on the wall,a small office with three discs on the wall,wolfe2,020_L_walldeco,4,34,A1AZ97YYFVWFGC,2021-02-17_15h41.58.388,MetaAwareness,2020.1.2,Win32,60,3K2CEDRACC4YL1T7RTFTXT2BSB8TMI,A1AZ97YYFVWFGC,3WQ3B2KGE9J4FABVONAC1Q3AGDJ1B8,GBQW7,GBQW7,3WQ3B2KGE9J4FABVONAC1Q3AGDJ1B8,3WQ3B2KGE9J4FABVONAC1Q3AGDJ1B8,276287,276287,,,,,,,,,,
,,,,5,6.981795,0,19,19,288,1,modern looking space with black white and red furniture,"modern living space with black, white and red furniture including a pole",wolfe2,066_L_vase,1,34,A1AZ97YYFVWFGC,2021-02-17_15h41.58.388,MetaAwareness,2020.1.2,Win32,60,3K2CEDRACC4YL1T7RTFTXT2BSB8TMI,A1AZ97YYFVWFGC,3WQ3B2KGE9J4FABVONAC1Q3AGDJ1B8,GBQW7,GBQW7,3WQ3B2KGE9J4FABVONAC1Q3AGDJ1B8,3WQ3B2KGE9J4FABVONAC1Q3AGDJ1B8,276287,276287,,,,,,,,,,
,,,,4,8.83934,0,20,20,289,1,a themed living room with red and black decor and a sofa. there is black vases on one side,a themed living room with red and black decor and a sofa. there is black vases on one side and a white one on the other,wolfe2,066_L_vase,3,34,A1AZ97YYFVWFGC,2021-02-17_15h41.58.388,MetaAwareness,2020.1.2,Win32,60,3K2CEDRACC4YL1T7RTFTXT2BSB8TMI,A1AZ97YYFVWFGC,3WQ3B2KGE9J4FABVONAC1Q3AGDJ1B8,GBQW7,GBQW7,3WQ3B2KGE9J4FABVONAC1Q3AGDJ1B8,3WQ3B2KGE9J4FABVONAC1Q3AGDJ1B8,276287,276287,,,,,,,,,,
,,,,3,6.08292,0,21,21,505,1,"a bright, sunny living area with a short, stout vase on the floor near a potted plant.","a bright, sunny living area with no vase sitting next to a potted plant.",wolfe2,111_R_pot,3,34,A1AZ97YYFVWFGC,2021-02-17_15h41.58.388,MetaAwareness,2020.1.2,Win32,60,3K2CEDRACC4YL1T7RTFTXT2BSB8TMI,A1AZ97YYFVWFGC,3WQ3B2KGE9J4FABVONAC1Q3AGDJ1B8,GBQW7,GBQW7,3WQ3B2KGE9J4FABVONAC1Q3AGDJ1B8,3WQ3B2KGE9J4FABVONAC1Q3AGDJ1B8,276287,276287,,,,,,,,,,
,,,,3,6.204105,0,22,22,371,1,beach home with beige walls,beach home with beige wall and latern type lighting,wolfe2,084_R_light,1,34,A1AZ97YYFVWFGC,2021-02-17_15h41.58.388,MetaAwareness,2020.1.2,Win32,60,3K2CEDRACC4YL1T7RTFTXT2BSB8TMI,A1AZ97YYFVWFGC,3WQ3B2KGE9J4FABVONAC1Q3AGDJ1B8,GBQW7,GBQW7,3WQ3B2KGE9J4FABVONAC1Q3AGDJ1B8,3WQ3B2KGE9J4FABVONAC1Q3AGDJ1B8,276287,276287,,,,,,,,,,
,,,,3,11.863275,0,23,23,197,1,a blue and white bathroom with a glass shower and a large jacuzzi tub that does not have any lights on the front right side,a blue and white bathroom with a glass shower and a large jacuzzitub that has a light on the front right side,wolfe2,044_R_light,4,34,A1AZ97YYFVWFGC,2021-02-17_15h41.58.388,MetaAwareness,2020.1.2,Win32,60,3K2CEDRACC4YL1T7RTFTXT2BSB8TMI,A1AZ97YYFVWFGC,3WQ3B2KGE9J4FABVONAC1Q3AGDJ1B8,GBQW7,GBQW7,3WQ3B2KGE9J4FABVONAC1Q3AGDJ1B8,3WQ3B2KGE9J4FABVONAC1Q3AGDJ1B8,276287,276287,,,,,,,,,,
,,,,6,6.818505,0,24,24,10,1,a beautiful mountain cabin with windows looking out over a lake,a beautiful mountain cabit with windows looking out over a lake that has three white birds swimming in it,wolfe2,003_L_ducks,2,34,A1AZ97YYFVWFGC,2021-02-17_15h41.58.388,MetaAwareness,2020.1.2,Win32,60,3K2CEDRACC4YL1T7RTFTXT2BSB8TMI,A1AZ97YYFVWFGC,3WQ3B2KGE9J4FABVONAC1Q3AGDJ1B8,GBQW7,GBQW7,3WQ3B2KGE9J4FABVONAC1Q3AGDJ1B8,3WQ3B2KGE9J4FABVONAC1Q3AGDJ1B8,276287,276287,,,,,,,,,,
,,,,6,12.585245,0,25,25,20,1,"a bedroom with hardwood floors, matching wood furniture and a lamp on the night stand","a bedroom with hardwoo floors, matching wood furniture and a lamp on the night stand",wolfe2,006_L_vase,7,34,A1AZ97YYFVWFGC,2021-02-17_15h41.58.388,MetaAwareness,2020.1.2,Win32,60,3K2CEDRACC4YL1T7RTFTXT2BSB8TMI,A1AZ97YYFVWFGC,3WQ3B2KGE9J4FABVONAC1Q3AGDJ1B8,GBQW7,GBQW7,3WQ3B2KGE9J4FABVONAC1Q3AGDJ1B8,3WQ3B2KGE9J4FABVONAC1Q3AGDJ1B8,276287,276287,,,,,,,,,,
,,,,5,4.20125,0,26,26,38,1,a white bedroom with 1 candle on the nightstand,a white bedroom with 2 candles on the nightstand,wolfe2,010_L_candle,1,34,A1AZ97YYFVWFGC,2021-02-17_15h41.58.388,MetaAwareness,2020.1.2,Win32,60,3K2CEDRACC4YL1T7RTFTXT2BSB8TMI,A1AZ97YYFVWFGC,3WQ3B2KGE9J4FABVONAC1Q3AGDJ1B8,GBQW7,GBQW7,3WQ3B2KGE9J4FABVONAC1Q3AGDJ1B8,3WQ3B2KGE9J4FABVONAC1Q3AGDJ1B8,276287,276287,,,,,,,,,,
,,,,4,6.8384,0,27,27,89,1,a home office without a keyboard,a home office with a keyboard,wolfe2,021_L_keyboard,4,34,A1AZ97YYFVWFGC,2021-02-17_15h41.58.388,MetaAwareness,2020.1.2,Win32,60,3K2CEDRACC4YL1T7RTFTXT2BSB8TMI,A1AZ97YYFVWFGC,3WQ3B2KGE9J4FABVONAC1Q3AGDJ1B8,GBQW7,GBQW7,3WQ3B2KGE9J4FABVONAC1Q3AGDJ1B8,3WQ3B2KGE9J4FABVONAC1Q3AGDJ1B8,276287,276287,,,,,,,,,,
,,,,1,8.369505,0,28,28,279,1,dining room with 6 chairs,dining room with wine bottles on desk in the back,wolfe2,064_L_bottles,3,34,A1AZ97YYFVWFGC,2021-02-17_15h41.58.388,MetaAwareness,2020.1.2,Win32,60,3K2CEDRACC4YL1T7RTFTXT2BSB8TMI,A1AZ97YYFVWFGC,3WQ3B2KGE9J4FABVONAC1Q3AGDJ1B8,GBQW7,GBQW7,3WQ3B2KGE9J4FABVONAC1Q3AGDJ1B8,3WQ3B2KGE9J4FABVONAC1Q3AGDJ1B8,276287,276287,,,,,,,,,,
,,,,5,6.315285,0,29,29,45,1,a modern style bathroom,a modern style bathroom with a soap bottle added,wolfe2,011_R_parfum,2,34,A1AZ97YYFVWFGC,2021-02-17_15h41.58.388,MetaAwareness,2020.1.2,Win32,60,3K2CEDRACC4YL1T7RTFTXT2BSB8TMI,A1AZ97YYFVWFGC,3WQ3B2KGE9J4FABVONAC1Q3AGDJ1B8,GBQW7,GBQW7,3WQ3B2KGE9J4FABVONAC1Q3AGDJ1B8,3WQ3B2KGE9J4FABVONAC1Q3AGDJ1B8,276287,276287,,,,,,,,,,
,,,,,,,,,,,,,,,,34,A1AZ97YYFVWFGC,2021-02-17_15h41.58.388,MetaAwareness,2020.1.2,Win32,60,3K2CEDRACC4YL1T7RTFTXT2BSB8TMI,A1AZ97YYFVWFGC,3WQ3B2KGE9J4FABVONAC1Q3AGDJ1B8,GBQW7,GBQW7,3WQ3B2KGE9J4FABVONAC1Q3AGDJ1B8,3WQ3B2KGE9J4FABVONAC1Q3AGDJ1B8,276287,276287,6,8.716795,someone laying underneath a blue beach umbrella on a crowded beach,someone laying underneath a blue beach umbrella on a crowded beach,same,1,7.615795,members of a marching band crossing a track that all have feather plumes at the front of their hats,a cluttered and rustic looking cafe with 10 hanging lights,different
