consent_response.keys,consent_response.rt,key_resp_2.keys,key_resp_2.rt,user_resp.keys,user_resp.rt,trials.thisRepN,trials.thisTrialN,trials.thisN,trials.thisIndex,trials.ran,image_1_text,image_2_text,database,image,number,age,worker_ID,date,expName,psychopyVersion,OS,frameRate,hitId,workerId,assignmentId,a,tp_a,b,tp_b,c,tp_c,catch_same_resp.keys,catch_same_resp.rt,image_1_text_catch_same,image_2_text_catch_same,image_catch_same,catch_different_resp.keys,catch_different_resp.rt,image_1_text_catch_different,image_2_text_catch_different,image_catch_different
space,4.806905,space,9.977485,4,35.626875,0,0,0,503,1,a room with windows for walls. lots of plants.f,a room with windows for walls that has a vase on the floor by one of the potted plants.,wolfe2,111_R_pot,1,45,A1HJ79AXLDNY5P,2021-02-17_20h34.56.895,MetaAwareness,2020.1.2,Win32,60,3H4IKZHALCL6869N6Y8H19LJ8J1NNG,A1HJ79AXLDNY5P,33OOO72IVIOOYZFA46QHIGSNQHLTCR,IOO37,IOO37,33OOO72IVIOOYZFA46QHIGSNQHLTCR,33OOO72IVIOOYZFA46QHIGSNQHLTCR,276287,276287,,,,,,,,,,
,,,,5,10.558635,0,1,1,34,1,"a very modern bedroom with glass walls, white floors and brown accents","a very modern bedroom with glass walls, white floors, and brown accents with a small rug under one corner of the bed",wolfe2,009_L_carpet,1,45,A1HJ79AXLDNY5P,2021-02-17_20h34.56.895,MetaAwareness,2020.1.2,Win32,60,3H4IKZHALCL6869N6Y8H19LJ8J1NNG,A1HJ79AXLDNY5P,33OOO72IVIOOYZFA46QHIGSNQHLTCR,IOO37,IOO37,33OOO72IVIOOYZFA46QHIGSNQHLTCR,33OOO72IVIOOYZFA46QHIGSNQHLTCR,276287,276287,,,,,,,,,,
,,,,4,20.282885,0,2,2,429,1,"this room appears to be for a teen girl, the bed or lounger appears quite comfortable, and the room's color palette of cream and pink goes nicely together.",this teen girls room is very fashionable and the lovely pink desk compliments the cream of the furniture. on top of the pink desk appears to be a makeup case or something to that effect.,wolfe2,096_L_painting,1,45,A1HJ79AXLDNY5P,2021-02-17_20h34.56.895,MetaAwareness,2020.1.2,Win32,60,3H4IKZHALCL6869N6Y8H19LJ8J1NNG,A1HJ79AXLDNY5P,33OOO72IVIOOYZFA46QHIGSNQHLTCR,IOO37,IOO37,33OOO72IVIOOYZFA46QHIGSNQHLTCR,33OOO72IVIOOYZFA46QHIGSNQHLTCR,276287,276287,,,,,,,,,,
,,,,1,11.139495,0,3,3,336,1,the beige wall is waiting for the right decor to liven the bathroom up abit.,"the decor that is in this image, seems to promote a healthy body image.  the space is nice and roomy.",wolfe2,076_R_hook,1,45,A1HJ79AXLDNY5P,2021-02-17_20h34.56.895,MetaAwareness,2020.1.2,Win32,60,3H4IKZHALCL6869N6Y8H19LJ8J1NNG,A1HJ79AXLDNY5P,33OOO72IVIOOYZFA46QHIGSNQHLTCR,IOO37,IOO37,33OOO72IVIOOYZFA46QHIGSNQHLTCR,33OOO72IVIOOYZFA46QHIGSNQHLTCR,276287,276287,,,,,,,,,,
,,,,1,9.849125,0,4,4,551,1,this would be a vacation home to stay and enjoy.  the pool is spacious and just enough shade that you don't burn.,there appears to be an empty space for a plant.  there are many plants that are  taking up residence here.,wolfe2,123_R_pot,1,45,A1HJ79AXLDNY5P,2021-02-17_20h34.56.895,MetaAwareness,2020.1.2,Win32,60,3H4IKZHALCL6869N6Y8H19LJ8J1NNG,A1HJ79AXLDNY5P,33OOO72IVIOOYZFA46QHIGSNQHLTCR,IOO37,IOO37,33OOO72IVIOOYZFA46QHIGSNQHLTCR,33OOO72IVIOOYZFA46QHIGSNQHLTCR,276287,276287,,,,,,,,,,
,,,,6,7.4845,0,5,5,158,1,"a brown, retro dining room without a long sculpture hanging on the wall","a brown, retro dining room with a long sculpture hanging on the wall",wolfe2,038_L_art,3,45,A1HJ79AXLDNY5P,2021-02-17_20h34.56.895,MetaAwareness,2020.1.2,Win32,60,3H4IKZHALCL6869N6Y8H19LJ8J1NNG,A1HJ79AXLDNY5P,33OOO72IVIOOYZFA46QHIGSNQHLTCR,IOO37,IOO37,33OOO72IVIOOYZFA46QHIGSNQHLTCR,33OOO72IVIOOYZFA46QHIGSNQHLTCR,276287,276287,,,,,,,,,,
,,,,5,12.61752,0,6,6,26,1,a rustic looking bathroom with a towel sitting on the countertop,a rustic looking bathroom with a bowl sitting on a towel on the countertop,wolfe2,007_R_soap,2,45,A1HJ79AXLDNY5P,2021-02-17_20h34.56.895,MetaAwareness,2020.1.2,Win32,60,3H4IKZHALCL6869N6Y8H19LJ8J1NNG,A1HJ79AXLDNY5P,33OOO72IVIOOYZFA46QHIGSNQHLTCR,IOO37,IOO37,33OOO72IVIOOYZFA46QHIGSNQHLTCR,33OOO72IVIOOYZFA46QHIGSNQHLTCR,276287,276287,,,,,,,,,,
,,,,1,5.20043,0,7,7,510,1,here is abrown hamper,this shows an empty floor,wolfe2,112_L_basket,3,45,A1HJ79AXLDNY5P,2021-02-17_20h34.56.895,MetaAwareness,2020.1.2,Win32,60,3H4IKZHALCL6869N6Y8H19LJ8J1NNG,A1HJ79AXLDNY5P,33OOO72IVIOOYZFA46QHIGSNQHLTCR,IOO37,IOO37,33OOO72IVIOOYZFA46QHIGSNQHLTCR,33OOO72IVIOOYZFA46QHIGSNQHLTCR,276287,276287,,,,,,,,,,
,,,,5,10.687,0,8,8,258,1,a very modern and fun looking child's bedroom that has an armoir with nothing on top of it,a very modern and fun looking child's bedroom that has an armoir with a model car on top of it,wolfe2,059_R_car,1,45,A1HJ79AXLDNY5P,2021-02-17_20h34.56.895,MetaAwareness,2020.1.2,Win32,60,3H4IKZHALCL6869N6Y8H19LJ8J1NNG,A1HJ79AXLDNY5P,33OOO72IVIOOYZFA46QHIGSNQHLTCR,IOO37,IOO37,33OOO72IVIOOYZFA46QHIGSNQHLTCR,33OOO72IVIOOYZFA46QHIGSNQHLTCR,276287,276287,,,,,,,,,,
,,,,5,31.484655,0,9,9,11,1,a lakeside view from a large multi-panel window,a lakeside view from a large multi-panel window that shows three ducks swimming,wolfe2,003_R_ducks,3,45,A1HJ79AXLDNY5P,2021-02-17_20h34.56.895,MetaAwareness,2020.1.2,Win32,60,3H4IKZHALCL6869N6Y8H19LJ8J1NNG,A1HJ79AXLDNY5P,33OOO72IVIOOYZFA46QHIGSNQHLTCR,IOO37,IOO37,33OOO72IVIOOYZFA46QHIGSNQHLTCR,33OOO72IVIOOYZFA46QHIGSNQHLTCR,276287,276287,,,,,,,,,,
,,,,4,7.75466,0,10,10,54,1,a loft type living space. has a dining area with one light hanging above the table,a loft type living space. has a dining area with two lights hanging above the table.,wolfe2,013_R_lamp,5,45,A1HJ79AXLDNY5P,2021-02-17_20h34.56.895,MetaAwareness,2020.1.2,Win32,60,3H4IKZHALCL6869N6Y8H19LJ8J1NNG,A1HJ79AXLDNY5P,33OOO72IVIOOYZFA46QHIGSNQHLTCR,IOO37,IOO37,33OOO72IVIOOYZFA46QHIGSNQHLTCR,33OOO72IVIOOYZFA46QHIGSNQHLTCR,276287,276287,,,,,,,,,,
,,,,3,11.107805,0,11,11,161,1,the center wall in the dining room is bare,the center wall of the dining room has a tall narrow piece of art.,wolfe2,038_R_art,3,45,A1HJ79AXLDNY5P,2021-02-17_20h34.56.895,MetaAwareness,2020.1.2,Win32,60,3H4IKZHALCL6869N6Y8H19LJ8J1NNG,A1HJ79AXLDNY5P,33OOO72IVIOOYZFA46QHIGSNQHLTCR,IOO37,IOO37,33OOO72IVIOOYZFA46QHIGSNQHLTCR,33OOO72IVIOOYZFA46QHIGSNQHLTCR,276287,276287,,,,,,,,,,
,,,,3,9.317325,0,12,12,339,1,a modern kitchen with bar seating at an island. there are three black seat stools with footrest and on black seat stool with no footrest.,a modern kitchen with bar seating at an island. there are four black seat stools with footrests.,wolfe2,077_L_footrest,1,45,A1HJ79AXLDNY5P,2021-02-17_20h34.56.895,MetaAwareness,2020.1.2,Win32,60,3H4IKZHALCL6869N6Y8H19LJ8J1NNG,A1HJ79AXLDNY5P,33OOO72IVIOOYZFA46QHIGSNQHLTCR,IOO37,IOO37,33OOO72IVIOOYZFA46QHIGSNQHLTCR,33OOO72IVIOOYZFA46QHIGSNQHLTCR,276287,276287,,,,,,,,,,
,,,,5,6.10196,0,13,13,402,1,a empty salon with 4 pictures hanging on the walls,an empty salon with 3 pictures hanging on the walls,wolfe2,089_L_poster,2,45,A1HJ79AXLDNY5P,2021-02-17_20h34.56.895,MetaAwareness,2020.1.2,Win32,60,3H4IKZHALCL6869N6Y8H19LJ8J1NNG,A1HJ79AXLDNY5P,33OOO72IVIOOYZFA46QHIGSNQHLTCR,IOO37,IOO37,33OOO72IVIOOYZFA46QHIGSNQHLTCR,33OOO72IVIOOYZFA46QHIGSNQHLTCR,276287,276287,,,,,,,,,,
,,,,5,10.50887,0,14,14,59,1,"a room with two hightop tables, very high ceilings and 3 upward pointed lights very high up on the walls",a room with two hightop tables very high ceilings and 4 upward pointed lights very high up on the walls,wolfe2,014_R_lamp,6,45,A1HJ79AXLDNY5P,2021-02-17_20h34.56.895,MetaAwareness,2020.1.2,Win32,60,3H4IKZHALCL6869N6Y8H19LJ8J1NNG,A1HJ79AXLDNY5P,33OOO72IVIOOYZFA46QHIGSNQHLTCR,IOO37,IOO37,33OOO72IVIOOYZFA46QHIGSNQHLTCR,33OOO72IVIOOYZFA46QHIGSNQHLTCR,276287,276287,,,,,,,,,,
,,,,2,8.925695,0,15,15,475,1,a bathroom with a tissue box on the wall,a bathroom without any tissue box on the wall,wolfe2,106_L_toweldispenser,2,45,A1HJ79AXLDNY5P,2021-02-17_20h34.56.895,MetaAwareness,2020.1.2,Win32,60,3H4IKZHALCL6869N6Y8H19LJ8J1NNG,A1HJ79AXLDNY5P,33OOO72IVIOOYZFA46QHIGSNQHLTCR,IOO37,IOO37,33OOO72IVIOOYZFA46QHIGSNQHLTCR,33OOO72IVIOOYZFA46QHIGSNQHLTCR,276287,276287,,,,,,,,,,
,,,,1,6.43527,0,16,16,333,1,a well painted ceiling appears in a well outfitted kitchen.,a can light appears in the kitchen.,wolfe2,075_R_light,5,45,A1HJ79AXLDNY5P,2021-02-17_20h34.56.895,MetaAwareness,2020.1.2,Win32,60,3H4IKZHALCL6869N6Y8H19LJ8J1NNG,A1HJ79AXLDNY5P,33OOO72IVIOOYZFA46QHIGSNQHLTCR,IOO37,IOO37,33OOO72IVIOOYZFA46QHIGSNQHLTCR,33OOO72IVIOOYZFA46QHIGSNQHLTCR,276287,276287,,,,,,,,,,
,,,,4,5.854075,0,17,17,70,1,a living room area with a fireplace with no wood inside,a living room area with a fireplace with wood inside,wolfe2,017_L_wood,3,45,A1HJ79AXLDNY5P,2021-02-17_20h34.56.895,MetaAwareness,2020.1.2,Win32,60,3H4IKZHALCL6869N6Y8H19LJ8J1NNG,A1HJ79AXLDNY5P,33OOO72IVIOOYZFA46QHIGSNQHLTCR,IOO37,IOO37,33OOO72IVIOOYZFA46QHIGSNQHLTCR,33OOO72IVIOOYZFA46QHIGSNQHLTCR,276287,276287,,,,,,,,,,
,,,,4,8.205505,0,18,18,362,1,a grand style master bedroom with a white nightstand to the right,a granddstyle master bedroom with a object on the nightstand to the right,wolfe2,082_R_bowl,3,45,A1HJ79AXLDNY5P,2021-02-17_20h34.56.895,MetaAwareness,2020.1.2,Win32,60,3H4IKZHALCL6869N6Y8H19LJ8J1NNG,A1HJ79AXLDNY5P,33OOO72IVIOOYZFA46QHIGSNQHLTCR,IOO37,IOO37,33OOO72IVIOOYZFA46QHIGSNQHLTCR,33OOO72IVIOOYZFA46QHIGSNQHLTCR,276287,276287,,,,,,,,,,
,,,,5,6.66814,0,19,19,168,1,a dark wood furniture dining room with 2 pictures hanging about the china cabinet.,a dark wood furniture dining room with three pictures hanging above the china cabinet.,wolfe2,040_L_painting,1,45,A1HJ79AXLDNY5P,2021-02-17_20h34.56.895,MetaAwareness,2020.1.2,Win32,60,3H4IKZHALCL6869N6Y8H19LJ8J1NNG,A1HJ79AXLDNY5P,33OOO72IVIOOYZFA46QHIGSNQHLTCR,IOO37,IOO37,33OOO72IVIOOYZFA46QHIGSNQHLTCR,33OOO72IVIOOYZFA46QHIGSNQHLTCR,276287,276287,,,,,,,,,,
,,,,4,11.401545,0,20,20,390,1,messy hotel bathroom with a hand towel ring on the wall next to the sink,messy hotel bathroom with no hand towel ring for hanging up your hand towels,wolfe2,087_L_towelhandle,3,45,A1HJ79AXLDNY5P,2021-02-17_20h34.56.895,MetaAwareness,2020.1.2,Win32,60,3H4IKZHALCL6869N6Y8H19LJ8J1NNG,A1HJ79AXLDNY5P,33OOO72IVIOOYZFA46QHIGSNQHLTCR,IOO37,IOO37,33OOO72IVIOOYZFA46QHIGSNQHLTCR,33OOO72IVIOOYZFA46QHIGSNQHLTCR,276287,276287,,,,,,,,,,
,,,,3,8.343375,0,21,21,392,1,it is a picture of a bathroom sink with a towel hanger in between the sink and toilet.,it is a picture of a bathroom sink  and there is no towel hanger.,wolfe2,087_R_towelhandle,2,45,A1HJ79AXLDNY5P,2021-02-17_20h34.56.895,MetaAwareness,2020.1.2,Win32,60,3H4IKZHALCL6869N6Y8H19LJ8J1NNG,A1HJ79AXLDNY5P,33OOO72IVIOOYZFA46QHIGSNQHLTCR,IOO37,IOO37,33OOO72IVIOOYZFA46QHIGSNQHLTCR,33OOO72IVIOOYZFA46QHIGSNQHLTCR,276287,276287,,,,,,,,,,
,,,,4,7.225215,0,22,22,119,1,a black bathroom countertop with a metal block sitting on top,a black bathroom countertop with two metal blocks sitting on top,wolfe2,028_L_vase,3,45,A1HJ79AXLDNY5P,2021-02-17_20h34.56.895,MetaAwareness,2020.1.2,Win32,60,3H4IKZHALCL6869N6Y8H19LJ8J1NNG,A1HJ79AXLDNY5P,33OOO72IVIOOYZFA46QHIGSNQHLTCR,IOO37,IOO37,33OOO72IVIOOYZFA46QHIGSNQHLTCR,33OOO72IVIOOYZFA46QHIGSNQHLTCR,276287,276287,,,,,,,,,,
,,,,5,5.09392,0,23,23,295,1,an office meeting room with a large tv,an office meeting room with a large tv and a small picture,wolfe2,067_R_painting,3,45,A1HJ79AXLDNY5P,2021-02-17_20h34.56.895,MetaAwareness,2020.1.2,Win32,60,3H4IKZHALCL6869N6Y8H19LJ8J1NNG,A1HJ79AXLDNY5P,33OOO72IVIOOYZFA46QHIGSNQHLTCR,IOO37,IOO37,33OOO72IVIOOYZFA46QHIGSNQHLTCR,33OOO72IVIOOYZFA46QHIGSNQHLTCR,276287,276287,,,,,,,,,,
,,,,4,5.210245,0,24,24,325,1,a living room with no book on the coffee table,a living room with a book on the coffee table,wolfe2,074_R_book,5,45,A1HJ79AXLDNY5P,2021-02-17_20h34.56.895,MetaAwareness,2020.1.2,Win32,60,3H4IKZHALCL6869N6Y8H19LJ8J1NNG,A1HJ79AXLDNY5P,33OOO72IVIOOYZFA46QHIGSNQHLTCR,IOO37,IOO37,33OOO72IVIOOYZFA46QHIGSNQHLTCR,33OOO72IVIOOYZFA46QHIGSNQHLTCR,276287,276287,,,,,,,,,,
,,,,3,10.545035,0,25,25,192,1,a bathroom with a glass shower and a white bathtub with one light on the side,a bathroom with a glass shower and a white bathtub with two lights on the side,wolfe2,044_L_light,4,45,A1HJ79AXLDNY5P,2021-02-17_20h34.56.895,MetaAwareness,2020.1.2,Win32,60,3H4IKZHALCL6869N6Y8H19LJ8J1NNG,A1HJ79AXLDNY5P,33OOO72IVIOOYZFA46QHIGSNQHLTCR,IOO37,IOO37,33OOO72IVIOOYZFA46QHIGSNQHLTCR,33OOO72IVIOOYZFA46QHIGSNQHLTCR,276287,276287,,,,,,,,,,
,,,,4,7.501305,0,26,26,485,1,two coat-suit are in the hanker,there is only one coat-suit in the hanker,wolfe2,107_R_shirts,1,45,A1HJ79AXLDNY5P,2021-02-17_20h34.56.895,MetaAwareness,2020.1.2,Win32,60,3H4IKZHALCL6869N6Y8H19LJ8J1NNG,A1HJ79AXLDNY5P,33OOO72IVIOOYZFA46QHIGSNQHLTCR,IOO37,IOO37,33OOO72IVIOOYZFA46QHIGSNQHLTCR,33OOO72IVIOOYZFA46QHIGSNQHLTCR,276287,276287,,,,,,,,,,
,,,,3,10.188185,0,27,27,557,1,"a sunroom with large windows, white chairs, a blue and white rug, and a white table","a sunroom with large windows, white table and chairs, a blue and white rug, and",wolfe2,124_R_vase,1,45,A1HJ79AXLDNY5P,2021-02-17_20h34.56.895,MetaAwareness,2020.1.2,Win32,60,3H4IKZHALCL6869N6Y8H19LJ8J1NNG,A1HJ79AXLDNY5P,33OOO72IVIOOYZFA46QHIGSNQHLTCR,IOO37,IOO37,33OOO72IVIOOYZFA46QHIGSNQHLTCR,33OOO72IVIOOYZFA46QHIGSNQHLTCR,276287,276287,,,,,,,,,,
,,,,5,8.03566,0,28,28,98,1,living room with rustic feel,living room with rustic feel and remote control on table between the chairs,wolfe2,023_L_remote,3,45,A1HJ79AXLDNY5P,2021-02-17_20h34.56.895,MetaAwareness,2020.1.2,Win32,60,3H4IKZHALCL6869N6Y8H19LJ8J1NNG,A1HJ79AXLDNY5P,33OOO72IVIOOYZFA46QHIGSNQHLTCR,IOO37,IOO37,33OOO72IVIOOYZFA46QHIGSNQHLTCR,33OOO72IVIOOYZFA46QHIGSNQHLTCR,276287,276287,,,,,,,,,,
,,,,4,7.818605,0,29,29,234,1,a large bathroom lined in stone with a cabinet containing one drawer on the bottom.,a large bathroom lined in stone with a cabinet containing two drawers on the bottom.,wolfe2,053_L_handle,1,45,A1HJ79AXLDNY5P,2021-02-17_20h34.56.895,MetaAwareness,2020.1.2,Win32,60,3H4IKZHALCL6869N6Y8H19LJ8J1NNG,A1HJ79AXLDNY5P,33OOO72IVIOOYZFA46QHIGSNQHLTCR,IOO37,IOO37,33OOO72IVIOOYZFA46QHIGSNQHLTCR,33OOO72IVIOOYZFA46QHIGSNQHLTCR,276287,276287,,,,,,,,,,
,,,,,,,,,,,,,,,,45,A1HJ79AXLDNY5P,2021-02-17_20h34.56.895,MetaAwareness,2020.1.2,Win32,60,3H4IKZHALCL6869N6Y8H19LJ8J1NNG,A1HJ79AXLDNY5P,33OOO72IVIOOYZFA46QHIGSNQHLTCR,IOO37,IOO37,33OOO72IVIOOYZFA46QHIGSNQHLTCR,33OOO72IVIOOYZFA46QHIGSNQHLTCR,276287,276287,6,6.42301,someone laying underneath a blue beach umbrella on a crowded beach,someone laying underneath a blue beach umbrella on a crowded beach,same,1,7.670365,members of a marching band crossing a track that all have feather plumes at the front of their hats,a cluttered and rustic looking cafe with 10 hanging lights,different
