consent_response.keys,consent_response.rt,key_resp_2.keys,key_resp_2.rt,user_resp.keys,user_resp.rt,trials.thisRepN,trials.thisTrialN,trials.thisN,trials.thisIndex,trials.ran,image_1_text,image_2_text,database,image,number,age,worker_ID,date,expName,psychopyVersion,OS,frameRate,hitId,workerId,assignmentId,a,tp_a,b,tp_b,c,tp_c,catch_same_resp.keys,catch_same_resp.rt,image_1_text_catch_same,image_2_text_catch_same,image_catch_same,catch_different_resp.keys,catch_different_resp.rt,image_1_text_catch_different,image_2_text_catch_different,image_catch_different
space,2.074,space,1.843,5,4.255,0,0,0,374,1,a well appointed living area contains a vast assortment of accoutremonts.,a wall sconce appears in the busy livingroom,wolfe2,084_R_light,5,34,A1TZ9YVT2ILX01,2021-02-17_21h09.56.641,MetaAwareness,2020.1.2,Win32,60,3TL87MO8CNS4WETLWX9PGC8L1XHFL1,A1TZ9YVT2ILX01,3GFK2QRXXAKVRVAPK18KRUTC2ULW5G,X2FG7,X2FG7,3GFK2QRXXAKVRVAPK18KRUTC2ULW5G,3GFK2QRXXAKVRVAPK18KRUTC2ULW5G,276287,276287,,,,,,,,,,
,,,,3,2.453,0,1,1,273,1,a wooden living room with an empty desk,a wooden living room with a desk that has a notbook on it,wolfe2,063_L_laptop,1,34,A1TZ9YVT2ILX01,2021-02-17_21h09.56.641,MetaAwareness,2020.1.2,Win32,60,3TL87MO8CNS4WETLWX9PGC8L1XHFL1,A1TZ9YVT2ILX01,3GFK2QRXXAKVRVAPK18KRUTC2ULW5G,X2FG7,X2FG7,3GFK2QRXXAKVRVAPK18KRUTC2ULW5G,3GFK2QRXXAKVRVAPK18KRUTC2ULW5G,276287,276287,,,,,,,,,,
,,,,4,2.292,0,2,2,445,1,a modern dining room with a three candlesticks hanging off the wall,a modern dining room with two candlesticks hanging off the wall,wolfe2,099_R_sconce,1,34,A1TZ9YVT2ILX01,2021-02-17_21h09.56.641,MetaAwareness,2020.1.2,Win32,60,3TL87MO8CNS4WETLWX9PGC8L1XHFL1,A1TZ9YVT2ILX01,3GFK2QRXXAKVRVAPK18KRUTC2ULW5G,X2FG7,X2FG7,3GFK2QRXXAKVRVAPK18KRUTC2ULW5G,3GFK2QRXXAKVRVAPK18KRUTC2ULW5G,276287,276287,,,,,,,,,,
,,,,6,14.047,0,3,3,462,1,bright and clean washroom with a hook on the far wall.,bright and clean washroom,wolfe2,103_R_hook,2,34,A1TZ9YVT2ILX01,2021-02-17_21h09.56.641,MetaAwareness,2020.1.2,Win32,60,3TL87MO8CNS4WETLWX9PGC8L1XHFL1,A1TZ9YVT2ILX01,3GFK2QRXXAKVRVAPK18KRUTC2ULW5G,X2FG7,X2FG7,3GFK2QRXXAKVRVAPK18KRUTC2ULW5G,3GFK2QRXXAKVRVAPK18KRUTC2ULW5G,276287,276287,,,,,,,,,,
,,,,2,29.475,0,4,4,68,1,a very contemporary living room with a flat screen tv against the wall.,a very contmporary living room with a flat screen tv against the wall that is a newer movel.,wolfe2,017_L_wood,1,34,A1TZ9YVT2ILX01,2021-02-17_21h09.56.641,MetaAwareness,2020.1.2,Win32,60,3TL87MO8CNS4WETLWX9PGC8L1XHFL1,A1TZ9YVT2ILX01,3GFK2QRXXAKVRVAPK18KRUTC2ULW5G,X2FG7,X2FG7,3GFK2QRXXAKVRVAPK18KRUTC2ULW5G,3GFK2QRXXAKVRVAPK18KRUTC2ULW5G,276287,276287,,,,,,,,,,
,,,,3,0.82,0,5,5,102,1,a sink and counter in a room.,a sink and counter in a room with handtowels add the the bottom shelf.num_enter,wolfe2,024_R_towels,1,34,A1TZ9YVT2ILX01,2021-02-17_21h09.56.641,MetaAwareness,2020.1.2,Win32,60,3TL87MO8CNS4WETLWX9PGC8L1XHFL1,A1TZ9YVT2ILX01,3GFK2QRXXAKVRVAPK18KRUTC2ULW5G,X2FG7,X2FG7,3GFK2QRXXAKVRVAPK18KRUTC2ULW5G,3GFK2QRXXAKVRVAPK18KRUTC2ULW5G,276287,276287,,,,,,,,,,
,,,,2,1.117,0,6,6,11,1,a lakeside view from a large multi-panel window,a lakeside view from a large multi-panel window that shows three ducks swimming,wolfe2,003_R_ducks,3,34,A1TZ9YVT2ILX01,2021-02-17_21h09.56.641,MetaAwareness,2020.1.2,Win32,60,3TL87MO8CNS4WETLWX9PGC8L1XHFL1,A1TZ9YVT2ILX01,3GFK2QRXXAKVRVAPK18KRUTC2ULW5G,X2FG7,X2FG7,3GFK2QRXXAKVRVAPK18KRUTC2ULW5G,3GFK2QRXXAKVRVAPK18KRUTC2ULW5G,276287,276287,,,,,,,,,,
,,,,3,0.904,0,7,7,147,1,a bedroom with a dresser with 2 handles,a bedroom with a dresser with 3 handles,wolfe2,034_L_handle,4,34,A1TZ9YVT2ILX01,2021-02-17_21h09.56.641,MetaAwareness,2020.1.2,Win32,60,3TL87MO8CNS4WETLWX9PGC8L1XHFL1,A1TZ9YVT2ILX01,3GFK2QRXXAKVRVAPK18KRUTC2ULW5G,X2FG7,X2FG7,3GFK2QRXXAKVRVAPK18KRUTC2ULW5G,3GFK2QRXXAKVRVAPK18KRUTC2ULW5G,276287,276287,,,,,,,,,,
,,,,4,0.929,0,8,8,184,1,"a luxurious bathroom with two vessel sinks and mirrors, but one of the sinks has no faucet","a luxurious bathroom with two vessel sinks and mirrors, and both sinks have faucets",wolfe2,042_R_tap,1,34,A1TZ9YVT2ILX01,2021-02-17_21h09.56.641,MetaAwareness,2020.1.2,Win32,60,3TL87MO8CNS4WETLWX9PGC8L1XHFL1,A1TZ9YVT2ILX01,3GFK2QRXXAKVRVAPK18KRUTC2ULW5G,X2FG7,X2FG7,3GFK2QRXXAKVRVAPK18KRUTC2ULW5G,3GFK2QRXXAKVRVAPK18KRUTC2ULW5G,276287,276287,,,,,,,,,,
,,,,5,1.401,0,9,9,571,1,"a large modern living room with a large dog, a view of the pool, art on the walls, two sofas, and a pair of wall sconces","a large modern living room with a large dog, a view of the pool, art on the walls, two sofas, and one wall sconce",wolfe2,127_R_light,4,34,A1TZ9YVT2ILX01,2021-02-17_21h09.56.641,MetaAwareness,2020.1.2,Win32,60,3TL87MO8CNS4WETLWX9PGC8L1XHFL1,A1TZ9YVT2ILX01,3GFK2QRXXAKVRVAPK18KRUTC2ULW5G,X2FG7,X2FG7,3GFK2QRXXAKVRVAPK18KRUTC2ULW5G,3GFK2QRXXAKVRVAPK18KRUTC2ULW5G,276287,276287,,,,,,,,,,
,,,,5,1.383,0,10,10,427,1,living room with a mirror in place of fireplace. it has multiple candles on the shelf and there are two red candles,living room with a mirror in place of fireplace. it has multiple candles on the shelf and there is only on red candle,wolfe2,095_R_candle,5,34,A1TZ9YVT2ILX01,2021-02-17_21h09.56.641,MetaAwareness,2020.1.2,Win32,60,3TL87MO8CNS4WETLWX9PGC8L1XHFL1,A1TZ9YVT2ILX01,3GFK2QRXXAKVRVAPK18KRUTC2ULW5G,X2FG7,X2FG7,3GFK2QRXXAKVRVAPK18KRUTC2ULW5G,3GFK2QRXXAKVRVAPK18KRUTC2ULW5G,276287,276287,,,,,,,,,,
,,,,6,3.108,0,11,11,179,1,it is an empty wall,it has a water pipe,wolfe2,042_L_tap,1,34,A1TZ9YVT2ILX01,2021-02-17_21h09.56.641,MetaAwareness,2020.1.2,Win32,60,3TL87MO8CNS4WETLWX9PGC8L1XHFL1,A1TZ9YVT2ILX01,3GFK2QRXXAKVRVAPK18KRUTC2ULW5G,X2FG7,X2FG7,3GFK2QRXXAKVRVAPK18KRUTC2ULW5G,3GFK2QRXXAKVRVAPK18KRUTC2ULW5G,276287,276287,,,,,,,,,,
,,,,4,0.406,0,12,12,31,1,a blue bathroom that has a bottle resting on the window sill,a blue bathroom that has two bottles resting on the window sill,wolfe2,008_L_bottle,3,34,A1TZ9YVT2ILX01,2021-02-17_21h09.56.641,MetaAwareness,2020.1.2,Win32,60,3TL87MO8CNS4WETLWX9PGC8L1XHFL1,A1TZ9YVT2ILX01,3GFK2QRXXAKVRVAPK18KRUTC2ULW5G,X2FG7,X2FG7,3GFK2QRXXAKVRVAPK18KRUTC2ULW5G,3GFK2QRXXAKVRVAPK18KRUTC2ULW5G,276287,276287,,,,,,,,,,
,,,,4,1.277,0,13,13,67,1,a bedroom with a scenic view of the trees outside. no object on the black cube in the bedroom.,a bedroom with a scenic view of the trees outside. theres a black cube display with another object on top in the bedroom.,wolfe2,016_R_art,4,34,A1TZ9YVT2ILX01,2021-02-17_21h09.56.641,MetaAwareness,2020.1.2,Win32,60,3TL87MO8CNS4WETLWX9PGC8L1XHFL1,A1TZ9YVT2ILX01,3GFK2QRXXAKVRVAPK18KRUTC2ULW5G,X2FG7,X2FG7,3GFK2QRXXAKVRVAPK18KRUTC2ULW5G,3GFK2QRXXAKVRVAPK18KRUTC2ULW5G,276287,276287,,,,,,,,,,
,,,,3,1.017,0,14,14,338,1,a bathroom without a towel hook by the bathroom mirror,a bathroom with a towel hook by the bathroom mirror,wolfe2,076_R_hook,4,34,A1TZ9YVT2ILX01,2021-02-17_21h09.56.641,MetaAwareness,2020.1.2,Win32,60,3TL87MO8CNS4WETLWX9PGC8L1XHFL1,A1TZ9YVT2ILX01,3GFK2QRXXAKVRVAPK18KRUTC2ULW5G,X2FG7,X2FG7,3GFK2QRXXAKVRVAPK18KRUTC2ULW5G,3GFK2QRXXAKVRVAPK18KRUTC2ULW5G,276287,276287,,,,,,,,,,
,,,,1,2.432,0,15,15,222,1,an oldern looking living with a white fireplace,a feminine looking living room with a glass jar sitting above a fireplace,wolfe2,051_L_owl,1,34,A1TZ9YVT2ILX01,2021-02-17_21h09.56.641,MetaAwareness,2020.1.2,Win32,60,3TL87MO8CNS4WETLWX9PGC8L1XHFL1,A1TZ9YVT2ILX01,3GFK2QRXXAKVRVAPK18KRUTC2ULW5G,X2FG7,X2FG7,3GFK2QRXXAKVRVAPK18KRUTC2ULW5G,3GFK2QRXXAKVRVAPK18KRUTC2ULW5G,276287,276287,,,,,,,,,,
,,,,2,2.135,0,16,16,107,1,"a room in a house with two sofas, a table, and a shelving unit that has one long, pale art object","a room in a house with two sofas, a table, and a shelving unit that has two long, pale art objects",wolfe2,025_R_vase,4,34,A1TZ9YVT2ILX01,2021-02-17_21h09.56.641,MetaAwareness,2020.1.2,Win32,60,3TL87MO8CNS4WETLWX9PGC8L1XHFL1,A1TZ9YVT2ILX01,3GFK2QRXXAKVRVAPK18KRUTC2ULW5G,X2FG7,X2FG7,3GFK2QRXXAKVRVAPK18KRUTC2ULW5G,3GFK2QRXXAKVRVAPK18KRUTC2ULW5G,276287,276287,,,,,,,,,,
,,,,2,0.499,0,17,17,149,1,nice hotel room with pillows on the bed and two vases on the table,nice hotel room with pillows on the bed and two vases and a bowle on the table,wolfe2,035_L_fruit,5,34,A1TZ9YVT2ILX01,2021-02-17_21h09.56.641,MetaAwareness,2020.1.2,Win32,60,3TL87MO8CNS4WETLWX9PGC8L1XHFL1,A1TZ9YVT2ILX01,3GFK2QRXXAKVRVAPK18KRUTC2ULW5G,X2FG7,X2FG7,3GFK2QRXXAKVRVAPK18KRUTC2ULW5G,3GFK2QRXXAKVRVAPK18KRUTC2ULW5G,276287,276287,,,,,,,,,,
,,,,2,6.548,0,18,18,70,1,a living room area with a fireplace with no wood inside,a living room area with a fireplace with wood inside,wolfe2,017_L_wood,3,34,A1TZ9YVT2ILX01,2021-02-17_21h09.56.641,MetaAwareness,2020.1.2,Win32,60,3TL87MO8CNS4WETLWX9PGC8L1XHFL1,A1TZ9YVT2ILX01,3GFK2QRXXAKVRVAPK18KRUTC2ULW5G,X2FG7,X2FG7,3GFK2QRXXAKVRVAPK18KRUTC2ULW5G,3GFK2QRXXAKVRVAPK18KRUTC2ULW5G,276287,276287,,,,,,,,,,
,,,,2,1.727,0,19,19,155,1,a very luxurious bathroom designed for comfort and relationation.,a very relaxing room with plenty of storage space in the cabinets,wolfe2,037_R_towel,1,34,A1TZ9YVT2ILX01,2021-02-17_21h09.56.641,MetaAwareness,2020.1.2,Win32,60,3TL87MO8CNS4WETLWX9PGC8L1XHFL1,A1TZ9YVT2ILX01,3GFK2QRXXAKVRVAPK18KRUTC2ULW5G,X2FG7,X2FG7,3GFK2QRXXAKVRVAPK18KRUTC2ULW5G,3GFK2QRXXAKVRVAPK18KRUTC2ULW5G,276287,276287,,,,,,,,,,
,,,,2,1.237,0,20,20,98,1,living room with rustic feel,living room with rustic feel and remote control on table between the chairs,wolfe2,023_L_remote,3,34,A1TZ9YVT2ILX01,2021-02-17_21h09.56.641,MetaAwareness,2020.1.2,Win32,60,3TL87MO8CNS4WETLWX9PGC8L1XHFL1,A1TZ9YVT2ILX01,3GFK2QRXXAKVRVAPK18KRUTC2ULW5G,X2FG7,X2FG7,3GFK2QRXXAKVRVAPK18KRUTC2ULW5G,3GFK2QRXXAKVRVAPK18KRUTC2ULW5G,276287,276287,,,,,,,,,,
,,,,3,1.165,0,21,21,330,1,a kitchen with 3 in ceiling lights.,a kitchen with 4 in ceiling lights.,wolfe2,075_R_light,1,34,A1TZ9YVT2ILX01,2021-02-17_21h09.56.641,MetaAwareness,2020.1.2,Win32,60,3TL87MO8CNS4WETLWX9PGC8L1XHFL1,A1TZ9YVT2ILX01,3GFK2QRXXAKVRVAPK18KRUTC2ULW5G,X2FG7,X2FG7,3GFK2QRXXAKVRVAPK18KRUTC2ULW5G,3GFK2QRXXAKVRVAPK18KRUTC2ULW5G,276287,276287,,,,,,,,,,
,,,,2,1.893,0,22,22,111,1,a white bathroom with wood accents that has one shelf above the wooden counter,a white bathroom with wood accents that has two shelves above the wooden counter,wolfe2,026_R_rack,1,34,A1TZ9YVT2ILX01,2021-02-17_21h09.56.641,MetaAwareness,2020.1.2,Win32,60,3TL87MO8CNS4WETLWX9PGC8L1XHFL1,A1TZ9YVT2ILX01,3GFK2QRXXAKVRVAPK18KRUTC2ULW5G,X2FG7,X2FG7,3GFK2QRXXAKVRVAPK18KRUTC2ULW5G,3GFK2QRXXAKVRVAPK18KRUTC2ULW5G,276287,276287,,,,,,,,,,
,,,,3,2.28,0,23,23,483,1,"a store changing room with three mirrors, changing cabins and a rack with clothing items extending beyond the end pole.","a store changing room with three mirrors, changing cabins and a rack with clothing items.",wolfe2,107_L_shirts,2,34,A1TZ9YVT2ILX01,2021-02-17_21h09.56.641,MetaAwareness,2020.1.2,Win32,60,3TL87MO8CNS4WETLWX9PGC8L1XHFL1,A1TZ9YVT2ILX01,3GFK2QRXXAKVRVAPK18KRUTC2ULW5G,X2FG7,X2FG7,3GFK2QRXXAKVRVAPK18KRUTC2ULW5G,3GFK2QRXXAKVRVAPK18KRUTC2ULW5G,276287,276287,,,,,,,,,,
,,,,3,2.65,0,24,24,224,1,a white mantle with 4 decorations sitting on it,a white mantle with 5 decorations sitting on it,wolfe2,051_L_owl,4,34,A1TZ9YVT2ILX01,2021-02-17_21h09.56.641,MetaAwareness,2020.1.2,Win32,60,3TL87MO8CNS4WETLWX9PGC8L1XHFL1,A1TZ9YVT2ILX01,3GFK2QRXXAKVRVAPK18KRUTC2ULW5G,X2FG7,X2FG7,3GFK2QRXXAKVRVAPK18KRUTC2ULW5G,3GFK2QRXXAKVRVAPK18KRUTC2ULW5G,276287,276287,,,,,,,,,,
,,,,3,1.331,0,25,25,168,1,a dark wood furniture dining room with 2 pictures hanging about the china cabinet.,a dark wood furniture dining room with three pictures hanging above the china cabinet.,wolfe2,040_L_painting,1,34,A1TZ9YVT2ILX01,2021-02-17_21h09.56.641,MetaAwareness,2020.1.2,Win32,60,3TL87MO8CNS4WETLWX9PGC8L1XHFL1,A1TZ9YVT2ILX01,3GFK2QRXXAKVRVAPK18KRUTC2ULW5G,X2FG7,X2FG7,3GFK2QRXXAKVRVAPK18KRUTC2ULW5G,3GFK2QRXXAKVRVAPK18KRUTC2ULW5G,276287,276287,,,,,,,,,,
,,,,3,1.014,0,26,26,500,1,an outdoor screened in living area with houseplants and an urn sitting beside one of the houseplants,an outdoor screened in living area with houseplants,wolfe2,111_L_pot,2,34,A1TZ9YVT2ILX01,2021-02-17_21h09.56.641,MetaAwareness,2020.1.2,Win32,60,3TL87MO8CNS4WETLWX9PGC8L1XHFL1,A1TZ9YVT2ILX01,3GFK2QRXXAKVRVAPK18KRUTC2ULW5G,X2FG7,X2FG7,3GFK2QRXXAKVRVAPK18KRUTC2ULW5G,3GFK2QRXXAKVRVAPK18KRUTC2ULW5G,276287,276287,,,,,,,,,,
,,,,3,0.776,0,27,27,170,1,a fully furnished dining table with nice paintings in the side wall,a fully furnishe dining room with three nice paintings in the wall just above the cupboard.,wolfe2,040_L_painting,4,34,A1TZ9YVT2ILX01,2021-02-17_21h09.56.641,MetaAwareness,2020.1.2,Win32,60,3TL87MO8CNS4WETLWX9PGC8L1XHFL1,A1TZ9YVT2ILX01,3GFK2QRXXAKVRVAPK18KRUTC2ULW5G,X2FG7,X2FG7,3GFK2QRXXAKVRVAPK18KRUTC2ULW5G,3GFK2QRXXAKVRVAPK18KRUTC2ULW5G,276287,276287,,,,,,,,,,
,,,,4,0.711,0,28,28,194,1,a bathroom with a bathtub that has one light,a bathroom with a bathtub that has two lights,wolfe2,044_L_light,6,34,A1TZ9YVT2ILX01,2021-02-17_21h09.56.641,MetaAwareness,2020.1.2,Win32,60,3TL87MO8CNS4WETLWX9PGC8L1XHFL1,A1TZ9YVT2ILX01,3GFK2QRXXAKVRVAPK18KRUTC2ULW5G,X2FG7,X2FG7,3GFK2QRXXAKVRVAPK18KRUTC2ULW5G,3GFK2QRXXAKVRVAPK18KRUTC2ULW5G,276287,276287,,,,,,,,,,
,,,,4,0.76,0,29,29,466,1,a restaurant that has food on one of the tables,a restaurant that does not have food on any of the tables,wolfe2,104_L_bottle,5,34,A1TZ9YVT2ILX01,2021-02-17_21h09.56.641,MetaAwareness,2020.1.2,Win32,60,3TL87MO8CNS4WETLWX9PGC8L1XHFL1,A1TZ9YVT2ILX01,3GFK2QRXXAKVRVAPK18KRUTC2ULW5G,X2FG7,X2FG7,3GFK2QRXXAKVRVAPK18KRUTC2ULW5G,3GFK2QRXXAKVRVAPK18KRUTC2ULW5G,276287,276287,,,,,,,,,,
,,,,,,,,,,,,,,,,34,A1TZ9YVT2ILX01,2021-02-17_21h09.56.641,MetaAwareness,2020.1.2,Win32,60,3TL87MO8CNS4WETLWX9PGC8L1XHFL1,A1TZ9YVT2ILX01,3GFK2QRXXAKVRVAPK18KRUTC2ULW5G,X2FG7,X2FG7,3GFK2QRXXAKVRVAPK18KRUTC2ULW5G,3GFK2QRXXAKVRVAPK18KRUTC2ULW5G,276287,276287,4,0.884,someone laying underneath a blue beach umbrella on a crowded beach,someone laying underneath a blue beach umbrella on a crowded beach,same,4,1.842,members of a marching band crossing a track that all have feather plumes at the front of their hats,a cluttered and rustic looking cafe with 10 hanging lights,different
