consent_response.keys,consent_response.rt,key_resp_2.keys,key_resp_2.rt,user_resp.keys,user_resp.rt,trials.thisRepN,trials.thisTrialN,trials.thisN,trials.thisIndex,trials.ran,image_1_text,image_2_text,database,image,number,age,worker_ID,date,expName,psychopyVersion,OS,frameRate,hitId,workerId,assignmentId,a,tp_a,b,tp_b,c,tp_c,catch_same_resp.keys,catch_same_resp.rt,image_1_text_catch_same,image_2_text_catch_same,image_catch_same,catch_different_resp.keys,catch_different_resp.rt,image_1_text_catch_different,image_2_text_catch_different,image_catch_different
space,8.002,space,12.126,6,9.007,0,0,0,338,1,a bathroom without a towel hook by the bathroom mirror,a bathroom with a towel hook by the bathroom mirror,wolfe2,076_R_hook,4,35,A1VRQ82Q342D4Y,2021-02-17_20h21.28.824,MetaAwareness,2020.1.2,Win32,60,3H4IKZHALCL6869N6Y8H19LJ8J1NNG,A1VRQ82Q342D4Y,3J2UYBXQQMFY299IWDP4C5Y8XKC60Z,QY2J7,QY2J7,3J2UYBXQQMFY299IWDP4C5Y8XKC60Z,3J2UYBXQQMFY299IWDP4C5Y8XKC60Z,276287,276287,,,,,,,,,,
,,,,5,5.277,0,1,1,511,1,old living room with a basket by small chair,old living room decorated in flower patterns,wolfe2,112_L_basket,4,35,A1VRQ82Q342D4Y,2021-02-17_20h21.28.824,MetaAwareness,2020.1.2,Win32,60,3H4IKZHALCL6869N6Y8H19LJ8J1NNG,A1VRQ82Q342D4Y,3J2UYBXQQMFY299IWDP4C5Y8XKC60Z,QY2J7,QY2J7,3J2UYBXQQMFY299IWDP4C5Y8XKC60Z,3J2UYBXQQMFY299IWDP4C5Y8XKC60Z,276287,276287,,,,,,,,,,
,,,,5,10.093,0,2,2,211,1,a very nice bedroom with a glass vase off to one end.,a very nice bedroom with a glass vase off to one end that has another glass vase on top of it.,wolfe2,048_L_art,1,35,A1VRQ82Q342D4Y,2021-02-17_20h21.28.824,MetaAwareness,2020.1.2,Win32,60,3H4IKZHALCL6869N6Y8H19LJ8J1NNG,A1VRQ82Q342D4Y,3J2UYBXQQMFY299IWDP4C5Y8XKC60Z,QY2J7,QY2J7,3J2UYBXQQMFY299IWDP4C5Y8XKC60Z,3J2UYBXQQMFY299IWDP4C5Y8XKC60Z,276287,276287,,,,,,,,,,
,,,,5,14.58,0,3,3,555,1,"a lounge area with lumbar supported chairs, a glass table, and miniature oval shaped lamp","a lounge area with lumbar supported chairs, a glass table, and clear overview of nature from outside",wolfe2,124_L_vase,2,35,A1VRQ82Q342D4Y,2021-02-17_20h21.28.824,MetaAwareness,2020.1.2,Win32,60,3H4IKZHALCL6869N6Y8H19LJ8J1NNG,A1VRQ82Q342D4Y,3J2UYBXQQMFY299IWDP4C5Y8XKC60Z,QY2J7,QY2J7,3J2UYBXQQMFY299IWDP4C5Y8XKC60Z,3J2UYBXQQMFY299IWDP4C5Y8XKC60Z,276287,276287,,,,,,,,,,
,,,,2,6.584,0,4,4,464,1,a darker colored bathroom with a very large sink and mirror,"a darker colored bathroom with a very large sink and mirror, but now there isn't a wall hanger at the top right of the mirror.",wolfe2,103_R_hook,5,35,A1VRQ82Q342D4Y,2021-02-17_20h21.28.824,MetaAwareness,2020.1.2,Win32,60,3H4IKZHALCL6869N6Y8H19LJ8J1NNG,A1VRQ82Q342D4Y,3J2UYBXQQMFY299IWDP4C5Y8XKC60Z,QY2J7,QY2J7,3J2UYBXQQMFY299IWDP4C5Y8XKC60Z,3J2UYBXQQMFY299IWDP4C5Y8XKC60Z,276287,276287,,,,,,,,,,
,,,,5,5.025,0,5,5,540,1,a living room with large couches by a fireplace with 3 objects resting above it,a living room with large couches by a fireplace with 2 objects resting above it,wolfe2,120_R_art,3,35,A1VRQ82Q342D4Y,2021-02-17_20h21.28.824,MetaAwareness,2020.1.2,Win32,60,3H4IKZHALCL6869N6Y8H19LJ8J1NNG,A1VRQ82Q342D4Y,3J2UYBXQQMFY299IWDP4C5Y8XKC60Z,QY2J7,QY2J7,3J2UYBXQQMFY299IWDP4C5Y8XKC60Z,3J2UYBXQQMFY299IWDP4C5Y8XKC60Z,276287,276287,,,,,,,,,,
,,,,6,6.228,0,6,6,571,1,"a large modern living room with a large dog, a view of the pool, art on the walls, two sofas, and a pair of wall sconces","a large modern living room with a large dog, a view of the pool, art on the walls, two sofas, and one wall sconce",wolfe2,127_R_light,4,35,A1VRQ82Q342D4Y,2021-02-17_20h21.28.824,MetaAwareness,2020.1.2,Win32,60,3H4IKZHALCL6869N6Y8H19LJ8J1NNG,A1VRQ82Q342D4Y,3J2UYBXQQMFY299IWDP4C5Y8XKC60Z,QY2J7,QY2J7,3J2UYBXQQMFY299IWDP4C5Y8XKC60Z,3J2UYBXQQMFY299IWDP4C5Y8XKC60Z,276287,276287,,,,,,,,,,
,,,,2,8.394,0,7,7,363,1,a fully furnished bedroom with an enclosed dresser,a full furnished bedroom with an enclosed dressed with a dishsitting upon itnum_enter,wolfe2,082_R_bowl,6,35,A1VRQ82Q342D4Y,2021-02-17_20h21.28.824,MetaAwareness,2020.1.2,Win32,60,3H4IKZHALCL6869N6Y8H19LJ8J1NNG,A1VRQ82Q342D4Y,3J2UYBXQQMFY299IWDP4C5Y8XKC60Z,QY2J7,QY2J7,3J2UYBXQQMFY299IWDP4C5Y8XKC60Z,3J2UYBXQQMFY299IWDP4C5Y8XKC60Z,276287,276287,,,,,,,,,,
,,,,4,7.797,0,8,8,145,1,it is a picture of a living room with shelves along the wall.,"it is a picture of a living room with shelves along the wall, including a large vase on the top shelf.",wolfe2,033_R_vase,4,35,A1VRQ82Q342D4Y,2021-02-17_20h21.28.824,MetaAwareness,2020.1.2,Win32,60,3H4IKZHALCL6869N6Y8H19LJ8J1NNG,A1VRQ82Q342D4Y,3J2UYBXQQMFY299IWDP4C5Y8XKC60Z,QY2J7,QY2J7,3J2UYBXQQMFY299IWDP4C5Y8XKC60Z,3J2UYBXQQMFY299IWDP4C5Y8XKC60Z,276287,276287,,,,,,,,,,
,,,,5,14.43,0,9,9,100,1,it's a pretty modern hangout area that appears to be in the patio or backyard.,"modern hangout area in the patio or backyard, but there is now a remote control on the table for the tv.",wolfe2,023_R_remote,3,35,A1VRQ82Q342D4Y,2021-02-17_20h21.28.824,MetaAwareness,2020.1.2,Win32,60,3H4IKZHALCL6869N6Y8H19LJ8J1NNG,A1VRQ82Q342D4Y,3J2UYBXQQMFY299IWDP4C5Y8XKC60Z,QY2J7,QY2J7,3J2UYBXQQMFY299IWDP4C5Y8XKC60Z,3J2UYBXQQMFY299IWDP4C5Y8XKC60Z,276287,276287,,,,,,,,,,
,,,,4,7.663,0,10,10,567,1,a modern looking livingroom with decorative items including three candles,a modern looking livingroom with decorative items,wolfe2,126_R_candles,5,35,A1VRQ82Q342D4Y,2021-02-17_20h21.28.824,MetaAwareness,2020.1.2,Win32,60,3H4IKZHALCL6869N6Y8H19LJ8J1NNG,A1VRQ82Q342D4Y,3J2UYBXQQMFY299IWDP4C5Y8XKC60Z,QY2J7,QY2J7,3J2UYBXQQMFY299IWDP4C5Y8XKC60Z,3J2UYBXQQMFY299IWDP4C5Y8XKC60Z,276287,276287,,,,,,,,,,
,,,,3,9.776,0,11,11,311,1,a bedroom with a dresser in it that has five drawers with handles on i t,a bedroom with a dresser in it that has six drawers with handles on them,wolfe2,072_L_handle,2,35,A1VRQ82Q342D4Y,2021-02-17_20h21.28.824,MetaAwareness,2020.1.2,Win32,60,3H4IKZHALCL6869N6Y8H19LJ8J1NNG,A1VRQ82Q342D4Y,3J2UYBXQQMFY299IWDP4C5Y8XKC60Z,QY2J7,QY2J7,3J2UYBXQQMFY299IWDP4C5Y8XKC60Z,3J2UYBXQQMFY299IWDP4C5Y8XKC60Z,276287,276287,,,,,,,,,,
,,,,5,7.317,0,12,12,341,1,"kitchen with three lights, and 4 stools at the counter","kitchen with three lights, and 4 stools at the counter and one missing foot rest",wolfe2,077_L_footrest,4,35,A1VRQ82Q342D4Y,2021-02-17_20h21.28.824,MetaAwareness,2020.1.2,Win32,60,3H4IKZHALCL6869N6Y8H19LJ8J1NNG,A1VRQ82Q342D4Y,3J2UYBXQQMFY299IWDP4C5Y8XKC60Z,QY2J7,QY2J7,3J2UYBXQQMFY299IWDP4C5Y8XKC60Z,3J2UYBXQQMFY299IWDP4C5Y8XKC60Z,276287,276287,,,,,,,,,,
,,,,3,7.411,0,13,13,168,1,a dark wood furniture dining room with 2 pictures hanging about the china cabinet.,a dark wood furniture dining room with three pictures hanging above the china cabinet.,wolfe2,040_L_painting,1,35,A1VRQ82Q342D4Y,2021-02-17_20h21.28.824,MetaAwareness,2020.1.2,Win32,60,3H4IKZHALCL6869N6Y8H19LJ8J1NNG,A1VRQ82Q342D4Y,3J2UYBXQQMFY299IWDP4C5Y8XKC60Z,QY2J7,QY2J7,3J2UYBXQQMFY299IWDP4C5Y8XKC60Z,3J2UYBXQQMFY299IWDP4C5Y8XKC60Z,276287,276287,,,,,,,,,,
,,,,2,5.909,0,14,14,14,1,a living room with a red chair,a living room with a red chair and art on a wall,wolfe2,005_L_mirror,4,35,A1VRQ82Q342D4Y,2021-02-17_20h21.28.824,MetaAwareness,2020.1.2,Win32,60,3H4IKZHALCL6869N6Y8H19LJ8J1NNG,A1VRQ82Q342D4Y,3J2UYBXQQMFY299IWDP4C5Y8XKC60Z,QY2J7,QY2J7,3J2UYBXQQMFY299IWDP4C5Y8XKC60Z,3J2UYBXQQMFY299IWDP4C5Y8XKC60Z,276287,276287,,,,,,,,,,
,,,,1,4.44,0,15,15,70,1,a living room area with a fireplace with no wood inside,a living room area with a fireplace with wood inside,wolfe2,017_L_wood,3,35,A1VRQ82Q342D4Y,2021-02-17_20h21.28.824,MetaAwareness,2020.1.2,Win32,60,3H4IKZHALCL6869N6Y8H19LJ8J1NNG,A1VRQ82Q342D4Y,3J2UYBXQQMFY299IWDP4C5Y8XKC60Z,QY2J7,QY2J7,3J2UYBXQQMFY299IWDP4C5Y8XKC60Z,3J2UYBXQQMFY299IWDP4C5Y8XKC60Z,276287,276287,,,,,,,,,,
,,,,6,8.105,0,16,16,115,1,the bathroom is looks good and there is no soap box  in that room,the bathroom is looks good and there is a soap box in that room,wolfe2,027_L_soapdish,2,35,A1VRQ82Q342D4Y,2021-02-17_20h21.28.824,MetaAwareness,2020.1.2,Win32,60,3H4IKZHALCL6869N6Y8H19LJ8J1NNG,A1VRQ82Q342D4Y,3J2UYBXQQMFY299IWDP4C5Y8XKC60Z,QY2J7,QY2J7,3J2UYBXQQMFY299IWDP4C5Y8XKC60Z,3J2UYBXQQMFY299IWDP4C5Y8XKC60Z,276287,276287,,,,,,,,,,
,,,,1,9.761,0,17,17,378,1,a dimly lit bathroom with a lightswitch by the mirror.,a dimly lit bathroom without a light switch by the mirror,wolfe2,085_R_switchboard,1,35,A1VRQ82Q342D4Y,2021-02-17_20h21.28.824,MetaAwareness,2020.1.2,Win32,60,3H4IKZHALCL6869N6Y8H19LJ8J1NNG,A1VRQ82Q342D4Y,3J2UYBXQQMFY299IWDP4C5Y8XKC60Z,QY2J7,QY2J7,3J2UYBXQQMFY299IWDP4C5Y8XKC60Z,3J2UYBXQQMFY299IWDP4C5Y8XKC60Z,276287,276287,,,,,,,,,,
,,,,1,7.332,0,18,18,448,1,a modern dining room with a candal and holder on the wall,a modern dining room without a candal and holder on the wall,wolfe2,099_R_sconce,4,35,A1VRQ82Q342D4Y,2021-02-17_20h21.28.824,MetaAwareness,2020.1.2,Win32,60,3H4IKZHALCL6869N6Y8H19LJ8J1NNG,A1VRQ82Q342D4Y,3J2UYBXQQMFY299IWDP4C5Y8XKC60Z,QY2J7,QY2J7,3J2UYBXQQMFY299IWDP4C5Y8XKC60Z,3J2UYBXQQMFY299IWDP4C5Y8XKC60Z,276287,276287,,,,,,,,,,
,,,,4,3.665,0,19,19,269,1,a dining room with dark colored wood furniture and a brown shelf in the back,a dining room with dark colored wood furniture and a brown shelf in the back with wine glasses,wolfe2,061_R_glass,4,35,A1VRQ82Q342D4Y,2021-02-17_20h21.28.824,MetaAwareness,2020.1.2,Win32,60,3H4IKZHALCL6869N6Y8H19LJ8J1NNG,A1VRQ82Q342D4Y,3J2UYBXQQMFY299IWDP4C5Y8XKC60Z,QY2J7,QY2J7,3J2UYBXQQMFY299IWDP4C5Y8XKC60Z,3J2UYBXQQMFY299IWDP4C5Y8XKC60Z,276287,276287,,,,,,,,,,
,,,,4,9.192,0,20,20,507,1,greenroom with plenty of light and a living area with a vace by the sliding door,greenroom area with a living space and a potted plant by the door.,wolfe2,111_R_pot,5,35,A1VRQ82Q342D4Y,2021-02-17_20h21.28.824,MetaAwareness,2020.1.2,Win32,60,3H4IKZHALCL6869N6Y8H19LJ8J1NNG,A1VRQ82Q342D4Y,3J2UYBXQQMFY299IWDP4C5Y8XKC60Z,QY2J7,QY2J7,3J2UYBXQQMFY299IWDP4C5Y8XKC60Z,3J2UYBXQQMFY299IWDP4C5Y8XKC60Z,276287,276287,,,,,,,,,,
,,,,4,12.639,0,21,21,351,1,this kitchen is lovely and quaint. nice tile floors accentuate the antique but modern look of the layout.,the cabinets in this kitchen are quite lovely and appear very antique yet modern as well. there are four shelves on each unit to the left and right of the range. at the top of both shelving units is a bowl on either side.,wolfe2,079_L_bowl,2,35,A1VRQ82Q342D4Y,2021-02-17_20h21.28.824,MetaAwareness,2020.1.2,Win32,60,3H4IKZHALCL6869N6Y8H19LJ8J1NNG,A1VRQ82Q342D4Y,3J2UYBXQQMFY299IWDP4C5Y8XKC60Z,QY2J7,QY2J7,3J2UYBXQQMFY299IWDP4C5Y8XKC60Z,3J2UYBXQQMFY299IWDP4C5Y8XKC60Z,276287,276287,,,,,,,,,,
,,,,1,4.729,0,22,22,501,1,a florida room with a small vase on the floor,a florida room with some plantsnum_enter,wolfe2,111_L_pot,3,35,A1VRQ82Q342D4Y,2021-02-17_20h21.28.824,MetaAwareness,2020.1.2,Win32,60,3H4IKZHALCL6869N6Y8H19LJ8J1NNG,A1VRQ82Q342D4Y,3J2UYBXQQMFY299IWDP4C5Y8XKC60Z,QY2J7,QY2J7,3J2UYBXQQMFY299IWDP4C5Y8XKC60Z,3J2UYBXQQMFY299IWDP4C5Y8XKC60Z,276287,276287,,,,,,,,,,
,,,,4,8.892,0,23,23,53,1,a room with a couch and a large hanging light,a room with a couch and two large hanging lights,wolfe2,013_R_lamp,3,35,A1VRQ82Q342D4Y,2021-02-17_20h21.28.824,MetaAwareness,2020.1.2,Win32,60,3H4IKZHALCL6869N6Y8H19LJ8J1NNG,A1VRQ82Q342D4Y,3J2UYBXQQMFY299IWDP4C5Y8XKC60Z,QY2J7,QY2J7,3J2UYBXQQMFY299IWDP4C5Y8XKC60Z,3J2UYBXQQMFY299IWDP4C5Y8XKC60Z,276287,276287,,,,,,,,,,
,,,,3,8.735,0,24,24,518,1,an antique styled room with french doors opening to a stone patio with four items on the table,an antique styled room with french doors opening to a stone path with three items on the table,wolfe2,114_L_bird,4,35,A1VRQ82Q342D4Y,2021-02-17_20h21.28.824,MetaAwareness,2020.1.2,Win32,60,3H4IKZHALCL6869N6Y8H19LJ8J1NNG,A1VRQ82Q342D4Y,3J2UYBXQQMFY299IWDP4C5Y8XKC60Z,QY2J7,QY2J7,3J2UYBXQQMFY299IWDP4C5Y8XKC60Z,3J2UYBXQQMFY299IWDP4C5Y8XKC60Z,276287,276287,,,,,,,,,,
,,,,1,9.859,0,25,25,479,1,inside a building with something hanging up on the wall to get paper towels,a living room with nothing on the wall hung up,wolfe2,106_R_toweldispenser,1,35,A1VRQ82Q342D4Y,2021-02-17_20h21.28.824,MetaAwareness,2020.1.2,Win32,60,3H4IKZHALCL6869N6Y8H19LJ8J1NNG,A1VRQ82Q342D4Y,3J2UYBXQQMFY299IWDP4C5Y8XKC60Z,QY2J7,QY2J7,3J2UYBXQQMFY299IWDP4C5Y8XKC60Z,3J2UYBXQQMFY299IWDP4C5Y8XKC60Z,276287,276287,,,,,,,,,,
,,,,4,11.367,0,26,26,234,1,a large bathroom lined in stone with a cabinet containing one drawer on the bottom.,a large bathroom lined in stone with a cabinet containing two drawers on the bottom.,wolfe2,053_L_handle,1,35,A1VRQ82Q342D4Y,2021-02-17_20h21.28.824,MetaAwareness,2020.1.2,Win32,60,3H4IKZHALCL6869N6Y8H19LJ8J1NNG,A1VRQ82Q342D4Y,3J2UYBXQQMFY299IWDP4C5Y8XKC60Z,QY2J7,QY2J7,3J2UYBXQQMFY299IWDP4C5Y8XKC60Z,3J2UYBXQQMFY299IWDP4C5Y8XKC60Z,276287,276287,,,,,,,,,,
,,,,3,26.89,0,27,27,495,1,a mud room with a pool outside with a small plant in the corner,a mud room with a pool outside,wolfe2,110_L_plant,2,35,A1VRQ82Q342D4Y,2021-02-17_20h21.28.824,MetaAwareness,2020.1.2,Win32,60,3H4IKZHALCL6869N6Y8H19LJ8J1NNG,A1VRQ82Q342D4Y,3J2UYBXQQMFY299IWDP4C5Y8XKC60Z,QY2J7,QY2J7,3J2UYBXQQMFY299IWDP4C5Y8XKC60Z,3J2UYBXQQMFY299IWDP4C5Y8XKC60Z,276287,276287,,,,,,,,,,
,,,,2,3.749,0,28,28,475,1,a bathroom with a tissue box on the wall,a bathroom without any tissue box on the wall,wolfe2,106_L_toweldispenser,2,35,A1VRQ82Q342D4Y,2021-02-17_20h21.28.824,MetaAwareness,2020.1.2,Win32,60,3H4IKZHALCL6869N6Y8H19LJ8J1NNG,A1VRQ82Q342D4Y,3J2UYBXQQMFY299IWDP4C5Y8XKC60Z,QY2J7,QY2J7,3J2UYBXQQMFY299IWDP4C5Y8XKC60Z,3J2UYBXQQMFY299IWDP4C5Y8XKC60Z,276287,276287,,,,,,,,,,
,,,,1,5.31,0,29,29,387,1,there is a large cake sitting on the kitchen counter.,there is nothing sitting on the kitchen counter.,wolfe2,086_R_book,3,35,A1VRQ82Q342D4Y,2021-02-17_20h21.28.824,MetaAwareness,2020.1.2,Win32,60,3H4IKZHALCL6869N6Y8H19LJ8J1NNG,A1VRQ82Q342D4Y,3J2UYBXQQMFY299IWDP4C5Y8XKC60Z,QY2J7,QY2J7,3J2UYBXQQMFY299IWDP4C5Y8XKC60Z,3J2UYBXQQMFY299IWDP4C5Y8XKC60Z,276287,276287,,,,,,,,,,
,,,,,,,,,,,,,,,,35,A1VRQ82Q342D4Y,2021-02-17_20h21.28.824,MetaAwareness,2020.1.2,Win32,60,3H4IKZHALCL6869N6Y8H19LJ8J1NNG,A1VRQ82Q342D4Y,3J2UYBXQQMFY299IWDP4C5Y8XKC60Z,QY2J7,QY2J7,3J2UYBXQQMFY299IWDP4C5Y8XKC60Z,3J2UYBXQQMFY299IWDP4C5Y8XKC60Z,276287,276287,6,10.071,someone laying underneath a blue beach umbrella on a crowded beach,someone laying underneath a blue beach umbrella on a crowded beach,same,5,7.611,members of a marching band crossing a track that all have feather plumes at the front of their hats,a cluttered and rustic looking cafe with 10 hanging lights,different
