consent_response.keys,consent_response.rt,key_resp_2.keys,key_resp_2.rt,user_resp.keys,user_resp.rt,trials.thisRepN,trials.thisTrialN,trials.thisN,trials.thisIndex,trials.ran,image_1_text,image_2_text,database,image,number,age,worker_ID,date,expName,psychopyVersion,OS,frameRate,hitId,workerId,assignmentId,a,tp_a,b,tp_b,c,tp_c,catch_same_resp.keys,catch_same_resp.rt,image_1_text_catch_same,image_2_text_catch_same,image_catch_same,catch_different_resp.keys,catch_different_resp.rt,image_1_text_catch_different,image_2_text_catch_different,image_catch_different
space,10.838325,space,6.86424,5,17.3064,0,0,0,275,1,a modern living room,a modern living room with something missing from the desk.,wolfe2,063_R_laptop,1,41,A1WR3WTEHJEY2D,2021-02-17_22h58.30.545,MetaAwareness,2020.1.2,Win32,60,3PKVGQTFIINLZ35T67Y9R9O0D0XYR8,A1WR3WTEHJEY2D,3WI0P0II62VLNC8W0DGX279NNXFRDT,IPIW7,IPIW7,3WI0P0II62VLNC8W0DGX279NNXFRDT,3WI0P0II62VLNC8W0DGX279NNXFRDT,276287,276287,,,,,,,,,,
,,,,3,10.21949,0,1,1,101,1,an open room with two stacks of towels under the sink,an open room with three stacks of towels under the sink,wolfe2,024_L_towels,4,41,A1WR3WTEHJEY2D,2021-02-17_22h58.30.545,MetaAwareness,2020.1.2,Win32,60,3PKVGQTFIINLZ35T67Y9R9O0D0XYR8,A1WR3WTEHJEY2D,3WI0P0II62VLNC8W0DGX279NNXFRDT,IPIW7,IPIW7,3WI0P0II62VLNC8W0DGX279NNXFRDT,3WI0P0II62VLNC8W0DGX279NNXFRDT,276287,276287,,,,,,,,,,
,,,,2,24.10114,0,2,2,351,1,this kitchen is lovely and quaint. nice tile floors accentuate the antique but modern look of the layout.,the cabinets in this kitchen are quite lovely and appear very antique yet modern as well. there are four shelves on each unit to the left and right of the range. at the top of both shelving units is a bowl on either side.,wolfe2,079_L_bowl,2,41,A1WR3WTEHJEY2D,2021-02-17_22h58.30.545,MetaAwareness,2020.1.2,Win32,60,3PKVGQTFIINLZ35T67Y9R9O0D0XYR8,A1WR3WTEHJEY2D,3WI0P0II62VLNC8W0DGX279NNXFRDT,IPIW7,IPIW7,3WI0P0II62VLNC8W0DGX279NNXFRDT,3WI0P0II62VLNC8W0DGX279NNXFRDT,276287,276287,,,,,,,,,,
,,,,3,12.75527,0,3,3,478,1,"a mundane, plain, and empty bathroom with a hand dryer attached to the wall","a mundane, plain, and empty bathroom without a hand dryer attached to the wall to dry hands",wolfe2,106_L_toweldispenser,8,41,A1WR3WTEHJEY2D,2021-02-17_22h58.30.545,MetaAwareness,2020.1.2,Win32,60,3PKVGQTFIINLZ35T67Y9R9O0D0XYR8,A1WR3WTEHJEY2D,3WI0P0II62VLNC8W0DGX279NNXFRDT,IPIW7,IPIW7,3WI0P0II62VLNC8W0DGX279NNXFRDT,3WI0P0II62VLNC8W0DGX279NNXFRDT,276287,276287,,,,,,,,,,
,,,,1,3.66862,0,4,4,21,1,empty space,pot has,wolfe2,006_R_vase,1,41,A1WR3WTEHJEY2D,2021-02-17_22h58.30.545,MetaAwareness,2020.1.2,Win32,60,3PKVGQTFIINLZ35T67Y9R9O0D0XYR8,A1WR3WTEHJEY2D,3WI0P0II62VLNC8W0DGX279NNXFRDT,IPIW7,IPIW7,3WI0P0II62VLNC8W0DGX279NNXFRDT,3WI0P0II62VLNC8W0DGX279NNXFRDT,276287,276287,,,,,,,,,,
,,,,1,13.4943,0,5,5,22,1,the well-outfitted bedroom is missing a vase.,a vase balances the bedroom in this image,wolfe2,006_R_vase,4,41,A1WR3WTEHJEY2D,2021-02-17_22h58.30.545,MetaAwareness,2020.1.2,Win32,60,3PKVGQTFIINLZ35T67Y9R9O0D0XYR8,A1WR3WTEHJEY2D,3WI0P0II62VLNC8W0DGX279NNXFRDT,IPIW7,IPIW7,3WI0P0II62VLNC8W0DGX279NNXFRDT,3WI0P0II62VLNC8W0DGX279NNXFRDT,276287,276287,,,,,,,,,,
,,,,2,8.077045,0,6,6,254,1,nothing upon the sofa,a purse is on the sofa,wolfe2,058_R_clutch,1,41,A1WR3WTEHJEY2D,2021-02-17_22h58.30.545,MetaAwareness,2020.1.2,Win32,60,3PKVGQTFIINLZ35T67Y9R9O0D0XYR8,A1WR3WTEHJEY2D,3WI0P0II62VLNC8W0DGX279NNXFRDT,IPIW7,IPIW7,3WI0P0II62VLNC8W0DGX279NNXFRDT,3WI0P0II62VLNC8W0DGX279NNXFRDT,276287,276287,,,,,,,,,,
,,,,5,8.420985,0,7,7,327,1,this is a sitting room. the coffee table has plants on it.,this is a sitting room. the coffee table hs plants and a magazine on it.,wolfe2,074_R_book,8,41,A1WR3WTEHJEY2D,2021-02-17_22h58.30.545,MetaAwareness,2020.1.2,Win32,60,3PKVGQTFIINLZ35T67Y9R9O0D0XYR8,A1WR3WTEHJEY2D,3WI0P0II62VLNC8W0DGX279NNXFRDT,IPIW7,IPIW7,3WI0P0II62VLNC8W0DGX279NNXFRDT,3WI0P0II62VLNC8W0DGX279NNXFRDT,276287,276287,,,,,,,,,,
,,,,5,15.502445,0,8,8,160,1,a bright and neat looking dining room with 3 plates propped up on the wall shelves.,a bright and neat looking dining room with a wall decoration next to 3 plates propped up on the wall shelves.,wolfe2,038_R_art,2,41,A1WR3WTEHJEY2D,2021-02-17_22h58.30.545,MetaAwareness,2020.1.2,Win32,60,3PKVGQTFIINLZ35T67Y9R9O0D0XYR8,A1WR3WTEHJEY2D,3WI0P0II62VLNC8W0DGX279NNXFRDT,IPIW7,IPIW7,3WI0P0II62VLNC8W0DGX279NNXFRDT,3WI0P0II62VLNC8W0DGX279NNXFRDT,276287,276287,,,,,,,,,,
,,,,2,14.75043,0,9,9,435,1,a small light on the wall of the bedroom,a bedroom with no light on the wall,wolfe2,097_R_light,2,41,A1WR3WTEHJEY2D,2021-02-17_22h58.30.545,MetaAwareness,2020.1.2,Win32,60,3PKVGQTFIINLZ35T67Y9R9O0D0XYR8,A1WR3WTEHJEY2D,3WI0P0II62VLNC8W0DGX279NNXFRDT,IPIW7,IPIW7,3WI0P0II62VLNC8W0DGX279NNXFRDT,3WI0P0II62VLNC8W0DGX279NNXFRDT,276287,276287,,,,,,,,,,
,,,,5,14.19484,0,10,10,546,1,"an airy bedroom that has a nightstand next to the bed with a lamp and something black on the top shelf, and books on the bottom shelf","an airy beedroom that has a nightstand next to the bed with only a lamp on the top shelf, and books on the bottom shelf",wolfe2,121_R_car,2,41,A1WR3WTEHJEY2D,2021-02-17_22h58.30.545,MetaAwareness,2020.1.2,Win32,60,3PKVGQTFIINLZ35T67Y9R9O0D0XYR8,A1WR3WTEHJEY2D,3WI0P0II62VLNC8W0DGX279NNXFRDT,IPIW7,IPIW7,3WI0P0II62VLNC8W0DGX279NNXFRDT,3WI0P0II62VLNC8W0DGX279NNXFRDT,276287,276287,,,,,,,,,,
,,,,5,14.861765,0,11,11,197,1,a blue and white bathroom with a glass shower and a large jacuzzi tub that does not have any lights on the front right side,a blue and white bathroom with a glass shower and a large jacuzzitub that has a light on the front right side,wolfe2,044_R_light,4,41,A1WR3WTEHJEY2D,2021-02-17_22h58.30.545,MetaAwareness,2020.1.2,Win32,60,3PKVGQTFIINLZ35T67Y9R9O0D0XYR8,A1WR3WTEHJEY2D,3WI0P0II62VLNC8W0DGX279NNXFRDT,IPIW7,IPIW7,3WI0P0II62VLNC8W0DGX279NNXFRDT,3WI0P0II62VLNC8W0DGX279NNXFRDT,276287,276287,,,,,,,,,,
,,,,5,5.493735,0,12,12,421,1,a drab hotel room with two electrical outlets.,a drab hotel room with only one electrical outlet.,wolfe2,093_L_switch,9,41,A1WR3WTEHJEY2D,2021-02-17_22h58.30.545,MetaAwareness,2020.1.2,Win32,60,3PKVGQTFIINLZ35T67Y9R9O0D0XYR8,A1WR3WTEHJEY2D,3WI0P0II62VLNC8W0DGX279NNXFRDT,IPIW7,IPIW7,3WI0P0II62VLNC8W0DGX279NNXFRDT,3WI0P0II62VLNC8W0DGX279NNXFRDT,276287,276287,,,,,,,,,,
,,,,5,9.051735,0,13,13,258,1,a very modern and fun looking child's bedroom that has an armoir with nothing on top of it,a very modern and fun looking child's bedroom that has an armoir with a model car on top of it,wolfe2,059_R_car,1,41,A1WR3WTEHJEY2D,2021-02-17_22h58.30.545,MetaAwareness,2020.1.2,Win32,60,3PKVGQTFIINLZ35T67Y9R9O0D0XYR8,A1WR3WTEHJEY2D,3WI0P0II62VLNC8W0DGX279NNXFRDT,IPIW7,IPIW7,3WI0P0II62VLNC8W0DGX279NNXFRDT,3WI0P0II62VLNC8W0DGX279NNXFRDT,276287,276287,,,,,,,,,,
,,,,3,12.62658,0,14,14,406,1,a four chair salon with a photo of a redhead on the wall,a four chair salon that does not have a photo of a redhead on the wall,wolfe2,089_R_poster,5,41,A1WR3WTEHJEY2D,2021-02-17_22h58.30.545,MetaAwareness,2020.1.2,Win32,60,3PKVGQTFIINLZ35T67Y9R9O0D0XYR8,A1WR3WTEHJEY2D,3WI0P0II62VLNC8W0DGX279NNXFRDT,IPIW7,IPIW7,3WI0P0II62VLNC8W0DGX279NNXFRDT,3WI0P0II62VLNC8W0DGX279NNXFRDT,276287,276287,,,,,,,,,,
,,,,3,15.998955,0,15,15,471,1,a bedroom woth glass doors,a bedroom with glass doors and a book is missing on the bed,wolfe2,105_L_hat,4,41,A1WR3WTEHJEY2D,2021-02-17_22h58.30.545,MetaAwareness,2020.1.2,Win32,60,3PKVGQTFIINLZ35T67Y9R9O0D0XYR8,A1WR3WTEHJEY2D,3WI0P0II62VLNC8W0DGX279NNXFRDT,IPIW7,IPIW7,3WI0P0II62VLNC8W0DGX279NNXFRDT,3WI0P0II62VLNC8W0DGX279NNXFRDT,276287,276287,,,,,,,,,,
,,,,1,3.68977,0,16,16,43,1,a fancy hotel room with dim lights,the relax area of professionals,wolfe2,010_R_candle,6,41,A1WR3WTEHJEY2D,2021-02-17_22h58.30.545,MetaAwareness,2020.1.2,Win32,60,3PKVGQTFIINLZ35T67Y9R9O0D0XYR8,A1WR3WTEHJEY2D,3WI0P0II62VLNC8W0DGX279NNXFRDT,IPIW7,IPIW7,3WI0P0II62VLNC8W0DGX279NNXFRDT,3WI0P0II62VLNC8W0DGX279NNXFRDT,276287,276287,,,,,,,,,,
,,,,5,10.78171,0,17,17,244,1,"a bedroom with a desk, shelf and bed and two circular rugs on the floor towards the right.","a bedroo with a desk, shelf and bed and three circular rugs on the floor towards the right.",wolfe2,055_R_carpet,1,41,A1WR3WTEHJEY2D,2021-02-17_22h58.30.545,MetaAwareness,2020.1.2,Win32,60,3PKVGQTFIINLZ35T67Y9R9O0D0XYR8,A1WR3WTEHJEY2D,3WI0P0II62VLNC8W0DGX279NNXFRDT,IPIW7,IPIW7,3WI0P0II62VLNC8W0DGX279NNXFRDT,3WI0P0II62VLNC8W0DGX279NNXFRDT,276287,276287,,,,,,,,,,
,,,,1,5.22941,0,18,18,324,1,the table is bare at the end,a book is on the table,wolfe2,074_R_book,4,41,A1WR3WTEHJEY2D,2021-02-17_22h58.30.545,MetaAwareness,2020.1.2,Win32,60,3PKVGQTFIINLZ35T67Y9R9O0D0XYR8,A1WR3WTEHJEY2D,3WI0P0II62VLNC8W0DGX279NNXFRDT,IPIW7,IPIW7,3WI0P0II62VLNC8W0DGX279NNXFRDT,3WI0P0II62VLNC8W0DGX279NNXFRDT,276287,276287,,,,,,,,,,
,,,,5,4.00331,0,19,19,38,1,a white bedroom with 1 candle on the nightstand,a white bedroom with 2 candles on the nightstand,wolfe2,010_L_candle,1,41,A1WR3WTEHJEY2D,2021-02-17_22h58.30.545,MetaAwareness,2020.1.2,Win32,60,3PKVGQTFIINLZ35T67Y9R9O0D0XYR8,A1WR3WTEHJEY2D,3WI0P0II62VLNC8W0DGX279NNXFRDT,IPIW7,IPIW7,3WI0P0II62VLNC8W0DGX279NNXFRDT,3WI0P0II62VLNC8W0DGX279NNXFRDT,276287,276287,,,,,,,,,,
,,,,5,9.53351,0,20,20,270,1,a dining room table with a chandeler above and 2 glasses on the table,a dining room table with a chandeler above and 3 glasses on the table,wolfe2,061_R_glass,7,41,A1WR3WTEHJEY2D,2021-02-17_22h58.30.545,MetaAwareness,2020.1.2,Win32,60,3PKVGQTFIINLZ35T67Y9R9O0D0XYR8,A1WR3WTEHJEY2D,3WI0P0II62VLNC8W0DGX279NNXFRDT,IPIW7,IPIW7,3WI0P0II62VLNC8W0DGX279NNXFRDT,3WI0P0II62VLNC8W0DGX279NNXFRDT,276287,276287,,,,,,,,,,
,,,,5,15.37882,0,21,21,503,1,a room with windows for walls. lots of plants.f,a room with windows for walls that has a vase on the floor by one of the potted plants.,wolfe2,111_R_pot,1,41,A1WR3WTEHJEY2D,2021-02-17_22h58.30.545,MetaAwareness,2020.1.2,Win32,60,3PKVGQTFIINLZ35T67Y9R9O0D0XYR8,A1WR3WTEHJEY2D,3WI0P0II62VLNC8W0DGX279NNXFRDT,IPIW7,IPIW7,3WI0P0II62VLNC8W0DGX279NNXFRDT,3WI0P0II62VLNC8W0DGX279NNXFRDT,276287,276287,,,,,,,,,,
,,,,5,8.72313,0,22,22,498,1,"a living room with a coffee table that has a plant on it, a second table with a lamp, a plant in the corner, and a view of a pool","a living room with a coffee table that has a plant on it, a second table with a lamp, no plant in the corner, and a view of a pool",wolfe2,110_R_plant,2,41,A1WR3WTEHJEY2D,2021-02-17_22h58.30.545,MetaAwareness,2020.1.2,Win32,60,3PKVGQTFIINLZ35T67Y9R9O0D0XYR8,A1WR3WTEHJEY2D,3WI0P0II62VLNC8W0DGX279NNXFRDT,IPIW7,IPIW7,3WI0P0II62VLNC8W0DGX279NNXFRDT,3WI0P0II62VLNC8W0DGX279NNXFRDT,276287,276287,,,,,,,,,,
,,,,5,6.211425,0,23,23,412,1,a fancy looking bathroom. there is a red chair near a mirror. there is a white rectangluar device reclected in the mirror above the red chair.,a fancy looking bathroom. there is a red chair near a mirror. there is nothing relected in the mirror above the red chair.,wolfe2,091_L_airfreshener,1,41,A1WR3WTEHJEY2D,2021-02-17_22h58.30.545,MetaAwareness,2020.1.2,Win32,60,3PKVGQTFIINLZ35T67Y9R9O0D0XYR8,A1WR3WTEHJEY2D,3WI0P0II62VLNC8W0DGX279NNXFRDT,IPIW7,IPIW7,3WI0P0II62VLNC8W0DGX279NNXFRDT,3WI0P0II62VLNC8W0DGX279NNXFRDT,276287,276287,,,,,,,,,,
,,,,5,4.77519,0,24,24,212,1,a bedroom with a decoration with a ball on it,a bedroom with a decoration with a ball then a outward part,wolfe2,048_L_art,2,41,A1WR3WTEHJEY2D,2021-02-17_22h58.30.545,MetaAwareness,2020.1.2,Win32,60,3PKVGQTFIINLZ35T67Y9R9O0D0XYR8,A1WR3WTEHJEY2D,3WI0P0II62VLNC8W0DGX279NNXFRDT,IPIW7,IPIW7,3WI0P0II62VLNC8W0DGX279NNXFRDT,3WI0P0II62VLNC8W0DGX279NNXFRDT,276287,276287,,,,,,,,,,
,,,,2,5.491075,0,25,25,574,1,there is flower pot in the room,no flower pots are appear in the room,wolfe2,128_R_pot,1,41,A1WR3WTEHJEY2D,2021-02-17_22h58.30.545,MetaAwareness,2020.1.2,Win32,60,3PKVGQTFIINLZ35T67Y9R9O0D0XYR8,A1WR3WTEHJEY2D,3WI0P0II62VLNC8W0DGX279NNXFRDT,IPIW7,IPIW7,3WI0P0II62VLNC8W0DGX279NNXFRDT,3WI0P0II62VLNC8W0DGX279NNXFRDT,276287,276287,,,,,,,,,,
,,,,4,9.93948,0,26,26,180,1,"a bathroom with two mirrors and two ceramic basins, only one of which has a faucet above it","a bathroom with two mirrors and two ceramic basins, each of which has its own faucet",wolfe2,042_L_tap,3,41,A1WR3WTEHJEY2D,2021-02-17_22h58.30.545,MetaAwareness,2020.1.2,Win32,60,3PKVGQTFIINLZ35T67Y9R9O0D0XYR8,A1WR3WTEHJEY2D,3WI0P0II62VLNC8W0DGX279NNXFRDT,IPIW7,IPIW7,3WI0P0II62VLNC8W0DGX279NNXFRDT,3WI0P0II62VLNC8W0DGX279NNXFRDT,276287,276287,,,,,,,,,,
,,,,5,6.493935,0,27,27,79,1,an outdoor space at a contemporary home with white exterior,an outdoor space that has a floodlight at a contemporary home with white exterior,wolfe2,019_R_lamp_sized,2,41,A1WR3WTEHJEY2D,2021-02-17_22h58.30.545,MetaAwareness,2020.1.2,Win32,60,3PKVGQTFIINLZ35T67Y9R9O0D0XYR8,A1WR3WTEHJEY2D,3WI0P0II62VLNC8W0DGX279NNXFRDT,IPIW7,IPIW7,3WI0P0II62VLNC8W0DGX279NNXFRDT,3WI0P0II62VLNC8W0DGX279NNXFRDT,276287,276287,,,,,,,,,,
,,,,3,8.211575,0,28,28,223,1,a mantle with a blank spot,a mantile with a decorative bird,wolfe2,051_L_owl,2,41,A1WR3WTEHJEY2D,2021-02-17_22h58.30.545,MetaAwareness,2020.1.2,Win32,60,3PKVGQTFIINLZ35T67Y9R9O0D0XYR8,A1WR3WTEHJEY2D,3WI0P0II62VLNC8W0DGX279NNXFRDT,IPIW7,IPIW7,3WI0P0II62VLNC8W0DGX279NNXFRDT,3WI0P0II62VLNC8W0DGX279NNXFRDT,276287,276287,,,,,,,,,,
,,,,5,4.502205,0,29,29,98,1,living room with rustic feel,living room with rustic feel and remote control on table between the chairs,wolfe2,023_L_remote,3,41,A1WR3WTEHJEY2D,2021-02-17_22h58.30.545,MetaAwareness,2020.1.2,Win32,60,3PKVGQTFIINLZ35T67Y9R9O0D0XYR8,A1WR3WTEHJEY2D,3WI0P0II62VLNC8W0DGX279NNXFRDT,IPIW7,IPIW7,3WI0P0II62VLNC8W0DGX279NNXFRDT,3WI0P0II62VLNC8W0DGX279NNXFRDT,276287,276287,,,,,,,,,,
,,,,,,,,,,,,,,,,41,A1WR3WTEHJEY2D,2021-02-17_22h58.30.545,MetaAwareness,2020.1.2,Win32,60,3PKVGQTFIINLZ35T67Y9R9O0D0XYR8,A1WR3WTEHJEY2D,3WI0P0II62VLNC8W0DGX279NNXFRDT,IPIW7,IPIW7,3WI0P0II62VLNC8W0DGX279NNXFRDT,3WI0P0II62VLNC8W0DGX279NNXFRDT,276287,276287,6,11.631625,someone laying underneath a blue beach umbrella on a crowded beach,someone laying underneath a blue beach umbrella on a crowded beach,same,1,5.89571,members of a marching band crossing a track that all have feather plumes at the front of their hats,a cluttered and rustic looking cafe with 10 hanging lights,different
