consent_response.keys,consent_response.rt,key_resp_2.keys,key_resp_2.rt,user_resp.keys,user_resp.rt,trials.thisRepN,trials.thisTrialN,trials.thisN,trials.thisIndex,trials.ran,image_1_text,image_2_text,database,image,number,age,worker_ID,date,expName,psychopyVersion,OS,frameRate,hitId,workerId,assignmentId,a,tp_a,b,tp_b,c,tp_c,catch_same_resp.keys,catch_same_resp.rt,image_1_text_catch_same,image_2_text_catch_same,image_catch_same,catch_different_resp.keys,catch_different_resp.rt,image_1_text_catch_different,image_2_text_catch_different,image_catch_different
space,150.38735,space,18.685005,1,11.07266,0,0,0,82,1,plain wall,decorations on the wall,wolfe2,020_L_walldeco,2,34,A2OU4N4VBIE91I,2021-02-17_20h43.15.565,MetaAwareness,2020.1.2,Win32,60,3H4IKZHALCL6869N6Y8H19LJ8J1NNG,A2OU4N4VBIE91I,3COPXFW7XCF8P5YRF2YV1P4Y6NAKPR,7XOC7,7XOC7,3COPXFW7XCF8P5YRF2YV1P4Y6NAKPR,3COPXFW7XCF8P5YRF2YV1P4Y6NAKPR,276287,276287,,,,,,,,,,
,,,,5,15.05427,0,1,1,531,1,"room with four doors to the yard , a couch with pillows and a plant on a stand","room with four doors to the yard, a couch with pillows and an empty stand",wolfe2,117_L_plant_sized,3,34,A2OU4N4VBIE91I,2021-02-17_20h43.15.565,MetaAwareness,2020.1.2,Win32,60,3H4IKZHALCL6869N6Y8H19LJ8J1NNG,A2OU4N4VBIE91I,3COPXFW7XCF8P5YRF2YV1P4Y6NAKPR,7XOC7,7XOC7,3COPXFW7XCF8P5YRF2YV1P4Y6NAKPR,3COPXFW7XCF8P5YRF2YV1P4Y6NAKPR,276287,276287,,,,,,,,,,
,,,,5,6.797605,0,2,2,543,1,a small white bed table with a toy car and lamp on top.,a small white bed table with a lamp on top.,wolfe2,121_L_car,3,34,A2OU4N4VBIE91I,2021-02-17_20h43.15.565,MetaAwareness,2020.1.2,Win32,60,3H4IKZHALCL6869N6Y8H19LJ8J1NNG,A2OU4N4VBIE91I,3COPXFW7XCF8P5YRF2YV1P4Y6NAKPR,7XOC7,7XOC7,3COPXFW7XCF8P5YRF2YV1P4Y6NAKPR,3COPXFW7XCF8P5YRF2YV1P4Y6NAKPR,276287,276287,,,,,,,,,,
,,,,5,6.338895,0,3,3,270,1,a dining room table with a chandeler above and 2 glasses on the table,a dining room table with a chandeler above and 3 glasses on the table,wolfe2,061_R_glass,7,34,A2OU4N4VBIE91I,2021-02-17_20h43.15.565,MetaAwareness,2020.1.2,Win32,60,3H4IKZHALCL6869N6Y8H19LJ8J1NNG,A2OU4N4VBIE91I,3COPXFW7XCF8P5YRF2YV1P4Y6NAKPR,7XOC7,7XOC7,3COPXFW7XCF8P5YRF2YV1P4Y6NAKPR,3COPXFW7XCF8P5YRF2YV1P4Y6NAKPR,276287,276287,,,,,,,,,,
,,,,3,10.56167,0,4,4,92,1,a room with a pink desk and a wall desk with a monitor and a black mat.,an open space room with matching chairs and pink desk with a yellow wall commputer and black keyboard.,wolfe2,021_R_keyboard,5,34,A2OU4N4VBIE91I,2021-02-17_20h43.15.565,MetaAwareness,2020.1.2,Win32,60,3H4IKZHALCL6869N6Y8H19LJ8J1NNG,A2OU4N4VBIE91I,3COPXFW7XCF8P5YRF2YV1P4Y6NAKPR,7XOC7,7XOC7,3COPXFW7XCF8P5YRF2YV1P4Y6NAKPR,3COPXFW7XCF8P5YRF2YV1P4Y6NAKPR,276287,276287,,,,,,,,,,
,,,,4,8.518145,0,5,5,255,1,a child's bedroom decorated in primary colors and an empty space above the red and white wardrobe.,a child's bedroom decorated in primary colors and a car sitting on top of the red and white wardrobe.,wolfe2,059_L_car,1,34,A2OU4N4VBIE91I,2021-02-17_20h43.15.565,MetaAwareness,2020.1.2,Win32,60,3H4IKZHALCL6869N6Y8H19LJ8J1NNG,A2OU4N4VBIE91I,3COPXFW7XCF8P5YRF2YV1P4Y6NAKPR,7XOC7,7XOC7,3COPXFW7XCF8P5YRF2YV1P4Y6NAKPR,3COPXFW7XCF8P5YRF2YV1P4Y6NAKPR,276287,276287,,,,,,,,,,
,,,,5,11.270835,0,6,6,236,1,a bathroom with a wardrobe that contains one drawer,a bathroom with a wardrobe that contains two drawers,wolfe2,053_L_handle,3,34,A2OU4N4VBIE91I,2021-02-17_20h43.15.565,MetaAwareness,2020.1.2,Win32,60,3H4IKZHALCL6869N6Y8H19LJ8J1NNG,A2OU4N4VBIE91I,3COPXFW7XCF8P5YRF2YV1P4Y6NAKPR,7XOC7,7XOC7,3COPXFW7XCF8P5YRF2YV1P4Y6NAKPR,3COPXFW7XCF8P5YRF2YV1P4Y6NAKPR,276287,276287,,,,,,,,,,
,,,,4,7.8335,0,7,7,1,1,antique-style room decorated in green and beige,antiques-style room with a small mirror to the left of a curtain,wolfe2,001_L_mirror,3,34,A2OU4N4VBIE91I,2021-02-17_20h43.15.565,MetaAwareness,2020.1.2,Win32,60,3H4IKZHALCL6869N6Y8H19LJ8J1NNG,A2OU4N4VBIE91I,3COPXFW7XCF8P5YRF2YV1P4Y6NAKPR,7XOC7,7XOC7,3COPXFW7XCF8P5YRF2YV1P4Y6NAKPR,3COPXFW7XCF8P5YRF2YV1P4Y6NAKPR,276287,276287,,,,,,,,,,
,,,,5,5.47337,0,8,8,91,1,a colorful room with a table that has nothing on top of a table mat,a colorful room with a table that has a keyboard on top of a mat,wolfe2,021_R_keyboard,4,34,A2OU4N4VBIE91I,2021-02-17_20h43.15.565,MetaAwareness,2020.1.2,Win32,60,3H4IKZHALCL6869N6Y8H19LJ8J1NNG,A2OU4N4VBIE91I,3COPXFW7XCF8P5YRF2YV1P4Y6NAKPR,7XOC7,7XOC7,3COPXFW7XCF8P5YRF2YV1P4Y6NAKPR,3COPXFW7XCF8P5YRF2YV1P4Y6NAKPR,276287,276287,,,,,,,,,,
,,,,5,9.18503,0,9,9,408,1,a red and white bedroom with a lamp on the floor in the corner,a red and white bedroom with nothing on the floor in the corner,wolfe2,090_L_lamp,5,34,A2OU4N4VBIE91I,2021-02-17_20h43.15.565,MetaAwareness,2020.1.2,Win32,60,3H4IKZHALCL6869N6Y8H19LJ8J1NNG,A2OU4N4VBIE91I,3COPXFW7XCF8P5YRF2YV1P4Y6NAKPR,7XOC7,7XOC7,3COPXFW7XCF8P5YRF2YV1P4Y6NAKPR,3COPXFW7XCF8P5YRF2YV1P4Y6NAKPR,276287,276287,,,,,,,,,,
,,,,5,6.30753,0,10,10,239,1,a fresh and modern architectural living room with a bookshelf covering the wall and an empty fireplace,a fresh and modern architectural living room with a bookshelf covering the wall  and fireplace with logs in them,wolfe2,054_L_firewood,4,34,A2OU4N4VBIE91I,2021-02-17_20h43.15.565,MetaAwareness,2020.1.2,Win32,60,3H4IKZHALCL6869N6Y8H19LJ8J1NNG,A2OU4N4VBIE91I,3COPXFW7XCF8P5YRF2YV1P4Y6NAKPR,7XOC7,7XOC7,3COPXFW7XCF8P5YRF2YV1P4Y6NAKPR,3COPXFW7XCF8P5YRF2YV1P4Y6NAKPR,276287,276287,,,,,,,,,,
,,,,4,6.178575,0,11,11,500,1,an outdoor screened in living area with houseplants and an urn sitting beside one of the houseplants,an outdoor screened in living area with houseplants,wolfe2,111_L_pot,2,34,A2OU4N4VBIE91I,2021-02-17_20h43.15.565,MetaAwareness,2020.1.2,Win32,60,3H4IKZHALCL6869N6Y8H19LJ8J1NNG,A2OU4N4VBIE91I,3COPXFW7XCF8P5YRF2YV1P4Y6NAKPR,7XOC7,7XOC7,3COPXFW7XCF8P5YRF2YV1P4Y6NAKPR,3COPXFW7XCF8P5YRF2YV1P4Y6NAKPR,276287,276287,,,,,,,,,,
,,,,4,17.5885,0,12,12,507,1,greenroom with plenty of light and a living area with a vace by the sliding door,greenroom area with a living space and a potted plant by the door.,wolfe2,111_R_pot,5,34,A2OU4N4VBIE91I,2021-02-17_20h43.15.565,MetaAwareness,2020.1.2,Win32,60,3H4IKZHALCL6869N6Y8H19LJ8J1NNG,A2OU4N4VBIE91I,3COPXFW7XCF8P5YRF2YV1P4Y6NAKPR,7XOC7,7XOC7,3COPXFW7XCF8P5YRF2YV1P4Y6NAKPR,3COPXFW7XCF8P5YRF2YV1P4Y6NAKPR,276287,276287,,,,,,,,,,
,,,,6,13.71861,0,13,13,30,1,"a colorful bathroom counter area with a striped hand towel, mint green walls, a large mirror, a chalkboard, and a small bowl next to one of the two rectangular sinks","a colorful bathroom counter area with a striped hand towel, mint green walls, a large mirror, a chalkboard, and a small bowl next to each rectangular sink",wolfe2,007_R_soap,6,34,A2OU4N4VBIE91I,2021-02-17_20h43.15.565,MetaAwareness,2020.1.2,Win32,60,3H4IKZHALCL6869N6Y8H19LJ8J1NNG,A2OU4N4VBIE91I,3COPXFW7XCF8P5YRF2YV1P4Y6NAKPR,7XOC7,7XOC7,3COPXFW7XCF8P5YRF2YV1P4Y6NAKPR,3COPXFW7XCF8P5YRF2YV1P4Y6NAKPR,276287,276287,,,,,,,,,,
,,,,5,4.72001,0,14,14,224,1,a white mantle with 4 decorations sitting on it,a white mantle with 5 decorations sitting on it,wolfe2,051_L_owl,4,34,A2OU4N4VBIE91I,2021-02-17_20h43.15.565,MetaAwareness,2020.1.2,Win32,60,3H4IKZHALCL6869N6Y8H19LJ8J1NNG,A2OU4N4VBIE91I,3COPXFW7XCF8P5YRF2YV1P4Y6NAKPR,7XOC7,7XOC7,3COPXFW7XCF8P5YRF2YV1P4Y6NAKPR,3COPXFW7XCF8P5YRF2YV1P4Y6NAKPR,276287,276287,,,,,,,,,,
,,,,5,3.558995,0,15,15,266,1,a dining room that has one wine glass on the table,a dining room that has two wine glasses on the table,wolfe2,061_L_glass,6,34,A2OU4N4VBIE91I,2021-02-17_20h43.15.565,MetaAwareness,2020.1.2,Win32,60,3H4IKZHALCL6869N6Y8H19LJ8J1NNG,A2OU4N4VBIE91I,3COPXFW7XCF8P5YRF2YV1P4Y6NAKPR,7XOC7,7XOC7,3COPXFW7XCF8P5YRF2YV1P4Y6NAKPR,3COPXFW7XCF8P5YRF2YV1P4Y6NAKPR,276287,276287,,,,,,,,,,
,,,,5,12.53287,0,16,16,197,1,a blue and white bathroom with a glass shower and a large jacuzzi tub that does not have any lights on the front right side,a blue and white bathroom with a glass shower and a large jacuzzitub that has a light on the front right side,wolfe2,044_R_light,4,34,A2OU4N4VBIE91I,2021-02-17_20h43.15.565,MetaAwareness,2020.1.2,Win32,60,3H4IKZHALCL6869N6Y8H19LJ8J1NNG,A2OU4N4VBIE91I,3COPXFW7XCF8P5YRF2YV1P4Y6NAKPR,7XOC7,7XOC7,3COPXFW7XCF8P5YRF2YV1P4Y6NAKPR,3COPXFW7XCF8P5YRF2YV1P4Y6NAKPR,276287,276287,,,,,,,,,,
,,,,5,9.162915,0,17,17,124,1,"a bathroom with white walls and black shelves, one of which has two red glasses","a bathroom with white walls and black shelves, one of which has a row of three red glasses",wolfe2,029_L_glass,4,34,A2OU4N4VBIE91I,2021-02-17_20h43.15.565,MetaAwareness,2020.1.2,Win32,60,3H4IKZHALCL6869N6Y8H19LJ8J1NNG,A2OU4N4VBIE91I,3COPXFW7XCF8P5YRF2YV1P4Y6NAKPR,7XOC7,7XOC7,3COPXFW7XCF8P5YRF2YV1P4Y6NAKPR,3COPXFW7XCF8P5YRF2YV1P4Y6NAKPR,276287,276287,,,,,,,,,,
,,,,4,4.60891,0,18,18,23,1,a spot where an object sits on nightstand,a pot sitting on a nightstand,wolfe2,006_R_vase,6,34,A2OU4N4VBIE91I,2021-02-17_20h43.15.565,MetaAwareness,2020.1.2,Win32,60,3H4IKZHALCL6869N6Y8H19LJ8J1NNG,A2OU4N4VBIE91I,3COPXFW7XCF8P5YRF2YV1P4Y6NAKPR,7XOC7,7XOC7,3COPXFW7XCF8P5YRF2YV1P4Y6NAKPR,3COPXFW7XCF8P5YRF2YV1P4Y6NAKPR,276287,276287,,,,,,,,,,
,,,,5,13.682045,0,19,19,370,1,a nice living area with a patio overlooking the water and there is a wall sconce on the wall to the left of the patio door.,a nice living area with a patio overlooking the water,wolfe2,084_L_light,4,34,A2OU4N4VBIE91I,2021-02-17_20h43.15.565,MetaAwareness,2020.1.2,Win32,60,3H4IKZHALCL6869N6Y8H19LJ8J1NNG,A2OU4N4VBIE91I,3COPXFW7XCF8P5YRF2YV1P4Y6NAKPR,7XOC7,7XOC7,3COPXFW7XCF8P5YRF2YV1P4Y6NAKPR,3COPXFW7XCF8P5YRF2YV1P4Y6NAKPR,276287,276287,,,,,,,,,,
,,,,5,7.644245,0,20,20,184,1,"a luxurious bathroom with two vessel sinks and mirrors, but one of the sinks has no faucet","a luxurious bathroom with two vessel sinks and mirrors, and both sinks have faucets",wolfe2,042_R_tap,1,34,A2OU4N4VBIE91I,2021-02-17_20h43.15.565,MetaAwareness,2020.1.2,Win32,60,3H4IKZHALCL6869N6Y8H19LJ8J1NNG,A2OU4N4VBIE91I,3COPXFW7XCF8P5YRF2YV1P4Y6NAKPR,7XOC7,7XOC7,3COPXFW7XCF8P5YRF2YV1P4Y6NAKPR,3COPXFW7XCF8P5YRF2YV1P4Y6NAKPR,276287,276287,,,,,,,,,,
,,,,4,6.926065,0,21,21,435,1,a small light on the wall of the bedroom,a bedroom with no light on the wall,wolfe2,097_R_light,2,34,A2OU4N4VBIE91I,2021-02-17_20h43.15.565,MetaAwareness,2020.1.2,Win32,60,3H4IKZHALCL6869N6Y8H19LJ8J1NNG,A2OU4N4VBIE91I,3COPXFW7XCF8P5YRF2YV1P4Y6NAKPR,7XOC7,7XOC7,3COPXFW7XCF8P5YRF2YV1P4Y6NAKPR,3COPXFW7XCF8P5YRF2YV1P4Y6NAKPR,276287,276287,,,,,,,,,,
,,,,5,4.644745,0,22,22,191,1,a bathroom tub with one light on the side,a bathroom tub with two lights on the side,wolfe2,044_L_light,3,34,A2OU4N4VBIE91I,2021-02-17_20h43.15.565,MetaAwareness,2020.1.2,Win32,60,3H4IKZHALCL6869N6Y8H19LJ8J1NNG,A2OU4N4VBIE91I,3COPXFW7XCF8P5YRF2YV1P4Y6NAKPR,7XOC7,7XOC7,3COPXFW7XCF8P5YRF2YV1P4Y6NAKPR,3COPXFW7XCF8P5YRF2YV1P4Y6NAKPR,276287,276287,,,,,,,,,,
,,,,5,7.024835,0,23,23,220,1,a college dorm with a shelf of five levels of books near the window,a college dorm with a shelf of six levels of books near the window,wolfe2,050_R_book,1,34,A2OU4N4VBIE91I,2021-02-17_20h43.15.565,MetaAwareness,2020.1.2,Win32,60,3H4IKZHALCL6869N6Y8H19LJ8J1NNG,A2OU4N4VBIE91I,3COPXFW7XCF8P5YRF2YV1P4Y6NAKPR,7XOC7,7XOC7,3COPXFW7XCF8P5YRF2YV1P4Y6NAKPR,3COPXFW7XCF8P5YRF2YV1P4Y6NAKPR,276287,276287,,,,,,,,,,
,,,,5,5.491125,0,24,24,329,1,an antique kitchen with three hanging lights,an antique kitchen with three hanging lights and a ceiling light is missing.,wolfe2,075_L_light,4,34,A2OU4N4VBIE91I,2021-02-17_20h43.15.565,MetaAwareness,2020.1.2,Win32,60,3H4IKZHALCL6869N6Y8H19LJ8J1NNG,A2OU4N4VBIE91I,3COPXFW7XCF8P5YRF2YV1P4Y6NAKPR,7XOC7,7XOC7,3COPXFW7XCF8P5YRF2YV1P4Y6NAKPR,3COPXFW7XCF8P5YRF2YV1P4Y6NAKPR,276287,276287,,,,,,,,,,
,,,,5,8.114235,0,25,25,103,1,"a bathroom with a large mirror and two sinks, with a basket and four stacked towels under the sinks",a bathroom with a large mirror and two sinks with a basket and nine stacked towels under the sinks,wolfe2,024_R_towels,4,34,A2OU4N4VBIE91I,2021-02-17_20h43.15.565,MetaAwareness,2020.1.2,Win32,60,3H4IKZHALCL6869N6Y8H19LJ8J1NNG,A2OU4N4VBIE91I,3COPXFW7XCF8P5YRF2YV1P4Y6NAKPR,7XOC7,7XOC7,3COPXFW7XCF8P5YRF2YV1P4Y6NAKPR,3COPXFW7XCF8P5YRF2YV1P4Y6NAKPR,276287,276287,,,,,,,,,,
,,,,5,16.538715,0,26,26,97,1,"an outdoor living sace with a tv on a fire place, several chairs and snacks on a table.","an outdoor living space with a large tv on a fire place, chairs and snacks, and a remote on the table.",wolfe2,023_L_remote,2,34,A2OU4N4VBIE91I,2021-02-17_20h43.15.565,MetaAwareness,2020.1.2,Win32,60,3H4IKZHALCL6869N6Y8H19LJ8J1NNG,A2OU4N4VBIE91I,3COPXFW7XCF8P5YRF2YV1P4Y6NAKPR,7XOC7,7XOC7,3COPXFW7XCF8P5YRF2YV1P4Y6NAKPR,3COPXFW7XCF8P5YRF2YV1P4Y6NAKPR,276287,276287,,,,,,,,,,
,,,,5,6.4892,0,27,27,453,1,"a bathroom with a toilet, mirror and a shelf full of items including glasses, various products and a red cup","a bathroom with a toilet, mirror, and a  shelf full of items including glasses and various products",wolfe2,101_R_cup,4,34,A2OU4N4VBIE91I,2021-02-17_20h43.15.565,MetaAwareness,2020.1.2,Win32,60,3H4IKZHALCL6869N6Y8H19LJ8J1NNG,A2OU4N4VBIE91I,3COPXFW7XCF8P5YRF2YV1P4Y6NAKPR,7XOC7,7XOC7,3COPXFW7XCF8P5YRF2YV1P4Y6NAKPR,3COPXFW7XCF8P5YRF2YV1P4Y6NAKPR,276287,276287,,,,,,,,,,
,,,,5,5.79046,0,28,28,137,1,"a simple and spacious looking room with lots of seating, many windows and one beam on the ceiling","a simple and spacious looking room with lots of seating, many windows and two beams on the ceiling",wolfe2,031_R_log,5,34,A2OU4N4VBIE91I,2021-02-17_20h43.15.565,MetaAwareness,2020.1.2,Win32,60,3H4IKZHALCL6869N6Y8H19LJ8J1NNG,A2OU4N4VBIE91I,3COPXFW7XCF8P5YRF2YV1P4Y6NAKPR,7XOC7,7XOC7,3COPXFW7XCF8P5YRF2YV1P4Y6NAKPR,3COPXFW7XCF8P5YRF2YV1P4Y6NAKPR,276287,276287,,,,,,,,,,
,,,,6,7.72985,0,29,29,109,1,"bathroom wit wood toilet, shower, and 4 decrative soaps","bathroom with wood toilet, shower, 4 decrative soaps under a shelf",wolfe2,026_L_rack,2,34,A2OU4N4VBIE91I,2021-02-17_20h43.15.565,MetaAwareness,2020.1.2,Win32,60,3H4IKZHALCL6869N6Y8H19LJ8J1NNG,A2OU4N4VBIE91I,3COPXFW7XCF8P5YRF2YV1P4Y6NAKPR,7XOC7,7XOC7,3COPXFW7XCF8P5YRF2YV1P4Y6NAKPR,3COPXFW7XCF8P5YRF2YV1P4Y6NAKPR,276287,276287,,,,,,,,,,
,,,,,,,,,,,,,,,,34,A2OU4N4VBIE91I,2021-02-17_20h43.15.565,MetaAwareness,2020.1.2,Win32,60,3H4IKZHALCL6869N6Y8H19LJ8J1NNG,A2OU4N4VBIE91I,3COPXFW7XCF8P5YRF2YV1P4Y6NAKPR,7XOC7,7XOC7,3COPXFW7XCF8P5YRF2YV1P4Y6NAKPR,3COPXFW7XCF8P5YRF2YV1P4Y6NAKPR,276287,276287,6,11.857215,someone laying underneath a blue beach umbrella on a crowded beach,someone laying underneath a blue beach umbrella on a crowded beach,same,1,4.31866,members of a marching band crossing a track that all have feather plumes at the front of their hats,a cluttered and rustic looking cafe with 10 hanging lights,different
