consent_response.keys,consent_response.rt,key_resp_2.keys,key_resp_2.rt,user_resp.keys,user_resp.rt,trials.thisRepN,trials.thisTrialN,trials.thisN,trials.thisIndex,trials.ran,image_1_text,image_2_text,database,image,number,age,worker_ID,date,expName,psychopyVersion,OS,frameRate,hitId,workerId,assignmentId,a,tp_a,b,tp_b,c,tp_c,catch_same_resp.keys,catch_same_resp.rt,image_1_text_catch_same,image_2_text_catch_same,image_catch_same,catch_different_resp.keys,catch_different_resp.rt,image_1_text_catch_different,image_2_text_catch_different,image_catch_different
space,9.975195,space,3.249045,2,13.379055,0,0,0,564,1,a huge living room with an ocean viw,a huge livingroom without nothing near the window,wolfe2,125_R_sofa,4,23,A2X7705RU1QQYB,2021-02-17_21h08.49.568,MetaAwareness,2020.1.2,Win32,60,3TL87MO8CNS4WETLWX9PGC8L1XHFL1,A2X7705RU1QQYB,3LBXNTKX0SYTHIHRXWHN5TCLXSAX91,XNBL7,XNBL7,3LBXNTKX0SYTHIHRXWHN5TCLXSAX91,3LBXNTKX0SYTHIHRXWHN5TCLXSAX91,276287,276287,,,,,,,,,,
,,,,5,9.54758,0,1,1,535,1,this is a picture of a sitting room. there is a pair of shoes next to a potted plant.,this is a picture of a sitting room. there is only a potted plant on the right.,wolfe2,118_R_shoes,6,23,A2X7705RU1QQYB,2021-02-17_21h08.49.568,MetaAwareness,2020.1.2,Win32,60,3TL87MO8CNS4WETLWX9PGC8L1XHFL1,A2X7705RU1QQYB,3LBXNTKX0SYTHIHRXWHN5TCLXSAX91,XNBL7,XNBL7,3LBXNTKX0SYTHIHRXWHN5TCLXSAX91,3LBXNTKX0SYTHIHRXWHN5TCLXSAX91,276287,276287,,,,,,,,,,
,,,,3,11.95696,0,2,2,520,1,there is a small statue next to the book and vases on the coffee table.,there is nothing but a book and vases on this coffee table.,wolfe2,114_R_bird,2,23,A2X7705RU1QQYB,2021-02-17_21h08.49.568,MetaAwareness,2020.1.2,Win32,60,3TL87MO8CNS4WETLWX9PGC8L1XHFL1,A2X7705RU1QQYB,3LBXNTKX0SYTHIHRXWHN5TCLXSAX91,XNBL7,XNBL7,3LBXNTKX0SYTHIHRXWHN5TCLXSAX91,3LBXNTKX0SYTHIHRXWHN5TCLXSAX91,276287,276287,,,,,,,,,,
,,,,3,6.049025,0,3,3,296,1,a short side table without any objects on it,a short side table with a framed photo set on it,wolfe2,067_R_painting,4,23,A2X7705RU1QQYB,2021-02-17_21h08.49.568,MetaAwareness,2020.1.2,Win32,60,3TL87MO8CNS4WETLWX9PGC8L1XHFL1,A2X7705RU1QQYB,3LBXNTKX0SYTHIHRXWHN5TCLXSAX91,XNBL7,XNBL7,3LBXNTKX0SYTHIHRXWHN5TCLXSAX91,3LBXNTKX0SYTHIHRXWHN5TCLXSAX91,276287,276287,,,,,,,,,,
,,,,3,8.20531,0,4,4,17,1,a bedroom with multiple dressers and a rug with an empty nightstand,a bedroom with multiple dressers and a rug with a nightstand with a vase on it,wolfe2,006_L_vase,2,23,A2X7705RU1QQYB,2021-02-17_21h08.49.568,MetaAwareness,2020.1.2,Win32,60,3TL87MO8CNS4WETLWX9PGC8L1XHFL1,A2X7705RU1QQYB,3LBXNTKX0SYTHIHRXWHN5TCLXSAX91,XNBL7,XNBL7,3LBXNTKX0SYTHIHRXWHN5TCLXSAX91,3LBXNTKX0SYTHIHRXWHN5TCLXSAX91,276287,276287,,,,,,,,,,
,,,,3,23.666195,0,5,5,255,1,a child's bedroom decorated in primary colors and an empty space above the red and white wardrobe.,a child's bedroom decorated in primary colors and a car sitting on top of the red and white wardrobe.,wolfe2,059_L_car,1,23,A2X7705RU1QQYB,2021-02-17_21h08.49.568,MetaAwareness,2020.1.2,Win32,60,3TL87MO8CNS4WETLWX9PGC8L1XHFL1,A2X7705RU1QQYB,3LBXNTKX0SYTHIHRXWHN5TCLXSAX91,XNBL7,XNBL7,3LBXNTKX0SYTHIHRXWHN5TCLXSAX91,3LBXNTKX0SYTHIHRXWHN5TCLXSAX91,276287,276287,,,,,,,,,,
,,,,4,6.734235,0,6,6,49,1,modernistic living and dining combination with single hanging white light over the dining table,modernistic living and dining combination with double hanging white lights over the dining table,wolfe2,013_L_lamp,2,23,A2X7705RU1QQYB,2021-02-17_21h08.49.568,MetaAwareness,2020.1.2,Win32,60,3TL87MO8CNS4WETLWX9PGC8L1XHFL1,A2X7705RU1QQYB,3LBXNTKX0SYTHIHRXWHN5TCLXSAX91,XNBL7,XNBL7,3LBXNTKX0SYTHIHRXWHN5TCLXSAX91,3LBXNTKX0SYTHIHRXWHN5TCLXSAX91,276287,276287,,,,,,,,,,
,,,,3,5.72996,0,7,7,13,1,a small bedroom with view of a city that lacks a cell phone tower in the distance,a small bedroom with view of a city that has a cell phone tower visible in the distance,wolfe2,004_L_electricalgrid,5,23,A2X7705RU1QQYB,2021-02-17_21h08.49.568,MetaAwareness,2020.1.2,Win32,60,3TL87MO8CNS4WETLWX9PGC8L1XHFL1,A2X7705RU1QQYB,3LBXNTKX0SYTHIHRXWHN5TCLXSAX91,XNBL7,XNBL7,3LBXNTKX0SYTHIHRXWHN5TCLXSAX91,3LBXNTKX0SYTHIHRXWHN5TCLXSAX91,276287,276287,,,,,,,,,,
,,,,4,4.94516,0,8,8,338,1,a bathroom without a towel hook by the bathroom mirror,a bathroom with a towel hook by the bathroom mirror,wolfe2,076_R_hook,4,23,A2X7705RU1QQYB,2021-02-17_21h08.49.568,MetaAwareness,2020.1.2,Win32,60,3TL87MO8CNS4WETLWX9PGC8L1XHFL1,A2X7705RU1QQYB,3LBXNTKX0SYTHIHRXWHN5TCLXSAX91,XNBL7,XNBL7,3LBXNTKX0SYTHIHRXWHN5TCLXSAX91,3LBXNTKX0SYTHIHRXWHN5TCLXSAX91,276287,276287,,,,,,,,,,
,,,,5,5.110085,0,9,9,277,1,a very modern living room with a desk with nothing on it,a very modern living room with a desk with a notebook on it,wolfe2,063_R_laptop,4,23,A2X7705RU1QQYB,2021-02-17_21h08.49.568,MetaAwareness,2020.1.2,Win32,60,3TL87MO8CNS4WETLWX9PGC8L1XHFL1,A2X7705RU1QQYB,3LBXNTKX0SYTHIHRXWHN5TCLXSAX91,XNBL7,XNBL7,3LBXNTKX0SYTHIHRXWHN5TCLXSAX91,3LBXNTKX0SYTHIHRXWHN5TCLXSAX91,276287,276287,,,,,,,,,,
,,,,3,14.916655,0,10,10,260,1,this brightly colored child's bedroom has a decorative car above the closet.num_enter,this brightly colored childs bedroom has many cars on the floor,wolfe2,059_R_car,3,23,A2X7705RU1QQYB,2021-02-17_21h08.49.568,MetaAwareness,2020.1.2,Win32,60,3TL87MO8CNS4WETLWX9PGC8L1XHFL1,A2X7705RU1QQYB,3LBXNTKX0SYTHIHRXWHN5TCLXSAX91,XNBL7,XNBL7,3LBXNTKX0SYTHIHRXWHN5TCLXSAX91,3LBXNTKX0SYTHIHRXWHN5TCLXSAX91,276287,276287,,,,,,,,,,
,,,,4,12.706815,0,11,11,417,1,a hotel room with two beds and a plug next to each bed.,a hotel room with two beds and a plug next to one of the beds,wolfe2,093_L_switch,2,23,A2X7705RU1QQYB,2021-02-17_21h08.49.568,MetaAwareness,2020.1.2,Win32,60,3TL87MO8CNS4WETLWX9PGC8L1XHFL1,A2X7705RU1QQYB,3LBXNTKX0SYTHIHRXWHN5TCLXSAX91,XNBL7,XNBL7,3LBXNTKX0SYTHIHRXWHN5TCLXSAX91,3LBXNTKX0SYTHIHRXWHN5TCLXSAX91,276287,276287,,,,,,,,,,
,,,,4,2.65124,0,12,12,19,1,bedroom with full set,bedroom with full set and vase on nightstand,wolfe2,006_L_vase,5,23,A2X7705RU1QQYB,2021-02-17_21h08.49.568,MetaAwareness,2020.1.2,Win32,60,3TL87MO8CNS4WETLWX9PGC8L1XHFL1,A2X7705RU1QQYB,3LBXNTKX0SYTHIHRXWHN5TCLXSAX91,XNBL7,XNBL7,3LBXNTKX0SYTHIHRXWHN5TCLXSAX91,3LBXNTKX0SYTHIHRXWHN5TCLXSAX91,276287,276287,,,,,,,,,,
,,,,3,5.06144,0,13,13,63,1,a beautiful living with nice white couch and chic coffee table and beautiful view outside,a beautiful living room with nice white couch and chic coffee table and beautiful scenery outside and a small sculpture on the left pillar.,wolfe2,016_L_art,3,23,A2X7705RU1QQYB,2021-02-17_21h08.49.568,MetaAwareness,2020.1.2,Win32,60,3TL87MO8CNS4WETLWX9PGC8L1XHFL1,A2X7705RU1QQYB,3LBXNTKX0SYTHIHRXWHN5TCLXSAX91,XNBL7,XNBL7,3LBXNTKX0SYTHIHRXWHN5TCLXSAX91,3LBXNTKX0SYTHIHRXWHN5TCLXSAX91,276287,276287,,,,,,,,,,
,,,,3,11.6702,0,14,14,215,1,theres a dresser with a small picture to the left,theres a dresser with no pictures around it,wolfe2,049_L_painting,4,23,A2X7705RU1QQYB,2021-02-17_21h08.49.568,MetaAwareness,2020.1.2,Win32,60,3TL87MO8CNS4WETLWX9PGC8L1XHFL1,A2X7705RU1QQYB,3LBXNTKX0SYTHIHRXWHN5TCLXSAX91,XNBL7,XNBL7,3LBXNTKX0SYTHIHRXWHN5TCLXSAX91,3LBXNTKX0SYTHIHRXWHN5TCLXSAX91,276287,276287,,,,,,,,,,
,,,,4,6.96799,0,15,15,506,1,outdoor patio thats covered with glass walls but gets a lot of sunlight.,"still an outdoor patio with large glass walls and sunlight, but there's a vase missing in the decorations.",wolfe2,111_R_pot,4,23,A2X7705RU1QQYB,2021-02-17_21h08.49.568,MetaAwareness,2020.1.2,Win32,60,3TL87MO8CNS4WETLWX9PGC8L1XHFL1,A2X7705RU1QQYB,3LBXNTKX0SYTHIHRXWHN5TCLXSAX91,XNBL7,XNBL7,3LBXNTKX0SYTHIHRXWHN5TCLXSAX91,3LBXNTKX0SYTHIHRXWHN5TCLXSAX91,276287,276287,,,,,,,,,,
,,,,4,7.339715,0,16,16,292,1,an empty board room decorated well with 10 chairs but missing a framed picture on the table.,"and empty board room decorated well with 10 chairs, with a framed picture on the table",wolfe2,067_L_painting,2,23,A2X7705RU1QQYB,2021-02-17_21h08.49.568,MetaAwareness,2020.1.2,Win32,60,3TL87MO8CNS4WETLWX9PGC8L1XHFL1,A2X7705RU1QQYB,3LBXNTKX0SYTHIHRXWHN5TCLXSAX91,XNBL7,XNBL7,3LBXNTKX0SYTHIHRXWHN5TCLXSAX91,3LBXNTKX0SYTHIHRXWHN5TCLXSAX91,276287,276287,,,,,,,,,,
,,,,3,3.98914,0,17,17,247,1,a living room with two windows and a sofa that has pilllows on it,a living room with two windows and a sofa that has pillows on it and a blanket  and a book on the corner of it,wolfe2,056_L_comforter,2,23,A2X7705RU1QQYB,2021-02-17_21h08.49.568,MetaAwareness,2020.1.2,Win32,60,3TL87MO8CNS4WETLWX9PGC8L1XHFL1,A2X7705RU1QQYB,3LBXNTKX0SYTHIHRXWHN5TCLXSAX91,XNBL7,XNBL7,3LBXNTKX0SYTHIHRXWHN5TCLXSAX91,3LBXNTKX0SYTHIHRXWHN5TCLXSAX91,276287,276287,,,,,,,,,,
,,,,4,4.593445,0,18,18,413,1,a burgundy colored bathroom with three sinks and a white box on the back wall.,a burgundy colored bathroom with three sinks and no white box on the back wall,wolfe2,091_L_airfreshener,2,23,A2X7705RU1QQYB,2021-02-17_21h08.49.568,MetaAwareness,2020.1.2,Win32,60,3TL87MO8CNS4WETLWX9PGC8L1XHFL1,A2X7705RU1QQYB,3LBXNTKX0SYTHIHRXWHN5TCLXSAX91,XNBL7,XNBL7,3LBXNTKX0SYTHIHRXWHN5TCLXSAX91,3LBXNTKX0SYTHIHRXWHN5TCLXSAX91,276287,276287,,,,,,,,,,
,,,,3,6.09913,0,19,19,67,1,a bedroom with a scenic view of the trees outside. no object on the black cube in the bedroom.,a bedroom with a scenic view of the trees outside. theres a black cube display with another object on top in the bedroom.,wolfe2,016_R_art,4,23,A2X7705RU1QQYB,2021-02-17_21h08.49.568,MetaAwareness,2020.1.2,Win32,60,3TL87MO8CNS4WETLWX9PGC8L1XHFL1,A2X7705RU1QQYB,3LBXNTKX0SYTHIHRXWHN5TCLXSAX91,XNBL7,XNBL7,3LBXNTKX0SYTHIHRXWHN5TCLXSAX91,3LBXNTKX0SYTHIHRXWHN5TCLXSAX91,276287,276287,,,,,,,,,,
,,,,4,3.388155,0,20,20,422,1,"a hotel room with two beds and a painting hanging on the wall, with a wall switch on the wall between the beds","a hotel room with two beds and a painting hanging on the wall, with no wall switch on the wall between the beds",wolfe2,093_R_switch,2,23,A2X7705RU1QQYB,2021-02-17_21h08.49.568,MetaAwareness,2020.1.2,Win32,60,3TL87MO8CNS4WETLWX9PGC8L1XHFL1,A2X7705RU1QQYB,3LBXNTKX0SYTHIHRXWHN5TCLXSAX91,XNBL7,XNBL7,3LBXNTKX0SYTHIHRXWHN5TCLXSAX91,3LBXNTKX0SYTHIHRXWHN5TCLXSAX91,276287,276287,,,,,,,,,,
,,,,3,18.716065,0,21,21,55,1,"a bright, open sitting area with 3 lights overhead","a bright, open sitting area with 4 lights overhead",wolfe2,014_L_lamp,1,23,A2X7705RU1QQYB,2021-02-17_21h08.49.568,MetaAwareness,2020.1.2,Win32,60,3TL87MO8CNS4WETLWX9PGC8L1XHFL1,A2X7705RU1QQYB,3LBXNTKX0SYTHIHRXWHN5TCLXSAX91,XNBL7,XNBL7,3LBXNTKX0SYTHIHRXWHN5TCLXSAX91,3LBXNTKX0SYTHIHRXWHN5TCLXSAX91,276287,276287,,,,,,,,,,
,,,,4,4.223665,0,22,22,499,1,a house witha few of the backyard with pool. small plant in the corner of the room,a house with a view of the backyard with a pool. no plant in the corner of the room,wolfe2,110_R_plant,5,23,A2X7705RU1QQYB,2021-02-17_21h08.49.568,MetaAwareness,2020.1.2,Win32,60,3TL87MO8CNS4WETLWX9PGC8L1XHFL1,A2X7705RU1QQYB,3LBXNTKX0SYTHIHRXWHN5TCLXSAX91,XNBL7,XNBL7,3LBXNTKX0SYTHIHRXWHN5TCLXSAX91,3LBXNTKX0SYTHIHRXWHN5TCLXSAX91,276287,276287,,,,,,,,,,
,,,,4,2.03783,0,23,23,5,1,bedroom with a fireplace that has two photos on the walls and no mirror.,bedroom with fireplace that has two photos and a small mirror on the walls.,wolfe2,001_R_mirror,5,23,A2X7705RU1QQYB,2021-02-17_21h08.49.568,MetaAwareness,2020.1.2,Win32,60,3TL87MO8CNS4WETLWX9PGC8L1XHFL1,A2X7705RU1QQYB,3LBXNTKX0SYTHIHRXWHN5TCLXSAX91,XNBL7,XNBL7,3LBXNTKX0SYTHIHRXWHN5TCLXSAX91,3LBXNTKX0SYTHIHRXWHN5TCLXSAX91,276287,276287,,,,,,,,,,
,,,,3,2.920955,0,24,24,443,1,a dining area with a candle holder and candle on the wall,a dining area with a picture on the wall,wolfe2,099_L_sconce,3,23,A2X7705RU1QQYB,2021-02-17_21h08.49.568,MetaAwareness,2020.1.2,Win32,60,3TL87MO8CNS4WETLWX9PGC8L1XHFL1,A2X7705RU1QQYB,3LBXNTKX0SYTHIHRXWHN5TCLXSAX91,XNBL7,XNBL7,3LBXNTKX0SYTHIHRXWHN5TCLXSAX91,3LBXNTKX0SYTHIHRXWHN5TCLXSAX91,276287,276287,,,,,,,,,,
,,,,3,1.581995,0,25,25,92,1,a room with a pink desk and a wall desk with a monitor and a black mat.,an open space room with matching chairs and pink desk with a yellow wall commputer and black keyboard.,wolfe2,021_R_keyboard,5,23,A2X7705RU1QQYB,2021-02-17_21h08.49.568,MetaAwareness,2020.1.2,Win32,60,3TL87MO8CNS4WETLWX9PGC8L1XHFL1,A2X7705RU1QQYB,3LBXNTKX0SYTHIHRXWHN5TCLXSAX91,XNBL7,XNBL7,3LBXNTKX0SYTHIHRXWHN5TCLXSAX91,3LBXNTKX0SYTHIHRXWHN5TCLXSAX91,276287,276287,,,,,,,,,,
,,,,4,3.070525,0,26,26,228,1,a living room with couches facing a flat screen tv,a living room with courches facing a flat screen tv and three speakers,wolfe2,052_L_speaker,1,23,A2X7705RU1QQYB,2021-02-17_21h08.49.568,MetaAwareness,2020.1.2,Win32,60,3TL87MO8CNS4WETLWX9PGC8L1XHFL1,A2X7705RU1QQYB,3LBXNTKX0SYTHIHRXWHN5TCLXSAX91,XNBL7,XNBL7,3LBXNTKX0SYTHIHRXWHN5TCLXSAX91,3LBXNTKX0SYTHIHRXWHN5TCLXSAX91,276287,276287,,,,,,,,,,
,,,,4,3.82244,0,27,27,27,1,two sinks in front of a mirror with one bar of soap,two sinks in front of a mirror with two bars of soap,wolfe2,007_R_soap,3,23,A2X7705RU1QQYB,2021-02-17_21h08.49.568,MetaAwareness,2020.1.2,Win32,60,3TL87MO8CNS4WETLWX9PGC8L1XHFL1,A2X7705RU1QQYB,3LBXNTKX0SYTHIHRXWHN5TCLXSAX91,XNBL7,XNBL7,3LBXNTKX0SYTHIHRXWHN5TCLXSAX91,3LBXNTKX0SYTHIHRXWHN5TCLXSAX91,276287,276287,,,,,,,,,,
,,,,3,4.42768,0,28,28,425,1,"a bright living room set up with a mirror, a coffee table, and candles in light votives and a candle in a dark votive on the fireplace","a bright living room set up with a mirror, a coffee table, and candles in light colored votives on the fireplace",wolfe2,095_R_candle,1,23,A2X7705RU1QQYB,2021-02-17_21h08.49.568,MetaAwareness,2020.1.2,Win32,60,3TL87MO8CNS4WETLWX9PGC8L1XHFL1,A2X7705RU1QQYB,3LBXNTKX0SYTHIHRXWHN5TCLXSAX91,XNBL7,XNBL7,3LBXNTKX0SYTHIHRXWHN5TCLXSAX91,3LBXNTKX0SYTHIHRXWHN5TCLXSAX91,276287,276287,,,,,,,,,,
,,,,3,4.340595,0,29,29,501,1,a florida room with a small vase on the floor,a florida room with some plantsnum_enter,wolfe2,111_L_pot,3,23,A2X7705RU1QQYB,2021-02-17_21h08.49.568,MetaAwareness,2020.1.2,Win32,60,3TL87MO8CNS4WETLWX9PGC8L1XHFL1,A2X7705RU1QQYB,3LBXNTKX0SYTHIHRXWHN5TCLXSAX91,XNBL7,XNBL7,3LBXNTKX0SYTHIHRXWHN5TCLXSAX91,3LBXNTKX0SYTHIHRXWHN5TCLXSAX91,276287,276287,,,,,,,,,,
,,,,,,,,,,,,,,,,23,A2X7705RU1QQYB,2021-02-17_21h08.49.568,MetaAwareness,2020.1.2,Win32,60,3TL87MO8CNS4WETLWX9PGC8L1XHFL1,A2X7705RU1QQYB,3LBXNTKX0SYTHIHRXWHN5TCLXSAX91,XNBL7,XNBL7,3LBXNTKX0SYTHIHRXWHN5TCLXSAX91,3LBXNTKX0SYTHIHRXWHN5TCLXSAX91,276287,276287,6,18.898335,someone laying underneath a blue beach umbrella on a crowded beach,someone laying underneath a blue beach umbrella on a crowded beach,same,1,7.35786,members of a marching band crossing a track that all have feather plumes at the front of their hats,a cluttered and rustic looking cafe with 10 hanging lights,different
