consent_response.keys,consent_response.rt,key_resp_2.keys,key_resp_2.rt,user_resp.keys,user_resp.rt,trials.thisRepN,trials.thisTrialN,trials.thisN,trials.thisIndex,trials.ran,image_1_text,image_2_text,database,image,number,age,worker_ID,date,expName,psychopyVersion,OS,frameRate,hitId,workerId,assignmentId,a,tp_a,b,tp_b,c,tp_c,catch_same_resp.keys,catch_same_resp.rt,image_1_text_catch_same,image_2_text_catch_same,image_catch_same,catch_different_resp.keys,catch_different_resp.rt,image_1_text_catch_different,image_2_text_catch_different,image_catch_different
space,5.79,space,1.614,4,6.531,0,0,0,16,1,a clean and well kept master bedroom that has a night stand with a lamp on it.,a clean and well kept master bedroom that has a night stand with a lamp and vase on it,wolfe2,006_L_vase,1,43,A3G479CZZJOSJ2,2021-02-17_18h58.54.717,MetaAwareness,2020.1.2,Win32,60,3K2CEDRACC4YL1T7RTFTXT2BSB8TMI,A3G479CZZJOSJ2,3C8HJ7UOP8XXTX00NN9D70YG5R2MZ9,OJ8C7,OJ8C7,3C8HJ7UOP8XXTX00NN9D70YG5R2MZ9,3C8HJ7UOP8XXTX00NN9D70YG5R2MZ9,276287,276287,,,,,,,,,,
,,,,5,2.543,0,1,1,525,1,a kitchen with a basket on the floor next to the door,a kitchen without a basket on the foor,wolfe2,116_L_basket,3,43,A3G479CZZJOSJ2,2021-02-17_18h58.54.717,MetaAwareness,2020.1.2,Win32,60,3K2CEDRACC4YL1T7RTFTXT2BSB8TMI,A3G479CZZJOSJ2,3C8HJ7UOP8XXTX00NN9D70YG5R2MZ9,OJ8C7,OJ8C7,3C8HJ7UOP8XXTX00NN9D70YG5R2MZ9,3C8HJ7UOP8XXTX00NN9D70YG5R2MZ9,276287,276287,,,,,,,,,,
,,,,6,2.152,0,2,2,342,1,a luxurious and modern kitchen with bar stools,a luxious and modern kitchen with bar stools and foot support,wolfe2,077_L_footrest,7,43,A3G479CZZJOSJ2,2021-02-17_18h58.54.717,MetaAwareness,2020.1.2,Win32,60,3K2CEDRACC4YL1T7RTFTXT2BSB8TMI,A3G479CZZJOSJ2,3C8HJ7UOP8XXTX00NN9D70YG5R2MZ9,OJ8C7,OJ8C7,3C8HJ7UOP8XXTX00NN9D70YG5R2MZ9,3C8HJ7UOP8XXTX00NN9D70YG5R2MZ9,276287,276287,,,,,,,,,,
,,,,5,2.388,0,3,3,86,1,a small office with a desk and two circular pieces of art hanging on the wall,a small office with a desk and three circular pieces of art hanging on the wall,wolfe2,020_R_walldeco,4,43,A3G479CZZJOSJ2,2021-02-17_18h58.54.717,MetaAwareness,2020.1.2,Win32,60,3K2CEDRACC4YL1T7RTFTXT2BSB8TMI,A3G479CZZJOSJ2,3C8HJ7UOP8XXTX00NN9D70YG5R2MZ9,OJ8C7,OJ8C7,3C8HJ7UOP8XXTX00NN9D70YG5R2MZ9,3C8HJ7UOP8XXTX00NN9D70YG5R2MZ9,276287,276287,,,,,,,,,,
,,,,4,3.329,0,4,4,524,1,"a warm-hued kitchen with a tile floor, a large central island, an open floor plan, and a potted plant next to the double oven","a warm-hued kitchen with a tile floor, a large central island, an open floor plan, and a window next to the double oven",wolfe2,115_R_pot,5,43,A3G479CZZJOSJ2,2021-02-17_18h58.54.717,MetaAwareness,2020.1.2,Win32,60,3K2CEDRACC4YL1T7RTFTXT2BSB8TMI,A3G479CZZJOSJ2,3C8HJ7UOP8XXTX00NN9D70YG5R2MZ9,OJ8C7,OJ8C7,3C8HJ7UOP8XXTX00NN9D70YG5R2MZ9,3C8HJ7UOP8XXTX00NN9D70YG5R2MZ9,276287,276287,,,,,,,,,,
,,,,3,2.628,0,5,5,37,1,a modern bedroom with white walls and floors and brown furniture in it,"a modern bedroom with white walls and floors, brown furniture, and a round pale taupe rug in it",wolfe2,009_L_carpet,4,43,A3G479CZZJOSJ2,2021-02-17_18h58.54.717,MetaAwareness,2020.1.2,Win32,60,3K2CEDRACC4YL1T7RTFTXT2BSB8TMI,A3G479CZZJOSJ2,3C8HJ7UOP8XXTX00NN9D70YG5R2MZ9,OJ8C7,OJ8C7,3C8HJ7UOP8XXTX00NN9D70YG5R2MZ9,3C8HJ7UOP8XXTX00NN9D70YG5R2MZ9,276287,276287,,,,,,,,,,
,,,,4,1.964,0,6,6,364,1,the side of a coffee table that is grey,a bowl is sitting underneath a table,wolfe2,082_R_bowl,8,43,A3G479CZZJOSJ2,2021-02-17_18h58.54.717,MetaAwareness,2020.1.2,Win32,60,3K2CEDRACC4YL1T7RTFTXT2BSB8TMI,A3G479CZZJOSJ2,3C8HJ7UOP8XXTX00NN9D70YG5R2MZ9,OJ8C7,OJ8C7,3C8HJ7UOP8XXTX00NN9D70YG5R2MZ9,3C8HJ7UOP8XXTX00NN9D70YG5R2MZ9,276287,276287,,,,,,,,,,
,,,,5,1.889,0,7,7,274,1,an open design kitchen and living room with a nice desk space,an open design kitchen and living room with a book on top of a nice desk space,wolfe2,063_L_laptop,4,43,A3G479CZZJOSJ2,2021-02-17_18h58.54.717,MetaAwareness,2020.1.2,Win32,60,3K2CEDRACC4YL1T7RTFTXT2BSB8TMI,A3G479CZZJOSJ2,3C8HJ7UOP8XXTX00NN9D70YG5R2MZ9,OJ8C7,OJ8C7,3C8HJ7UOP8XXTX00NN9D70YG5R2MZ9,3C8HJ7UOP8XXTX00NN9D70YG5R2MZ9,276287,276287,,,,,,,,,,
,,,,4,1.639,0,8,8,141,1,a very nice contemporary living room with a shelf with serveral nice pieces of art on display.,a very nice contemporary living room with a shelf with several nice pieces of art on display as well as a very nice vase.,wolfe2,033_L_vase,1,43,A3G479CZZJOSJ2,2021-02-17_18h58.54.717,MetaAwareness,2020.1.2,Win32,60,3K2CEDRACC4YL1T7RTFTXT2BSB8TMI,A3G479CZZJOSJ2,3C8HJ7UOP8XXTX00NN9D70YG5R2MZ9,OJ8C7,OJ8C7,3C8HJ7UOP8XXTX00NN9D70YG5R2MZ9,3C8HJ7UOP8XXTX00NN9D70YG5R2MZ9,276287,276287,,,,,,,,,,
,,,,3,1.727,0,9,9,158,1,"a brown, retro dining room without a long sculpture hanging on the wall","a brown, retro dining room with a long sculpture hanging on the wall",wolfe2,038_L_art,3,43,A3G479CZZJOSJ2,2021-02-17_18h58.54.717,MetaAwareness,2020.1.2,Win32,60,3K2CEDRACC4YL1T7RTFTXT2BSB8TMI,A3G479CZZJOSJ2,3C8HJ7UOP8XXTX00NN9D70YG5R2MZ9,OJ8C7,OJ8C7,3C8HJ7UOP8XXTX00NN9D70YG5R2MZ9,3C8HJ7UOP8XXTX00NN9D70YG5R2MZ9,276287,276287,,,,,,,,,,
,,,,2,3.934,0,10,10,377,1,a tissue holder on the wall,a clear wall,wolfe2,085_L_switchboard,2,43,A3G479CZZJOSJ2,2021-02-17_18h58.54.717,MetaAwareness,2020.1.2,Win32,60,3K2CEDRACC4YL1T7RTFTXT2BSB8TMI,A3G479CZZJOSJ2,3C8HJ7UOP8XXTX00NN9D70YG5R2MZ9,OJ8C7,OJ8C7,3C8HJ7UOP8XXTX00NN9D70YG5R2MZ9,3C8HJ7UOP8XXTX00NN9D70YG5R2MZ9,276287,276287,,,,,,,,,,
,,,,4,3.953,0,11,11,152,1,a colorful red and light colored kitchen with a shelf with 5 coffee mugs,a colorful red and light colored kitchen with a shelf with 6 coffee mugs,wolfe2,036_L_bowl,4,43,A3G479CZZJOSJ2,2021-02-17_18h58.54.717,MetaAwareness,2020.1.2,Win32,60,3K2CEDRACC4YL1T7RTFTXT2BSB8TMI,A3G479CZZJOSJ2,3C8HJ7UOP8XXTX00NN9D70YG5R2MZ9,OJ8C7,OJ8C7,3C8HJ7UOP8XXTX00NN9D70YG5R2MZ9,3C8HJ7UOP8XXTX00NN9D70YG5R2MZ9,276287,276287,,,,,,,,,,
,,,,3,1.828,0,12,12,460,1,bathroom with 2 sinks and a shower thremostat and towle hook on the wall,bathroom with 2 sinks and a shower thermostat is on the wall,wolfe2,103_L_hook,4,43,A3G479CZZJOSJ2,2021-02-17_18h58.54.717,MetaAwareness,2020.1.2,Win32,60,3K2CEDRACC4YL1T7RTFTXT2BSB8TMI,A3G479CZZJOSJ2,3C8HJ7UOP8XXTX00NN9D70YG5R2MZ9,OJ8C7,OJ8C7,3C8HJ7UOP8XXTX00NN9D70YG5R2MZ9,3C8HJ7UOP8XXTX00NN9D70YG5R2MZ9,276287,276287,,,,,,,,,,
,,,,3,2.711,0,13,13,464,1,a darker colored bathroom with a very large sink and mirror,"a darker colored bathroom with a very large sink and mirror, but now there isn't a wall hanger at the top right of the mirror.",wolfe2,103_R_hook,5,43,A3G479CZZJOSJ2,2021-02-17_18h58.54.717,MetaAwareness,2020.1.2,Win32,60,3K2CEDRACC4YL1T7RTFTXT2BSB8TMI,A3G479CZZJOSJ2,3C8HJ7UOP8XXTX00NN9D70YG5R2MZ9,OJ8C7,OJ8C7,3C8HJ7UOP8XXTX00NN9D70YG5R2MZ9,3C8HJ7UOP8XXTX00NN9D70YG5R2MZ9,276287,276287,,,,,,,,,,
,,,,5,1.528,0,14,14,92,1,a room with a pink desk and a wall desk with a monitor and a black mat.,an open space room with matching chairs and pink desk with a yellow wall commputer and black keyboard.,wolfe2,021_R_keyboard,5,43,A3G479CZZJOSJ2,2021-02-17_18h58.54.717,MetaAwareness,2020.1.2,Win32,60,3K2CEDRACC4YL1T7RTFTXT2BSB8TMI,A3G479CZZJOSJ2,3C8HJ7UOP8XXTX00NN9D70YG5R2MZ9,OJ8C7,OJ8C7,3C8HJ7UOP8XXTX00NN9D70YG5R2MZ9,3C8HJ7UOP8XXTX00NN9D70YG5R2MZ9,276287,276287,,,,,,,,,,
,,,,4,1.294,0,15,15,557,1,"a sunroom with large windows, white chairs, a blue and white rug, and a white table","a sunroom with large windows, white table and chairs, a blue and white rug, and",wolfe2,124_R_vase,1,43,A3G479CZZJOSJ2,2021-02-17_18h58.54.717,MetaAwareness,2020.1.2,Win32,60,3K2CEDRACC4YL1T7RTFTXT2BSB8TMI,A3G479CZZJOSJ2,3C8HJ7UOP8XXTX00NN9D70YG5R2MZ9,OJ8C7,OJ8C7,3C8HJ7UOP8XXTX00NN9D70YG5R2MZ9,3C8HJ7UOP8XXTX00NN9D70YG5R2MZ9,276287,276287,,,,,,,,,,
,,,,3,1.177,0,16,16,409,1,a bedroom with red walls and white trimming and two large closets with doors that are wooden with mirrored glass covering most of the door and a lamp in the far right corner.,a bedroom with red walls and white trimming and two large closets with doors that are wooden with mirrored glass covering most of the door.,wolfe2,090_R_lamp,1,43,A3G479CZZJOSJ2,2021-02-17_18h58.54.717,MetaAwareness,2020.1.2,Win32,60,3K2CEDRACC4YL1T7RTFTXT2BSB8TMI,A3G479CZZJOSJ2,3C8HJ7UOP8XXTX00NN9D70YG5R2MZ9,OJ8C7,OJ8C7,3C8HJ7UOP8XXTX00NN9D70YG5R2MZ9,3C8HJ7UOP8XXTX00NN9D70YG5R2MZ9,276287,276287,,,,,,,,,,
,,,,5,1.926,0,17,17,419,1,a nice hotel room with double beds and there are wall outlets on the right side and in the middle of the beds,a nice hotel room with double beds and there is a wall outlet on the right side of the beds,wolfe2,093_L_switch,5,43,A3G479CZZJOSJ2,2021-02-17_18h58.54.717,MetaAwareness,2020.1.2,Win32,60,3K2CEDRACC4YL1T7RTFTXT2BSB8TMI,A3G479CZZJOSJ2,3C8HJ7UOP8XXTX00NN9D70YG5R2MZ9,OJ8C7,OJ8C7,3C8HJ7UOP8XXTX00NN9D70YG5R2MZ9,3C8HJ7UOP8XXTX00NN9D70YG5R2MZ9,276287,276287,,,,,,,,,,
,,,,3,3.235,0,18,18,402,1,a empty salon with 4 pictures hanging on the walls,an empty salon with 3 pictures hanging on the walls,wolfe2,089_L_poster,2,43,A3G479CZZJOSJ2,2021-02-17_18h58.54.717,MetaAwareness,2020.1.2,Win32,60,3K2CEDRACC4YL1T7RTFTXT2BSB8TMI,A3G479CZZJOSJ2,3C8HJ7UOP8XXTX00NN9D70YG5R2MZ9,OJ8C7,OJ8C7,3C8HJ7UOP8XXTX00NN9D70YG5R2MZ9,3C8HJ7UOP8XXTX00NN9D70YG5R2MZ9,276287,276287,,,,,,,,,,
,,,,4,2.779,0,19,19,569,1,a living room with two wall lights,a living room with one wall light,wolfe2,127_L_light,6,43,A3G479CZZJOSJ2,2021-02-17_18h58.54.717,MetaAwareness,2020.1.2,Win32,60,3K2CEDRACC4YL1T7RTFTXT2BSB8TMI,A3G479CZZJOSJ2,3C8HJ7UOP8XXTX00NN9D70YG5R2MZ9,OJ8C7,OJ8C7,3C8HJ7UOP8XXTX00NN9D70YG5R2MZ9,3C8HJ7UOP8XXTX00NN9D70YG5R2MZ9,276287,276287,,,,,,,,,,
,,,,6,3.378,0,20,20,519,1,a modern looking home with 2 trinkets sitting on the table,a modern looking home with 1 trinket sitting on the table,wolfe2,114_R_bird,1,43,A3G479CZZJOSJ2,2021-02-17_18h58.54.717,MetaAwareness,2020.1.2,Win32,60,3K2CEDRACC4YL1T7RTFTXT2BSB8TMI,A3G479CZZJOSJ2,3C8HJ7UOP8XXTX00NN9D70YG5R2MZ9,OJ8C7,OJ8C7,3C8HJ7UOP8XXTX00NN9D70YG5R2MZ9,3C8HJ7UOP8XXTX00NN9D70YG5R2MZ9,276287,276287,,,,,,,,,,
,,,,5,2.323,0,21,21,572,1,an office space in a loft with a bookshelf flled with books next to the desk with a flower in a light green pot,an office space in a loft with a bookshelf filled with books next to the desk,wolfe2,128_L_pot,3,43,A3G479CZZJOSJ2,2021-02-17_18h58.54.717,MetaAwareness,2020.1.2,Win32,60,3K2CEDRACC4YL1T7RTFTXT2BSB8TMI,A3G479CZZJOSJ2,3C8HJ7UOP8XXTX00NN9D70YG5R2MZ9,OJ8C7,OJ8C7,3C8HJ7UOP8XXTX00NN9D70YG5R2MZ9,3C8HJ7UOP8XXTX00NN9D70YG5R2MZ9,276287,276287,,,,,,,,,,
,,,,4,2.925,0,22,22,171,1,a dinning room that only has two pictures above the cabinet.,a dinning room that has three pictures above the cabinet.,wolfe2,040_R_painting,1,43,A3G479CZZJOSJ2,2021-02-17_18h58.54.717,MetaAwareness,2020.1.2,Win32,60,3K2CEDRACC4YL1T7RTFTXT2BSB8TMI,A3G479CZZJOSJ2,3C8HJ7UOP8XXTX00NN9D70YG5R2MZ9,OJ8C7,OJ8C7,3C8HJ7UOP8XXTX00NN9D70YG5R2MZ9,3C8HJ7UOP8XXTX00NN9D70YG5R2MZ9,276287,276287,,,,,,,,,,
,,,,5,2.456,0,23,23,334,1,a large bathroom mirror with neatly folded towels on the shelves.,"a large bathroom mirror with a hanging rack next to it, and neatly folded towels in the shelving unit.",wolfe2,076_L_hook,2,43,A3G479CZZJOSJ2,2021-02-17_18h58.54.717,MetaAwareness,2020.1.2,Win32,60,3K2CEDRACC4YL1T7RTFTXT2BSB8TMI,A3G479CZZJOSJ2,3C8HJ7UOP8XXTX00NN9D70YG5R2MZ9,OJ8C7,OJ8C7,3C8HJ7UOP8XXTX00NN9D70YG5R2MZ9,3C8HJ7UOP8XXTX00NN9D70YG5R2MZ9,276287,276287,,,,,,,,,,
,,,,4,2.818,0,24,24,263,1,a dinning room table with 4 wine glasses,a dining room table with 5 wine glasses,wolfe2,061_L_glass,2,43,A3G479CZZJOSJ2,2021-02-17_18h58.54.717,MetaAwareness,2020.1.2,Win32,60,3K2CEDRACC4YL1T7RTFTXT2BSB8TMI,A3G479CZZJOSJ2,3C8HJ7UOP8XXTX00NN9D70YG5R2MZ9,OJ8C7,OJ8C7,3C8HJ7UOP8XXTX00NN9D70YG5R2MZ9,3C8HJ7UOP8XXTX00NN9D70YG5R2MZ9,276287,276287,,,,,,,,,,
,,,,5,1.772,0,25,25,383,1,a living area just off the dining area with a large desk that has a yellow package sitting on the front center of the desk,a living area just off the dining ara with a large desk,wolfe2,086_L_book,1,43,A3G479CZZJOSJ2,2021-02-17_18h58.54.717,MetaAwareness,2020.1.2,Win32,60,3K2CEDRACC4YL1T7RTFTXT2BSB8TMI,A3G479CZZJOSJ2,3C8HJ7UOP8XXTX00NN9D70YG5R2MZ9,OJ8C7,OJ8C7,3C8HJ7UOP8XXTX00NN9D70YG5R2MZ9,3C8HJ7UOP8XXTX00NN9D70YG5R2MZ9,276287,276287,,,,,,,,,,
,,,,6,2.296,0,26,26,468,1,a kitchen area with a person sitting in a chair.,a kitchen area with empty chairs.,wolfe2,104_R_bottle,1,43,A3G479CZZJOSJ2,2021-02-17_18h58.54.717,MetaAwareness,2020.1.2,Win32,60,3K2CEDRACC4YL1T7RTFTXT2BSB8TMI,A3G479CZZJOSJ2,3C8HJ7UOP8XXTX00NN9D70YG5R2MZ9,OJ8C7,OJ8C7,3C8HJ7UOP8XXTX00NN9D70YG5R2MZ9,3C8HJ7UOP8XXTX00NN9D70YG5R2MZ9,276287,276287,,,,,,,,,,
,,,,4,1.498,0,27,27,43,1,a fancy hotel room with dim lights,the relax area of professionals,wolfe2,010_R_candle,6,43,A3G479CZZJOSJ2,2021-02-17_18h58.54.717,MetaAwareness,2020.1.2,Win32,60,3K2CEDRACC4YL1T7RTFTXT2BSB8TMI,A3G479CZZJOSJ2,3C8HJ7UOP8XXTX00NN9D70YG5R2MZ9,OJ8C7,OJ8C7,3C8HJ7UOP8XXTX00NN9D70YG5R2MZ9,3C8HJ7UOP8XXTX00NN9D70YG5R2MZ9,276287,276287,,,,,,,,,,
,,,,4,7.719,0,28,28,122,1,the bathroom has a filling bathtub with a dark sink and counter with a gray towel the the left waiting to be used.,the bathroom has a filling bathtub with a dark sink and counter with 2 gray towels to the left waiting to be used.,wolfe2,028_R_vase,3,43,A3G479CZZJOSJ2,2021-02-17_18h58.54.717,MetaAwareness,2020.1.2,Win32,60,3K2CEDRACC4YL1T7RTFTXT2BSB8TMI,A3G479CZZJOSJ2,3C8HJ7UOP8XXTX00NN9D70YG5R2MZ9,OJ8C7,OJ8C7,3C8HJ7UOP8XXTX00NN9D70YG5R2MZ9,3C8HJ7UOP8XXTX00NN9D70YG5R2MZ9,276287,276287,,,,,,,,,,
,,,,5,1.833,0,29,29,555,1,"a lounge area with lumbar supported chairs, a glass table, and miniature oval shaped lamp","a lounge area with lumbar supported chairs, a glass table, and clear overview of nature from outside",wolfe2,124_L_vase,2,43,A3G479CZZJOSJ2,2021-02-17_18h58.54.717,MetaAwareness,2020.1.2,Win32,60,3K2CEDRACC4YL1T7RTFTXT2BSB8TMI,A3G479CZZJOSJ2,3C8HJ7UOP8XXTX00NN9D70YG5R2MZ9,OJ8C7,OJ8C7,3C8HJ7UOP8XXTX00NN9D70YG5R2MZ9,3C8HJ7UOP8XXTX00NN9D70YG5R2MZ9,276287,276287,,,,,,,,,,
,,,,,,,,,,,,,,,,43,A3G479CZZJOSJ2,2021-02-17_18h58.54.717,MetaAwareness,2020.1.2,Win32,60,3K2CEDRACC4YL1T7RTFTXT2BSB8TMI,A3G479CZZJOSJ2,3C8HJ7UOP8XXTX00NN9D70YG5R2MZ9,OJ8C7,OJ8C7,3C8HJ7UOP8XXTX00NN9D70YG5R2MZ9,3C8HJ7UOP8XXTX00NN9D70YG5R2MZ9,276287,276287,6,2.494,someone laying underneath a blue beach umbrella on a crowded beach,someone laying underneath a blue beach umbrella on a crowded beach,same,5,2.825,members of a marching band crossing a track that all have feather plumes at the front of their hats,a cluttered and rustic looking cafe with 10 hanging lights,different
