consent_response.keys,consent_response.rt,key_resp_2.keys,key_resp_2.rt,user_resp.keys,user_resp.rt,trials.thisRepN,trials.thisTrialN,trials.thisN,trials.thisIndex,trials.ran,image_1_text,image_2_text,database,image,number,age,worker_ID,date,expName,psychopyVersion,OS,frameRate,hitId,workerId,assignmentId,a,tp_a,b,tp_b,c,tp_c,catch_same_resp.keys,catch_same_resp.rt,image_1_text_catch_same,image_2_text_catch_same,image_catch_same,catch_different_resp.keys,catch_different_resp.rt,image_1_text_catch_different,image_2_text_catch_different,image_catch_different
space,21.9328,space,8.2981,5,8.86779,0,0,0,64,1,a modern style living room with a window and speaker in the back,a modern style living room with a window and speaker in te back with something on top of it,wolfe2,016_L_art,5,45,ACRTRQ23XH20E,2021-02-17_18h32.51.211,MetaAwareness,2020.1.2,Win32,60,3K2CEDRACC4YL1T7RTFTXT2BSB8TMI,ACRTRQ23XH20E,3TPZPLC3M1F2T7QKUW6WK3NWV1BP38,3PPT7,3PPT7,3TPZPLC3M1F2T7QKUW6WK3NWV1BP38,3TPZPLC3M1F2T7QKUW6WK3NWV1BP38,276287,276287,,,,,,,,,,
,,,,4,12.307075,0,1,1,97,1,"an outdoor living sace with a tv on a fire place, several chairs and snacks on a table.","an outdoor living space with a large tv on a fire place, chairs and snacks, and a remote on the table.",wolfe2,023_L_remote,2,45,ACRTRQ23XH20E,2021-02-17_18h32.51.211,MetaAwareness,2020.1.2,Win32,60,3K2CEDRACC4YL1T7RTFTXT2BSB8TMI,ACRTRQ23XH20E,3TPZPLC3M1F2T7QKUW6WK3NWV1BP38,3PPT7,3PPT7,3TPZPLC3M1F2T7QKUW6WK3NWV1BP38,3TPZPLC3M1F2T7QKUW6WK3NWV1BP38,276287,276287,,,,,,,,,,
,,,,4,11.145015,0,2,2,101,1,an open room with two stacks of towels under the sink,an open room with three stacks of towels under the sink,wolfe2,024_L_towels,4,45,ACRTRQ23XH20E,2021-02-17_18h32.51.211,MetaAwareness,2020.1.2,Win32,60,3K2CEDRACC4YL1T7RTFTXT2BSB8TMI,ACRTRQ23XH20E,3TPZPLC3M1F2T7QKUW6WK3NWV1BP38,3PPT7,3PPT7,3TPZPLC3M1F2T7QKUW6WK3NWV1BP38,3TPZPLC3M1F2T7QKUW6WK3NWV1BP38,276287,276287,,,,,,,,,,
,,,,2,9.190385,0,3,3,370,1,a nice living area with a patio overlooking the water and there is a wall sconce on the wall to the left of the patio door.,a nice living area with a patio overlooking the water,wolfe2,084_L_light,4,45,ACRTRQ23XH20E,2021-02-17_18h32.51.211,MetaAwareness,2020.1.2,Win32,60,3K2CEDRACC4YL1T7RTFTXT2BSB8TMI,ACRTRQ23XH20E,3TPZPLC3M1F2T7QKUW6WK3NWV1BP38,3PPT7,3PPT7,3TPZPLC3M1F2T7QKUW6WK3NWV1BP38,3TPZPLC3M1F2T7QKUW6WK3NWV1BP38,276287,276287,,,,,,,,,,
,,,,4,9.79752,0,4,4,109,1,"bathroom wit wood toilet, shower, and 4 decrative soaps","bathroom with wood toilet, shower, 4 decrative soaps under a shelf",wolfe2,026_L_rack,2,45,ACRTRQ23XH20E,2021-02-17_18h32.51.211,MetaAwareness,2020.1.2,Win32,60,3K2CEDRACC4YL1T7RTFTXT2BSB8TMI,ACRTRQ23XH20E,3TPZPLC3M1F2T7QKUW6WK3NWV1BP38,3PPT7,3PPT7,3TPZPLC3M1F2T7QKUW6WK3NWV1BP38,3TPZPLC3M1F2T7QKUW6WK3NWV1BP38,276287,276287,,,,,,,,,,
,,,,5,25.93812,0,5,5,241,1,a study with suttle colors and a fireplace on thewall,a study with suttle colors and a ready to lit fireplace on the wall,wolfe2,054_R_firewood,4,45,ACRTRQ23XH20E,2021-02-17_18h32.51.211,MetaAwareness,2020.1.2,Win32,60,3K2CEDRACC4YL1T7RTFTXT2BSB8TMI,ACRTRQ23XH20E,3TPZPLC3M1F2T7QKUW6WK3NWV1BP38,3PPT7,3PPT7,3TPZPLC3M1F2T7QKUW6WK3NWV1BP38,3TPZPLC3M1F2T7QKUW6WK3NWV1BP38,276287,276287,,,,,,,,,,
,,,,4,8.243325,0,6,6,58,1,an indoor-outdoor bar seating area with three wall-mounted lights,an indoor-outdoor bar seating area with four wall-mounted lights,wolfe2,014_R_lamp,1,45,ACRTRQ23XH20E,2021-02-17_18h32.51.211,MetaAwareness,2020.1.2,Win32,60,3K2CEDRACC4YL1T7RTFTXT2BSB8TMI,ACRTRQ23XH20E,3TPZPLC3M1F2T7QKUW6WK3NWV1BP38,3PPT7,3PPT7,3TPZPLC3M1F2T7QKUW6WK3NWV1BP38,3TPZPLC3M1F2T7QKUW6WK3NWV1BP38,276287,276287,,,,,,,,,,
,,,,4,4.82932,0,7,7,490,1,it is a picture of a closet and there is a dresser inside the closet with a blue item on top of the dresser.,"it is a picture of a closet and there is a dresser inside the closet with several items on top, but no blue items.",wolfe2,108_R_boa,4,45,ACRTRQ23XH20E,2021-02-17_18h32.51.211,MetaAwareness,2020.1.2,Win32,60,3K2CEDRACC4YL1T7RTFTXT2BSB8TMI,ACRTRQ23XH20E,3TPZPLC3M1F2T7QKUW6WK3NWV1BP38,3PPT7,3PPT7,3TPZPLC3M1F2T7QKUW6WK3NWV1BP38,3TPZPLC3M1F2T7QKUW6WK3NWV1BP38,276287,276287,,,,,,,,,,
,,,,3,7.442165,0,8,8,418,1,a bedroom with large painting on the wall with a switch between two beds,a beautiful bedroom with a large paining on the wall and missing switch between two beds,wolfe2,093_L_switch,3,45,ACRTRQ23XH20E,2021-02-17_18h32.51.211,MetaAwareness,2020.1.2,Win32,60,3K2CEDRACC4YL1T7RTFTXT2BSB8TMI,ACRTRQ23XH20E,3TPZPLC3M1F2T7QKUW6WK3NWV1BP38,3PPT7,3PPT7,3TPZPLC3M1F2T7QKUW6WK3NWV1BP38,3TPZPLC3M1F2T7QKUW6WK3NWV1BP38,276287,276287,,,,,,,,,,
,,,,3,8.795755,0,9,9,200,1,hotel room with yellow accent furniture,hotel room with yellow accent furniture. there is an ipod charger and speaker on the nightstand,wolfe2,045_L_musicdock,4,45,ACRTRQ23XH20E,2021-02-17_18h32.51.211,MetaAwareness,2020.1.2,Win32,60,3K2CEDRACC4YL1T7RTFTXT2BSB8TMI,ACRTRQ23XH20E,3TPZPLC3M1F2T7QKUW6WK3NWV1BP38,3PPT7,3PPT7,3TPZPLC3M1F2T7QKUW6WK3NWV1BP38,3TPZPLC3M1F2T7QKUW6WK3NWV1BP38,276287,276287,,,,,,,,,,
,,,,5,9.866,0,10,10,118,1,spa like bathroom with an open clear shower,bathroom with a spa like feel with a soap holder in the shower,wolfe2,027_R_soapdish,5,45,ACRTRQ23XH20E,2021-02-17_18h32.51.211,MetaAwareness,2020.1.2,Win32,60,3K2CEDRACC4YL1T7RTFTXT2BSB8TMI,ACRTRQ23XH20E,3TPZPLC3M1F2T7QKUW6WK3NWV1BP38,3PPT7,3PPT7,3TPZPLC3M1F2T7QKUW6WK3NWV1BP38,3TPZPLC3M1F2T7QKUW6WK3NWV1BP38,276287,276287,,,,,,,,,,
,,,,3,4.380675,0,11,11,334,1,a large bathroom mirror with neatly folded towels on the shelves.,"a large bathroom mirror with a hanging rack next to it, and neatly folded towels in the shelving unit.",wolfe2,076_L_hook,2,45,ACRTRQ23XH20E,2021-02-17_18h32.51.211,MetaAwareness,2020.1.2,Win32,60,3K2CEDRACC4YL1T7RTFTXT2BSB8TMI,ACRTRQ23XH20E,3TPZPLC3M1F2T7QKUW6WK3NWV1BP38,3PPT7,3PPT7,3TPZPLC3M1F2T7QKUW6WK3NWV1BP38,3TPZPLC3M1F2T7QKUW6WK3NWV1BP38,276287,276287,,,,,,,,,,
,,,,4,22.893065,0,12,12,3,1,there is nothing but green wallpaper on the bedroom wall.,there is a small mirror hanging on the green wallpaper next to the wall.,wolfe2,001_R_mirror,1,45,ACRTRQ23XH20E,2021-02-17_18h32.51.211,MetaAwareness,2020.1.2,Win32,60,3K2CEDRACC4YL1T7RTFTXT2BSB8TMI,ACRTRQ23XH20E,3TPZPLC3M1F2T7QKUW6WK3NWV1BP38,3PPT7,3PPT7,3TPZPLC3M1F2T7QKUW6WK3NWV1BP38,3TPZPLC3M1F2T7QKUW6WK3NWV1BP38,276287,276287,,,,,,,,,,
,,,,2,3.803705,0,13,13,99,1,it is a picutre of a living room or family room with lounge furniture and glass tables.,it is a picture of a living room or family room with lounge furniture and glass tables and the tv remote is on top of the closest table.,wolfe2,023_R_remote,2,45,ACRTRQ23XH20E,2021-02-17_18h32.51.211,MetaAwareness,2020.1.2,Win32,60,3K2CEDRACC4YL1T7RTFTXT2BSB8TMI,ACRTRQ23XH20E,3TPZPLC3M1F2T7QKUW6WK3NWV1BP38,3PPT7,3PPT7,3TPZPLC3M1F2T7QKUW6WK3NWV1BP38,3TPZPLC3M1F2T7QKUW6WK3NWV1BP38,276287,276287,,,,,,,,,,
,,,,2,6.609635,0,14,14,415,1,red colored washroom with several sinks and mirrors along with a smoke detector on the far wall.,red colored washroom with several sinks and mirrors,wolfe2,091_R_airfreshener,1,45,ACRTRQ23XH20E,2021-02-17_18h32.51.211,MetaAwareness,2020.1.2,Win32,60,3K2CEDRACC4YL1T7RTFTXT2BSB8TMI,ACRTRQ23XH20E,3TPZPLC3M1F2T7QKUW6WK3NWV1BP38,3PPT7,3PPT7,3TPZPLC3M1F2T7QKUW6WK3NWV1BP38,3TPZPLC3M1F2T7QKUW6WK3NWV1BP38,276287,276287,,,,,,,,,,
,,,,6,6.95049,0,15,15,262,1,a formal dining room with dark wood furniture including a table set with china and glasses.,a formal dining room with dark wood furniture including a table set with china and glasses.,wolfe2,061_L_glass,1,45,ACRTRQ23XH20E,2021-02-17_18h32.51.211,MetaAwareness,2020.1.2,Win32,60,3K2CEDRACC4YL1T7RTFTXT2BSB8TMI,ACRTRQ23XH20E,3TPZPLC3M1F2T7QKUW6WK3NWV1BP38,3PPT7,3PPT7,3TPZPLC3M1F2T7QKUW6WK3NWV1BP38,3TPZPLC3M1F2T7QKUW6WK3NWV1BP38,276287,276287,,,,,,,,,,
,,,,3,9.67252,0,16,16,433,1,"a pink themed decorated room, with a radio sitting on top of the pink desk",a pink themed decorated room with an empty pink desk,wolfe2,096_R_painting,4,45,ACRTRQ23XH20E,2021-02-17_18h32.51.211,MetaAwareness,2020.1.2,Win32,60,3K2CEDRACC4YL1T7RTFTXT2BSB8TMI,ACRTRQ23XH20E,3TPZPLC3M1F2T7QKUW6WK3NWV1BP38,3PPT7,3PPT7,3TPZPLC3M1F2T7QKUW6WK3NWV1BP38,3TPZPLC3M1F2T7QKUW6WK3NWV1BP38,276287,276287,,,,,,,,,,
,,,,5,6.235425,0,17,17,288,1,modern looking space with black white and red furniture,"modern living space with black, white and red furniture including a pole",wolfe2,066_L_vase,1,45,ACRTRQ23XH20E,2021-02-17_18h32.51.211,MetaAwareness,2020.1.2,Win32,60,3K2CEDRACC4YL1T7RTFTXT2BSB8TMI,ACRTRQ23XH20E,3TPZPLC3M1F2T7QKUW6WK3NWV1BP38,3PPT7,3PPT7,3TPZPLC3M1F2T7QKUW6WK3NWV1BP38,3TPZPLC3M1F2T7QKUW6WK3NWV1BP38,276287,276287,,,,,,,,,,
,,,,4,5.621775,0,18,18,206,1,a bedroom with a dresser with three symbols on it,a bedroom with a dresser with four symbols on it,wolfe2,047_L_handle,1,45,ACRTRQ23XH20E,2021-02-17_18h32.51.211,MetaAwareness,2020.1.2,Win32,60,3K2CEDRACC4YL1T7RTFTXT2BSB8TMI,ACRTRQ23XH20E,3TPZPLC3M1F2T7QKUW6WK3NWV1BP38,3PPT7,3PPT7,3TPZPLC3M1F2T7QKUW6WK3NWV1BP38,3TPZPLC3M1F2T7QKUW6WK3NWV1BP38,276287,276287,,,,,,,,,,
,,,,4,7.68349,0,19,19,76,1,an outside patio of a modern designed home with one outdoor light.,an outside patio of a modern designed home with two outdoor lights.,wolfe2,019_L_lamp_sized,3,45,ACRTRQ23XH20E,2021-02-17_18h32.51.211,MetaAwareness,2020.1.2,Win32,60,3K2CEDRACC4YL1T7RTFTXT2BSB8TMI,ACRTRQ23XH20E,3TPZPLC3M1F2T7QKUW6WK3NWV1BP38,3PPT7,3PPT7,3TPZPLC3M1F2T7QKUW6WK3NWV1BP38,3TPZPLC3M1F2T7QKUW6WK3NWV1BP38,276287,276287,,,,,,,,,,
,,,,4,6.179735,0,20,20,368,1,the top blue drawer in the bedroom is missing a knob,all the drawers in the bedroom have knobs,wolfe2,083_R_knob,2,45,ACRTRQ23XH20E,2021-02-17_18h32.51.211,MetaAwareness,2020.1.2,Win32,60,3K2CEDRACC4YL1T7RTFTXT2BSB8TMI,ACRTRQ23XH20E,3TPZPLC3M1F2T7QKUW6WK3NWV1BP38,3PPT7,3PPT7,3TPZPLC3M1F2T7QKUW6WK3NWV1BP38,3TPZPLC3M1F2T7QKUW6WK3NWV1BP38,276287,276287,,,,,,,,,,
,,,,3,7.353215,0,21,21,160,1,a bright and neat looking dining room with 3 plates propped up on the wall shelves.,a bright and neat looking dining room with a wall decoration next to 3 plates propped up on the wall shelves.,wolfe2,038_R_art,2,45,ACRTRQ23XH20E,2021-02-17_18h32.51.211,MetaAwareness,2020.1.2,Win32,60,3K2CEDRACC4YL1T7RTFTXT2BSB8TMI,ACRTRQ23XH20E,3TPZPLC3M1F2T7QKUW6WK3NWV1BP38,3PPT7,3PPT7,3TPZPLC3M1F2T7QKUW6WK3NWV1BP38,3TPZPLC3M1F2T7QKUW6WK3NWV1BP38,276287,276287,,,,,,,,,,
,,,,2,38.05345,0,22,22,553,1,a  room with a hot tub that has a potted plant near the right side.,a room with a hot tube that has no potted plants on the right side of the room.,wolfe2,123_R_pot,5,45,ACRTRQ23XH20E,2021-02-17_18h32.51.211,MetaAwareness,2020.1.2,Win32,60,3K2CEDRACC4YL1T7RTFTXT2BSB8TMI,ACRTRQ23XH20E,3TPZPLC3M1F2T7QKUW6WK3NWV1BP38,3PPT7,3PPT7,3TPZPLC3M1F2T7QKUW6WK3NWV1BP38,3TPZPLC3M1F2T7QKUW6WK3NWV1BP38,276287,276287,,,,,,,,,,
,,,,4,10.81733,0,23,23,222,1,an oldern looking living with a white fireplace,a feminine looking living room with a glass jar sitting above a fireplace,wolfe2,051_L_owl,1,45,ACRTRQ23XH20E,2021-02-17_18h32.51.211,MetaAwareness,2020.1.2,Win32,60,3K2CEDRACC4YL1T7RTFTXT2BSB8TMI,ACRTRQ23XH20E,3TPZPLC3M1F2T7QKUW6WK3NWV1BP38,3PPT7,3PPT7,3TPZPLC3M1F2T7QKUW6WK3NWV1BP38,3TPZPLC3M1F2T7QKUW6WK3NWV1BP38,276287,276287,,,,,,,,,,
,,,,5,6.02726,0,24,24,93,1,a white and chrome kitchen with two hanging lights,a white and chrome kitchen with three hanging lights,wolfe2,022_L_lamp,3,45,ACRTRQ23XH20E,2021-02-17_18h32.51.211,MetaAwareness,2020.1.2,Win32,60,3K2CEDRACC4YL1T7RTFTXT2BSB8TMI,ACRTRQ23XH20E,3TPZPLC3M1F2T7QKUW6WK3NWV1BP38,3PPT7,3PPT7,3TPZPLC3M1F2T7QKUW6WK3NWV1BP38,3TPZPLC3M1F2T7QKUW6WK3NWV1BP38,276287,276287,,,,,,,,,,
,,,,3,8.0019,0,25,25,462,1,bright and clean washroom with a hook on the far wall.,bright and clean washroom,wolfe2,103_R_hook,2,45,ACRTRQ23XH20E,2021-02-17_18h32.51.211,MetaAwareness,2020.1.2,Win32,60,3K2CEDRACC4YL1T7RTFTXT2BSB8TMI,ACRTRQ23XH20E,3TPZPLC3M1F2T7QKUW6WK3NWV1BP38,3PPT7,3PPT7,3TPZPLC3M1F2T7QKUW6WK3NWV1BP38,3TPZPLC3M1F2T7QKUW6WK3NWV1BP38,276287,276287,,,,,,,,,,
,,,,3,8.22416,0,26,26,355,1,there is a black cabinet in a sunny kitchen with white cabinets.,there is a cactus plant on the kitchen counter that is housed by white shelves.,wolfe2,080_R_plant,2,45,ACRTRQ23XH20E,2021-02-17_18h32.51.211,MetaAwareness,2020.1.2,Win32,60,3K2CEDRACC4YL1T7RTFTXT2BSB8TMI,ACRTRQ23XH20E,3TPZPLC3M1F2T7QKUW6WK3NWV1BP38,3PPT7,3PPT7,3TPZPLC3M1F2T7QKUW6WK3NWV1BP38,3TPZPLC3M1F2T7QKUW6WK3NWV1BP38,276287,276287,,,,,,,,,,
,,,,4,12.641475,0,27,27,40,1,a bedroom with 2 candlesticks on a nightstand where only one has a candle,a bedroom with 2 candlesticks on a nightstand where both have a candle,wolfe2,010_L_candle,3,45,ACRTRQ23XH20E,2021-02-17_18h32.51.211,MetaAwareness,2020.1.2,Win32,60,3K2CEDRACC4YL1T7RTFTXT2BSB8TMI,ACRTRQ23XH20E,3TPZPLC3M1F2T7QKUW6WK3NWV1BP38,3PPT7,3PPT7,3TPZPLC3M1F2T7QKUW6WK3NWV1BP38,3TPZPLC3M1F2T7QKUW6WK3NWV1BP38,276287,276287,,,,,,,,,,
,,,,3,4.52974,0,28,28,558,1,a lovely room with an enticing view of nature.  a small piece of art is sitting on the floor.,"the view is not distracted by anything.  there is a small corner of the carpet but otherwise, the view is very appealing.",wolfe2,124_R_vase,2,45,ACRTRQ23XH20E,2021-02-17_18h32.51.211,MetaAwareness,2020.1.2,Win32,60,3K2CEDRACC4YL1T7RTFTXT2BSB8TMI,ACRTRQ23XH20E,3TPZPLC3M1F2T7QKUW6WK3NWV1BP38,3PPT7,3PPT7,3TPZPLC3M1F2T7QKUW6WK3NWV1BP38,3TPZPLC3M1F2T7QKUW6WK3NWV1BP38,276287,276287,,,,,,,,,,
,,,,5,3.841275,0,29,29,51,1,living space with one white hanging light,living space with two white hanging lights,wolfe2,013_L_lamp,6,45,ACRTRQ23XH20E,2021-02-17_18h32.51.211,MetaAwareness,2020.1.2,Win32,60,3K2CEDRACC4YL1T7RTFTXT2BSB8TMI,ACRTRQ23XH20E,3TPZPLC3M1F2T7QKUW6WK3NWV1BP38,3PPT7,3PPT7,3TPZPLC3M1F2T7QKUW6WK3NWV1BP38,3TPZPLC3M1F2T7QKUW6WK3NWV1BP38,276287,276287,,,,,,,,,,
,,,,,,,,,,,,,,,,45,ACRTRQ23XH20E,2021-02-17_18h32.51.211,MetaAwareness,2020.1.2,Win32,60,3K2CEDRACC4YL1T7RTFTXT2BSB8TMI,ACRTRQ23XH20E,3TPZPLC3M1F2T7QKUW6WK3NWV1BP38,3PPT7,3PPT7,3TPZPLC3M1F2T7QKUW6WK3NWV1BP38,3TPZPLC3M1F2T7QKUW6WK3NWV1BP38,276287,276287,6,6.86119,someone laying underneath a blue beach umbrella on a crowded beach,someone laying underneath a blue beach umbrella on a crowded beach,same,1,4.75855,members of a marching band crossing a track that all have feather plumes at the front of their hats,a cluttered and rustic looking cafe with 10 hanging lights,different
