consent_response.keys,consent_response.rt,key_resp_2.keys,key_resp_2.rt,user_resp.keys,user_resp.rt,trials.thisRepN,trials.thisTrialN,trials.thisN,trials.thisIndex,trials.ran,image_1_text,image_2_text,database,image,number,age,worker_ID,date,expName,psychopyVersion,OS,frameRate,hitId,workerId,assignmentId,a,tp_a,b,tp_b,c,tp_c,catch_same_resp.keys,catch_same_resp.rt,image_1_text_catch_same,image_2_text_catch_same,image_catch_same,catch_different_resp.keys,catch_different_resp.rt,image_1_text_catch_different,image_2_text_catch_different,image_catch_different
space,10.995,space,6.465,5,15.467,0,0,0,544,1,a modern bedroom with a car figurine on the nightstand next to the lamp.,a modern bedroom with nothing on the nightstand next to the lamp.,wolfe2,121_L_car,4,42,AEWPAZBYA7XE,2021-02-17_17h29.15.508,MetaAwareness,2020.1.2,Win32,60,3K8CQCU3KF4WV0I1YZZ4XSYA1V1NW3,AEWPAZBYA7XE,3NAPMVF0ZXIO2JQ1UAYA17RJPTB72E,0MAN7,0MAN7,3NAPMVF0ZXIO2JQ1UAYA17RJPTB72E,3NAPMVF0ZXIO2JQ1UAYA17RJPTB72E,276287,276287,,,,,,,,,,
,,,,4,10.773,0,1,1,411,1,a clean and red-themed bedroom with a vase in the corner,a clean and red-themed bedroom with no vase in the corner,wolfe2,090_R_lamp,5,42,AEWPAZBYA7XE,2021-02-17_17h29.15.508,MetaAwareness,2020.1.2,Win32,60,3K8CQCU3KF4WV0I1YZZ4XSYA1V1NW3,AEWPAZBYA7XE,3NAPMVF0ZXIO2JQ1UAYA17RJPTB72E,0MAN7,0MAN7,3NAPMVF0ZXIO2JQ1UAYA17RJPTB72E,3NAPMVF0ZXIO2JQ1UAYA17RJPTB72E,276287,276287,,,,,,,,,,
,,,,5,5.954,0,2,2,347,1,a black bathroom vanity with one faucet handle under a white-framed mirror,a black bathroom vanity with two faucet handles under a white-framed mirror,wolfe2,078_L_faucet,2,42,AEWPAZBYA7XE,2021-02-17_17h29.15.508,MetaAwareness,2020.1.2,Win32,60,3K8CQCU3KF4WV0I1YZZ4XSYA1V1NW3,AEWPAZBYA7XE,3NAPMVF0ZXIO2JQ1UAYA17RJPTB72E,0MAN7,0MAN7,3NAPMVF0ZXIO2JQ1UAYA17RJPTB72E,3NAPMVF0ZXIO2JQ1UAYA17RJPTB72E,276287,276287,,,,,,,,,,
,,,,5,6.902,0,3,3,177,1,a brown kitchen that has an empty fruitbowl on the counter by the sink,a brown kitchen that has a fruitbowl containing two oranges on the counter by the sink,wolfe2,041_R_fruit,4,42,AEWPAZBYA7XE,2021-02-17_17h29.15.508,MetaAwareness,2020.1.2,Win32,60,3K8CQCU3KF4WV0I1YZZ4XSYA1V1NW3,AEWPAZBYA7XE,3NAPMVF0ZXIO2JQ1UAYA17RJPTB72E,0MAN7,0MAN7,3NAPMVF0ZXIO2JQ1UAYA17RJPTB72E,3NAPMVF0ZXIO2JQ1UAYA17RJPTB72E,276287,276287,,,,,,,,,,
,,,,4,8.363,0,4,4,395,1,several chairs lined up in a hair salon with a vent above a painting on the wall,several chairs lined up in a hair salon with a painitng on the wall and nothing above it.,wolfe2,088_L_clock,2,42,AEWPAZBYA7XE,2021-02-17_17h29.15.508,MetaAwareness,2020.1.2,Win32,60,3K8CQCU3KF4WV0I1YZZ4XSYA1V1NW3,AEWPAZBYA7XE,3NAPMVF0ZXIO2JQ1UAYA17RJPTB72E,0MAN7,0MAN7,3NAPMVF0ZXIO2JQ1UAYA17RJPTB72E,3NAPMVF0ZXIO2JQ1UAYA17RJPTB72E,276287,276287,,,,,,,,,,
,,,,4,9.388,0,5,5,153,1,a red kitchen with tiled floor with one bowl on a shelf underneath a cabinet door,a red kitchen with tiled floor with two bowls on a shelf underneath a cabinet door,wolfe2,036_R_bowl,3,42,AEWPAZBYA7XE,2021-02-17_17h29.15.508,MetaAwareness,2020.1.2,Win32,60,3K8CQCU3KF4WV0I1YZZ4XSYA1V1NW3,AEWPAZBYA7XE,3NAPMVF0ZXIO2JQ1UAYA17RJPTB72E,0MAN7,0MAN7,3NAPMVF0ZXIO2JQ1UAYA17RJPTB72E,3NAPMVF0ZXIO2JQ1UAYA17RJPTB72E,276287,276287,,,,,,,,,,
,,,,6,12.846,0,6,6,452,1,lighted shelves for glasses and stemware are functional and elegant .,lighted shelves for glasses and stemware are functional and elegant.,wolfe2,101_L_cup,3,42,AEWPAZBYA7XE,2021-02-17_17h29.15.508,MetaAwareness,2020.1.2,Win32,60,3K8CQCU3KF4WV0I1YZZ4XSYA1V1NW3,AEWPAZBYA7XE,3NAPMVF0ZXIO2JQ1UAYA17RJPTB72E,0MAN7,0MAN7,3NAPMVF0ZXIO2JQ1UAYA17RJPTB72E,3NAPMVF0ZXIO2JQ1UAYA17RJPTB72E,276287,276287,,,,,,,,,,
,,,,5,8.012,0,7,7,223,1,a mantle with a blank spot,a mantile with a decorative bird,wolfe2,051_L_owl,2,42,AEWPAZBYA7XE,2021-02-17_17h29.15.508,MetaAwareness,2020.1.2,Win32,60,3K8CQCU3KF4WV0I1YZZ4XSYA1V1NW3,AEWPAZBYA7XE,3NAPMVF0ZXIO2JQ1UAYA17RJPTB72E,0MAN7,0MAN7,3NAPMVF0ZXIO2JQ1UAYA17RJPTB72E,3NAPMVF0ZXIO2JQ1UAYA17RJPTB72E,276287,276287,,,,,,,,,,
,,,,5,4.44,0,8,8,101,1,an open room with two stacks of towels under the sink,an open room with three stacks of towels under the sink,wolfe2,024_L_towels,4,42,AEWPAZBYA7XE,2021-02-17_17h29.15.508,MetaAwareness,2020.1.2,Win32,60,3K8CQCU3KF4WV0I1YZZ4XSYA1V1NW3,AEWPAZBYA7XE,3NAPMVF0ZXIO2JQ1UAYA17RJPTB72E,0MAN7,0MAN7,3NAPMVF0ZXIO2JQ1UAYA17RJPTB72E,3NAPMVF0ZXIO2JQ1UAYA17RJPTB72E,276287,276287,,,,,,,,,,
,,,,4,6.676,0,9,9,309,1,a living room nothing on the lamp table,i living room with flower plant on the lamp table,wolfe2,071_R_art,3,42,AEWPAZBYA7XE,2021-02-17_17h29.15.508,MetaAwareness,2020.1.2,Win32,60,3K8CQCU3KF4WV0I1YZZ4XSYA1V1NW3,AEWPAZBYA7XE,3NAPMVF0ZXIO2JQ1UAYA17RJPTB72E,0MAN7,0MAN7,3NAPMVF0ZXIO2JQ1UAYA17RJPTB72E,3NAPMVF0ZXIO2JQ1UAYA17RJPTB72E,276287,276287,,,,,,,,,,
,,,,4,8.392,0,10,10,505,1,"a bright, sunny living area with a short, stout vase on the floor near a potted plant.","a bright, sunny living area with no vase sitting next to a potted plant.",wolfe2,111_R_pot,3,42,AEWPAZBYA7XE,2021-02-17_17h29.15.508,MetaAwareness,2020.1.2,Win32,60,3K8CQCU3KF4WV0I1YZZ4XSYA1V1NW3,AEWPAZBYA7XE,3NAPMVF0ZXIO2JQ1UAYA17RJPTB72E,0MAN7,0MAN7,3NAPMVF0ZXIO2JQ1UAYA17RJPTB72E,3NAPMVF0ZXIO2JQ1UAYA17RJPTB72E,276287,276287,,,,,,,,,,
,,,,3,6.169,0,11,11,468,1,a kitchen area with a person sitting in a chair.,a kitchen area with empty chairs.,wolfe2,104_R_bottle,1,42,AEWPAZBYA7XE,2021-02-17_17h29.15.508,MetaAwareness,2020.1.2,Win32,60,3K8CQCU3KF4WV0I1YZZ4XSYA1V1NW3,AEWPAZBYA7XE,3NAPMVF0ZXIO2JQ1UAYA17RJPTB72E,0MAN7,0MAN7,3NAPMVF0ZXIO2JQ1UAYA17RJPTB72E,3NAPMVF0ZXIO2JQ1UAYA17RJPTB72E,276287,276287,,,,,,,,,,
,,,,4,5.212,0,12,12,52,1,there is only one chanlier  in the room,there is two chanlier in the room,wolfe2,013_R_lamp,1,42,AEWPAZBYA7XE,2021-02-17_17h29.15.508,MetaAwareness,2020.1.2,Win32,60,3K8CQCU3KF4WV0I1YZZ4XSYA1V1NW3,AEWPAZBYA7XE,3NAPMVF0ZXIO2JQ1UAYA17RJPTB72E,0MAN7,0MAN7,3NAPMVF0ZXIO2JQ1UAYA17RJPTB72E,3NAPMVF0ZXIO2JQ1UAYA17RJPTB72E,276287,276287,,,,,,,,,,
,,,,5,5.273,0,13,13,58,1,an indoor-outdoor bar seating area with three wall-mounted lights,an indoor-outdoor bar seating area with four wall-mounted lights,wolfe2,014_R_lamp,1,42,AEWPAZBYA7XE,2021-02-17_17h29.15.508,MetaAwareness,2020.1.2,Win32,60,3K8CQCU3KF4WV0I1YZZ4XSYA1V1NW3,AEWPAZBYA7XE,3NAPMVF0ZXIO2JQ1UAYA17RJPTB72E,0MAN7,0MAN7,3NAPMVF0ZXIO2JQ1UAYA17RJPTB72E,3NAPMVF0ZXIO2JQ1UAYA17RJPTB72E,276287,276287,,,,,,,,,,
,,,,5,4.918,0,14,14,94,1,"a large, well furnished kitchen with two hanging lights","a large, well furnished kitchen with trhee hanging lights",wolfe2,022_R_lamp,4,42,AEWPAZBYA7XE,2021-02-17_17h29.15.508,MetaAwareness,2020.1.2,Win32,60,3K8CQCU3KF4WV0I1YZZ4XSYA1V1NW3,AEWPAZBYA7XE,3NAPMVF0ZXIO2JQ1UAYA17RJPTB72E,0MAN7,0MAN7,3NAPMVF0ZXIO2JQ1UAYA17RJPTB72E,3NAPMVF0ZXIO2JQ1UAYA17RJPTB72E,276287,276287,,,,,,,,,,
,,,,5,11.293,0,15,15,103,1,"a bathroom with a large mirror and two sinks, with a basket and four stacked towels under the sinks",a bathroom with a large mirror and two sinks with a basket and nine stacked towels under the sinks,wolfe2,024_R_towels,4,42,AEWPAZBYA7XE,2021-02-17_17h29.15.508,MetaAwareness,2020.1.2,Win32,60,3K8CQCU3KF4WV0I1YZZ4XSYA1V1NW3,AEWPAZBYA7XE,3NAPMVF0ZXIO2JQ1UAYA17RJPTB72E,0MAN7,0MAN7,3NAPMVF0ZXIO2JQ1UAYA17RJPTB72E,3NAPMVF0ZXIO2JQ1UAYA17RJPTB72E,276287,276287,,,,,,,,,,
,,,,5,5.559,0,16,16,563,1,a living room with an unknown item on the floor near the window.,a living room with nothing on the floor or near the windows.,wolfe2,125_R_sofa,2,42,AEWPAZBYA7XE,2021-02-17_17h29.15.508,MetaAwareness,2020.1.2,Win32,60,3K8CQCU3KF4WV0I1YZZ4XSYA1V1NW3,AEWPAZBYA7XE,3NAPMVF0ZXIO2JQ1UAYA17RJPTB72E,0MAN7,0MAN7,3NAPMVF0ZXIO2JQ1UAYA17RJPTB72E,3NAPMVF0ZXIO2JQ1UAYA17RJPTB72E,276287,276287,,,,,,,,,,
,,,,5,14.488,0,17,17,429,1,"this room appears to be for a teen girl, the bed or lounger appears quite comfortable, and the room's color palette of cream and pink goes nicely together.",this teen girls room is very fashionable and the lovely pink desk compliments the cream of the furniture. on top of the pink desk appears to be a makeup case or something to that effect.,wolfe2,096_L_painting,1,42,AEWPAZBYA7XE,2021-02-17_17h29.15.508,MetaAwareness,2020.1.2,Win32,60,3K8CQCU3KF4WV0I1YZZ4XSYA1V1NW3,AEWPAZBYA7XE,3NAPMVF0ZXIO2JQ1UAYA17RJPTB72E,0MAN7,0MAN7,3NAPMVF0ZXIO2JQ1UAYA17RJPTB72E,3NAPMVF0ZXIO2JQ1UAYA17RJPTB72E,276287,276287,,,,,,,,,,
,,,,5,4.926,0,18,18,473,1,a bedroom with laundry and a hat on the bed,a bedroom with laundry on the bed,wolfe2,105_R_hat,3,42,AEWPAZBYA7XE,2021-02-17_17h29.15.508,MetaAwareness,2020.1.2,Win32,60,3K8CQCU3KF4WV0I1YZZ4XSYA1V1NW3,AEWPAZBYA7XE,3NAPMVF0ZXIO2JQ1UAYA17RJPTB72E,0MAN7,0MAN7,3NAPMVF0ZXIO2JQ1UAYA17RJPTB72E,3NAPMVF0ZXIO2JQ1UAYA17RJPTB72E,276287,276287,,,,,,,,,,
,,,,5,3.469,0,19,19,85,1,a clean looking office area with 2 circle patterns on the wall.,a clean looking office area with 3 circle patterns on the wall.,wolfe2,020_R_walldeco,2,42,AEWPAZBYA7XE,2021-02-17_17h29.15.508,MetaAwareness,2020.1.2,Win32,60,3K8CQCU3KF4WV0I1YZZ4XSYA1V1NW3,AEWPAZBYA7XE,3NAPMVF0ZXIO2JQ1UAYA17RJPTB72E,0MAN7,0MAN7,3NAPMVF0ZXIO2JQ1UAYA17RJPTB72E,3NAPMVF0ZXIO2JQ1UAYA17RJPTB72E,276287,276287,,,,,,,,,,
,,,,5,4.285,0,20,20,538,1,in a living room there is are three objects on a shelf above the fireplace,in a living room there are two objects on a shelf above the fireplace,wolfe2,120_L_art,1,42,AEWPAZBYA7XE,2021-02-17_17h29.15.508,MetaAwareness,2020.1.2,Win32,60,3K8CQCU3KF4WV0I1YZZ4XSYA1V1NW3,AEWPAZBYA7XE,3NAPMVF0ZXIO2JQ1UAYA17RJPTB72E,0MAN7,0MAN7,3NAPMVF0ZXIO2JQ1UAYA17RJPTB72E,3NAPMVF0ZXIO2JQ1UAYA17RJPTB72E,276287,276287,,,,,,,,,,
,,,,4,8.478,0,21,21,370,1,a nice living area with a patio overlooking the water and there is a wall sconce on the wall to the left of the patio door.,a nice living area with a patio overlooking the water,wolfe2,084_L_light,4,42,AEWPAZBYA7XE,2021-02-17_17h29.15.508,MetaAwareness,2020.1.2,Win32,60,3K8CQCU3KF4WV0I1YZZ4XSYA1V1NW3,AEWPAZBYA7XE,3NAPMVF0ZXIO2JQ1UAYA17RJPTB72E,0MAN7,0MAN7,3NAPMVF0ZXIO2JQ1UAYA17RJPTB72E,3NAPMVF0ZXIO2JQ1UAYA17RJPTB72E,276287,276287,,,,,,,,,,
,,,,5,6.938,0,22,22,47,1,"a bathroom with double sinks, a large window and a white tub in the middle.","a bathroom with double sinks, a large window and white tub with a drain in the middle.",wolfe2,012_R_tubaccesory,1,42,AEWPAZBYA7XE,2021-02-17_17h29.15.508,MetaAwareness,2020.1.2,Win32,60,3K8CQCU3KF4WV0I1YZZ4XSYA1V1NW3,AEWPAZBYA7XE,3NAPMVF0ZXIO2JQ1UAYA17RJPTB72E,0MAN7,0MAN7,3NAPMVF0ZXIO2JQ1UAYA17RJPTB72E,3NAPMVF0ZXIO2JQ1UAYA17RJPTB72E,276287,276287,,,,,,,,,,
,,,,3,10.721,0,23,23,249,1,a living room with a white couch with shite cushions on it.,"a living room with a large white couch, with white cushions and a brown blanket",wolfe2,056_R_comforter,4,42,AEWPAZBYA7XE,2021-02-17_17h29.15.508,MetaAwareness,2020.1.2,Win32,60,3K8CQCU3KF4WV0I1YZZ4XSYA1V1NW3,AEWPAZBYA7XE,3NAPMVF0ZXIO2JQ1UAYA17RJPTB72E,0MAN7,0MAN7,3NAPMVF0ZXIO2JQ1UAYA17RJPTB72E,3NAPMVF0ZXIO2JQ1UAYA17RJPTB72E,276287,276287,,,,,,,,,,
,,,,5,7.776,0,24,24,70,1,a living room area with a fireplace with no wood inside,a living room area with a fireplace with wood inside,wolfe2,017_L_wood,3,42,AEWPAZBYA7XE,2021-02-17_17h29.15.508,MetaAwareness,2020.1.2,Win32,60,3K8CQCU3KF4WV0I1YZZ4XSYA1V1NW3,AEWPAZBYA7XE,3NAPMVF0ZXIO2JQ1UAYA17RJPTB72E,0MAN7,0MAN7,3NAPMVF0ZXIO2JQ1UAYA17RJPTB72E,3NAPMVF0ZXIO2JQ1UAYA17RJPTB72E,276287,276287,,,,,,,,,,
,,,,5,3.051,0,25,25,172,1,a wall with two wall frames,a wall with three wall frames,wolfe2,040_R_painting,3,42,AEWPAZBYA7XE,2021-02-17_17h29.15.508,MetaAwareness,2020.1.2,Win32,60,3K8CQCU3KF4WV0I1YZZ4XSYA1V1NW3,AEWPAZBYA7XE,3NAPMVF0ZXIO2JQ1UAYA17RJPTB72E,0MAN7,0MAN7,3NAPMVF0ZXIO2JQ1UAYA17RJPTB72E,3NAPMVF0ZXIO2JQ1UAYA17RJPTB72E,276287,276287,,,,,,,,,,
,,,,1,11.787,0,26,26,92,1,a room with a pink desk and a wall desk with a monitor and a black mat.,an open space room with matching chairs and pink desk with a yellow wall commputer and black keyboard.,wolfe2,021_R_keyboard,5,42,AEWPAZBYA7XE,2021-02-17_17h29.15.508,MetaAwareness,2020.1.2,Win32,60,3K8CQCU3KF4WV0I1YZZ4XSYA1V1NW3,AEWPAZBYA7XE,3NAPMVF0ZXIO2JQ1UAYA17RJPTB72E,0MAN7,0MAN7,3NAPMVF0ZXIO2JQ1UAYA17RJPTB72E,3NAPMVF0ZXIO2JQ1UAYA17RJPTB72E,276287,276287,,,,,,,,,,
,,,,5,10.338,0,27,27,454,1,"a bathroom containing a toilet, sink, and cabinet beside the sink with three cups on the third shelf up","a bathroom containing a toilet, sink, and cabinet beside the sink with two cups on the third shelf up",wolfe2,101_R_cup,5,42,AEWPAZBYA7XE,2021-02-17_17h29.15.508,MetaAwareness,2020.1.2,Win32,60,3K8CQCU3KF4WV0I1YZZ4XSYA1V1NW3,AEWPAZBYA7XE,3NAPMVF0ZXIO2JQ1UAYA17RJPTB72E,0MAN7,0MAN7,3NAPMVF0ZXIO2JQ1UAYA17RJPTB72E,3NAPMVF0ZXIO2JQ1UAYA17RJPTB72E,276287,276287,,,,,,,,,,
,,,,5,6.88,0,28,28,460,1,bathroom with 2 sinks and a shower thremostat and towle hook on the wall,bathroom with 2 sinks and a shower thermostat is on the wall,wolfe2,103_L_hook,4,42,AEWPAZBYA7XE,2021-02-17_17h29.15.508,MetaAwareness,2020.1.2,Win32,60,3K8CQCU3KF4WV0I1YZZ4XSYA1V1NW3,AEWPAZBYA7XE,3NAPMVF0ZXIO2JQ1UAYA17RJPTB72E,0MAN7,0MAN7,3NAPMVF0ZXIO2JQ1UAYA17RJPTB72E,3NAPMVF0ZXIO2JQ1UAYA17RJPTB72E,276287,276287,,,,,,,,,,
,,,,5,6.378,0,29,29,131,1,a bathroom with seperate sinks.,"a bathroom with seperate sinks, the sinks are ajoined by a small counter top and drawer",wolfe2,030_R_drawer,3,42,AEWPAZBYA7XE,2021-02-17_17h29.15.508,MetaAwareness,2020.1.2,Win32,60,3K8CQCU3KF4WV0I1YZZ4XSYA1V1NW3,AEWPAZBYA7XE,3NAPMVF0ZXIO2JQ1UAYA17RJPTB72E,0MAN7,0MAN7,3NAPMVF0ZXIO2JQ1UAYA17RJPTB72E,3NAPMVF0ZXIO2JQ1UAYA17RJPTB72E,276287,276287,,,,,,,,,,
,,,,,,,,,,,,,,,,42,AEWPAZBYA7XE,2021-02-17_17h29.15.508,MetaAwareness,2020.1.2,Win32,60,3K8CQCU3KF4WV0I1YZZ4XSYA1V1NW3,AEWPAZBYA7XE,3NAPMVF0ZXIO2JQ1UAYA17RJPTB72E,0MAN7,0MAN7,3NAPMVF0ZXIO2JQ1UAYA17RJPTB72E,3NAPMVF0ZXIO2JQ1UAYA17RJPTB72E,276287,276287,6,7.786,someone laying underneath a blue beach umbrella on a crowded beach,someone laying underneath a blue beach umbrella on a crowded beach,same,1,9.904,members of a marching band crossing a track that all have feather plumes at the front of their hats,a cluttered and rustic looking cafe with 10 hanging lights,different
