consent_response.keys,consent_response.rt,key_resp_2.keys,key_resp_2.rt,user_resp.keys,user_resp.rt,trials.thisRepN,trials.thisTrialN,trials.thisN,trials.thisIndex,trials.ran,image_1_text,image_2_text,database,image,number,age,worker_ID,date,expName,psychopyVersion,OS,frameRate,hitId,workerId,assignmentId,a,tp_a,b,tp_b,c,tp_c,catch_same_resp.keys,catch_same_resp.rt,image_1_text_catch_same,image_2_text_catch_same,image_catch_same,catch_different_resp.keys,catch_different_resp.rt,image_1_text_catch_different,image_2_text_catch_different,image_catch_different
space,40.09034,space,18.09287,4,15.645325,0,0,0,36,1,an yellow color books are visible,an red color books are visible.,ma,23199105,5,45,A11442N7K4VIP8,2021-01-09_07h48.58.183,MetaAwareness,2020.1.2,Win32,60,33J5JKFMK71K7ZT547GJWPII6TEQ31,A11442N7K4VIP8,3LEIZ60CDK2IMDH6YE582ESW1339ZN,CZEL9,CZEL9,3LEIZ60CDK2IMDH6YE582ESW1339ZN,3LEIZ60CDK2IMDH6YE582ESW1339ZN,268119,268119,,,,,,,,,,
,,,,5,5.20372,0,1,1,108,1,"a wooden cutting board with jelly beans, earrings, and small colorful trays and heart shaped potatoes, rocks, and a mirror and necklace and a orange heart","a wooden cutting board with jelly beans, earrings, and smlall colorful trays and heart shaped potatoes, rocks, a mirror, necklace, and a orange heart",ma,75958241,2,45,A11442N7K4VIP8,2021-01-09_07h48.58.183,MetaAwareness,2020.1.2,Win32,60,33J5JKFMK71K7ZT547GJWPII6TEQ31,A11442N7K4VIP8,3LEIZ60CDK2IMDH6YE582ESW1339ZN,CZEL9,CZEL9,3LEIZ60CDK2IMDH6YE582ESW1339ZN,3LEIZ60CDK2IMDH6YE582ESW1339ZN,268119,268119,,,,,,,,,,
,,,,4,5.89908,0,2,2,90,1,a black and white checker pattern displaying cards that have brands and addresses. one such card has a web url a the bottom of the card.,a black and white checker pattern displaying cards that have brands and addresses. one card has a web url placed directly under the phone number.,ma,69128765,5,45,A11442N7K4VIP8,2021-01-09_07h48.58.183,MetaAwareness,2020.1.2,Win32,60,33J5JKFMK71K7ZT547GJWPII6TEQ31,A11442N7K4VIP8,3LEIZ60CDK2IMDH6YE582ESW1339ZN,CZEL9,CZEL9,3LEIZ60CDK2IMDH6YE582ESW1339ZN,3LEIZ60CDK2IMDH6YE582ESW1339ZN,268119,268119,,,,,,,,,,
,,,,5,5.0187,0,3,3,115,1,a decoratve band in green,a decorative band in brown,ma,77793328,6,45,A11442N7K4VIP8,2021-01-09_07h48.58.183,MetaAwareness,2020.1.2,Win32,60,33J5JKFMK71K7ZT547GJWPII6TEQ31,A11442N7K4VIP8,3LEIZ60CDK2IMDH6YE582ESW1339ZN,CZEL9,CZEL9,3LEIZ60CDK2IMDH6YE582ESW1339ZN,3LEIZ60CDK2IMDH6YE582ESW1339ZN,268119,268119,,,,,,,,,,
,,,,4,3.87692,0,4,4,43,1,elephant keychains laying on a table cloth with french writing,elephant keychains laying on a tablecloth with the french word des emphasized,ma,25107991,6,45,A11442N7K4VIP8,2021-01-09_07h48.58.183,MetaAwareness,2020.1.2,Win32,60,33J5JKFMK71K7ZT547GJWPII6TEQ31,A11442N7K4VIP8,3LEIZ60CDK2IMDH6YE582ESW1339ZN,CZEL9,CZEL9,3LEIZ60CDK2IMDH6YE582ESW1339ZN,3LEIZ60CDK2IMDH6YE582ESW1339ZN,268119,268119,,,,,,,,,,
,,,,5,5.997985,0,5,5,145,1,an envelope with a stamp of an upside down gnome sits with some crafting materials,an envelope with a stamp of a right side up gnome sits with some crafting materials,ma,8974554,5,45,A11442N7K4VIP8,2021-01-09_07h48.58.183,MetaAwareness,2020.1.2,Win32,60,33J5JKFMK71K7ZT547GJWPII6TEQ31,A11442N7K4VIP8,3LEIZ60CDK2IMDH6YE582ESW1339ZN,CZEL9,CZEL9,3LEIZ60CDK2IMDH6YE582ESW1339ZN,3LEIZ60CDK2IMDH6YE582ESW1339ZN,268119,268119,,,,,,,,,,
,,,,5,3.75436,0,6,6,16,1,a quilt with autum colors and three pumpkins.,a quilt with autum colors and two pumpkins.,ma,1383096,3,45,A11442N7K4VIP8,2021-01-09_07h48.58.183,MetaAwareness,2020.1.2,Win32,60,33J5JKFMK71K7ZT547GJWPII6TEQ31,A11442N7K4VIP8,3LEIZ60CDK2IMDH6YE582ESW1339ZN,CZEL9,CZEL9,3LEIZ60CDK2IMDH6YE582ESW1339ZN,3LEIZ60CDK2IMDH6YE582ESW1339ZN,268119,268119,,,,,,,,,,
,,,,4,3.07003,0,7,7,106,1,a reindeer cookie on a plate,a reindeer cookie amang other christmas cookies,ma,75081153,2,45,A11442N7K4VIP8,2021-01-09_07h48.58.183,MetaAwareness,2020.1.2,Win32,60,33J5JKFMK71K7ZT547GJWPII6TEQ31,A11442N7K4VIP8,3LEIZ60CDK2IMDH6YE582ESW1339ZN,CZEL9,CZEL9,3LEIZ60CDK2IMDH6YE582ESW1339ZN,3LEIZ60CDK2IMDH6YE582ESW1339ZN,268119,268119,,,,,,,,,,
,,,,5,1.69479,0,8,8,104,1,garden seat with six decorative emblems laid upon it in addition to a pillow featuring a printed butterly and strawberry in its upper left corner,garden seat with six decorative emblems laid upon it in addition to a pillow featuring two printed strawberries in its upper left corner,ma,73637203,8,45,A11442N7K4VIP8,2021-01-09_07h48.58.183,MetaAwareness,2020.1.2,Win32,60,33J5JKFMK71K7ZT547GJWPII6TEQ31,A11442N7K4VIP8,3LEIZ60CDK2IMDH6YE582ESW1339ZN,CZEL9,CZEL9,3LEIZ60CDK2IMDH6YE582ESW1339ZN,3LEIZ60CDK2IMDH6YE582ESW1339ZN,268119,268119,,,,,,,,,,
,,,,5,1.42994,0,9,9,75,1,pumpkins and coffee theres a man sitting in the back with a blue shirt the pumpkin with the yellow box has its nose slightly lowered than the other picture.,pumpkins and coffee theres a man sitting in the back with a blue sihrt the pumpkin with the yellow box has its nose slightly above the other picture.,ma,55174490,1,45,A11442N7K4VIP8,2021-01-09_07h48.58.183,MetaAwareness,2020.1.2,Win32,60,33J5JKFMK71K7ZT547GJWPII6TEQ31,A11442N7K4VIP8,3LEIZ60CDK2IMDH6YE582ESW1339ZN,CZEL9,CZEL9,3LEIZ60CDK2IMDH6YE582ESW1339ZN,3LEIZ60CDK2IMDH6YE582ESW1339ZN,268119,268119,,,,,,,,,,
,,,,5,3.224695,0,10,10,128,1,"a circuit board sits on a table, and there is a long metal piece in the middle bottom of it.","a circuit board sits on a table, and there is a short metal piece in the middle bottom of it, closer to the left side.",ma,8197559,5,45,A11442N7K4VIP8,2021-01-09_07h48.58.183,MetaAwareness,2020.1.2,Win32,60,33J5JKFMK71K7ZT547GJWPII6TEQ31,A11442N7K4VIP8,3LEIZ60CDK2IMDH6YE582ESW1339ZN,CZEL9,CZEL9,3LEIZ60CDK2IMDH6YE582ESW1339ZN,3LEIZ60CDK2IMDH6YE582ESW1339ZN,268119,268119,,,,,,,,,,
,,,,4,3.0691,0,11,11,54,1,a picture of a woodcarving desk featuring a piece with waves in the center,a picture of a woodcarving desk featuring a new piece,ma,42429798,1,45,A11442N7K4VIP8,2021-01-09_07h48.58.183,MetaAwareness,2020.1.2,Win32,60,33J5JKFMK71K7ZT547GJWPII6TEQ31,A11442N7K4VIP8,3LEIZ60CDK2IMDH6YE582ESW1339ZN,CZEL9,CZEL9,3LEIZ60CDK2IMDH6YE582ESW1339ZN,3LEIZ60CDK2IMDH6YE582ESW1339ZN,268119,268119,,,,,,,,,,
,,,,4,4.58223,0,12,12,60,1,a pantry area in a home kitchen,a small container in a pantry. i'm guessing it contains tea,ma,46475259,1,45,A11442N7K4VIP8,2021-01-09_07h48.58.183,MetaAwareness,2020.1.2,Win32,60,33J5JKFMK71K7ZT547GJWPII6TEQ31,A11442N7K4VIP8,3LEIZ60CDK2IMDH6YE582ESW1339ZN,CZEL9,CZEL9,3LEIZ60CDK2IMDH6YE582ESW1339ZN,3LEIZ60CDK2IMDH6YE582ESW1339ZN,268119,268119,,,,,,,,,,
,,,,5,4.904255,0,13,13,97,1,halloween decorations including an orange bat,halloween decorations including an orange bat on the cat,ma,72488522,2,45,A11442N7K4VIP8,2021-01-09_07h48.58.183,MetaAwareness,2020.1.2,Win32,60,33J5JKFMK71K7ZT547GJWPII6TEQ31,A11442N7K4VIP8,3LEIZ60CDK2IMDH6YE582ESW1339ZN,CZEL9,CZEL9,3LEIZ60CDK2IMDH6YE582ESW1339ZN,3LEIZ60CDK2IMDH6YE582ESW1339ZN,268119,268119,,,,,,,,,,
,,,,4,3.36446,0,14,14,71,1,"a table with with cheese, crackers, preztles and twelve devil eggs","a table with cheese and crackers on a white dish, twelve devil eggs, a clear bowl with preztles",ma,51537628,1,45,A11442N7K4VIP8,2021-01-09_07h48.58.183,MetaAwareness,2020.1.2,Win32,60,33J5JKFMK71K7ZT547GJWPII6TEQ31,A11442N7K4VIP8,3LEIZ60CDK2IMDH6YE582ESW1339ZN,CZEL9,CZEL9,3LEIZ60CDK2IMDH6YE582ESW1339ZN,3LEIZ60CDK2IMDH6YE582ESW1339ZN,268119,268119,,,,,,,,,,
,,,,5,3.360965,0,15,15,85,1,"a round table outdoors with a gray tablecloth, and cutlery set up with drink glasses with pink cloth napkins","a round table outdoors with a gray tablecloth, and cutlery set up with drink glasss with pink cloth napkins",ma,67862299,4,45,A11442N7K4VIP8,2021-01-09_07h48.58.183,MetaAwareness,2020.1.2,Win32,60,33J5JKFMK71K7ZT547GJWPII6TEQ31,A11442N7K4VIP8,3LEIZ60CDK2IMDH6YE582ESW1339ZN,CZEL9,CZEL9,3LEIZ60CDK2IMDH6YE582ESW1339ZN,3LEIZ60CDK2IMDH6YE582ESW1339ZN,268119,268119,,,,,,,,,,
,,,,3,5.60604,0,16,16,158,1,a table holds an assortment of pamphlets. one is black with a figure on the right.,a table holds an assortment of pamphlets. one is black with a figure on the left.,ma,98265889,6,45,A11442N7K4VIP8,2021-01-09_07h48.58.183,MetaAwareness,2020.1.2,Win32,60,33J5JKFMK71K7ZT547GJWPII6TEQ31,A11442N7K4VIP8,3LEIZ60CDK2IMDH6YE582ESW1339ZN,CZEL9,CZEL9,3LEIZ60CDK2IMDH6YE582ESW1339ZN,3LEIZ60CDK2IMDH6YE582ESW1339ZN,268119,268119,,,,,,,,,,
,,,,6,15.886915,0,17,17,110,1,a collection of valentine sweets including a yellow heart with its top to the left,a collection of valentine sweets including a yellow heart tilted slightly to the left.,ma,75958241,7,45,A11442N7K4VIP8,2021-01-09_07h48.58.183,MetaAwareness,2020.1.2,Win32,60,33J5JKFMK71K7ZT547GJWPII6TEQ31,A11442N7K4VIP8,3LEIZ60CDK2IMDH6YE582ESW1339ZN,CZEL9,CZEL9,3LEIZ60CDK2IMDH6YE582ESW1339ZN,3LEIZ60CDK2IMDH6YE582ESW1339ZN,268119,268119,,,,,,,,,,
,,,,5,6.165315,0,18,18,44,1,"a section of a restaurant, with a billiard table moved to the bottom of a frame","a section of a restaurant, with a billiard table moved to the middle of the frame",ma,27857618,2,45,A11442N7K4VIP8,2021-01-09_07h48.58.183,MetaAwareness,2020.1.2,Win32,60,33J5JKFMK71K7ZT547GJWPII6TEQ31,A11442N7K4VIP8,3LEIZ60CDK2IMDH6YE582ESW1339ZN,CZEL9,CZEL9,3LEIZ60CDK2IMDH6YE582ESW1339ZN,3LEIZ60CDK2IMDH6YE582ESW1339ZN,268119,268119,,,,,,,,,,
,,,,4,4.031085,0,19,19,83,1,a green inner lined bowl sits with other dishes on a table,a creamy inner lined bowl sits with other dishes on a table,ma,62224663,7,45,A11442N7K4VIP8,2021-01-09_07h48.58.183,MetaAwareness,2020.1.2,Win32,60,33J5JKFMK71K7ZT547GJWPII6TEQ31,A11442N7K4VIP8,3LEIZ60CDK2IMDH6YE582ESW1339ZN,CZEL9,CZEL9,3LEIZ60CDK2IMDH6YE582ESW1339ZN,3LEIZ60CDK2IMDH6YE582ESW1339ZN,268119,268119,,,,,,,,,,
,,,,5,10.28007,0,20,20,69,1,a large rectangle of sushi rice on a sushi platter,a smaller rectangle of sushi rice on a sushi platter,ma,48486405,1,45,A11442N7K4VIP8,2021-01-09_07h48.58.183,MetaAwareness,2020.1.2,Win32,60,33J5JKFMK71K7ZT547GJWPII6TEQ31,A11442N7K4VIP8,3LEIZ60CDK2IMDH6YE582ESW1339ZN,CZEL9,CZEL9,3LEIZ60CDK2IMDH6YE582ESW1339ZN,3LEIZ60CDK2IMDH6YE582ESW1339ZN,268119,268119,,,,,,,,,,
,,,,4,4.419955,0,21,21,143,1,stamp upside down on mail,stamp right side up on mail,ma,8974554,2,45,A11442N7K4VIP8,2021-01-09_07h48.58.183,MetaAwareness,2020.1.2,Win32,60,33J5JKFMK71K7ZT547GJWPII6TEQ31,A11442N7K4VIP8,3LEIZ60CDK2IMDH6YE582ESW1339ZN,CZEL9,CZEL9,3LEIZ60CDK2IMDH6YE582ESW1339ZN,3LEIZ60CDK2IMDH6YE582ESW1339ZN,268119,268119,,,,,,,,,,
,,,,5,2.159375,0,22,22,141,1,"cookie cutouts with hearts on the bottom.  large, small, and medium size.","cookie cutouts with hearts on the bottom.  large, small, and mini size.",ma,88767165,6,45,A11442N7K4VIP8,2021-01-09_07h48.58.183,MetaAwareness,2020.1.2,Win32,60,33J5JKFMK71K7ZT547GJWPII6TEQ31,A11442N7K4VIP8,3LEIZ60CDK2IMDH6YE582ESW1339ZN,CZEL9,CZEL9,3LEIZ60CDK2IMDH6YE582ESW1339ZN,3LEIZ60CDK2IMDH6YE582ESW1339ZN,268119,268119,,,,,,,,,,
,,,,5,1.975095,0,23,23,82,1,"a tea set with multiple cups, including a yellow cup with green interior","a tea set with multiple cups, including a yellow cup with a tan interior",ma,62224663,5,45,A11442N7K4VIP8,2021-01-09_07h48.58.183,MetaAwareness,2020.1.2,Win32,60,33J5JKFMK71K7ZT547GJWPII6TEQ31,A11442N7K4VIP8,3LEIZ60CDK2IMDH6YE582ESW1339ZN,CZEL9,CZEL9,3LEIZ60CDK2IMDH6YE582ESW1339ZN,3LEIZ60CDK2IMDH6YE582ESW1339ZN,268119,268119,,,,,,,,,,
,,,,4,3.34474,0,24,24,111,1,pink cupcakes in a tower arrangement and letters spelling gughlhoh,pink cupcakes in a tower arrangement and letters spelling gugelhof,ma,77345858,3,45,A11442N7K4VIP8,2021-01-09_07h48.58.183,MetaAwareness,2020.1.2,Win32,60,33J5JKFMK71K7ZT547GJWPII6TEQ31,A11442N7K4VIP8,3LEIZ60CDK2IMDH6YE582ESW1339ZN,CZEL9,CZEL9,3LEIZ60CDK2IMDH6YE582ESW1339ZN,3LEIZ60CDK2IMDH6YE582ESW1339ZN,268119,268119,,,,,,,,,,
,,,,3,4.06715,0,25,25,31,1,the embroidary is large,the embroidary is small,ma,23024660,1,45,A11442N7K4VIP8,2021-01-09_07h48.58.183,MetaAwareness,2020.1.2,Win32,60,33J5JKFMK71K7ZT547GJWPII6TEQ31,A11442N7K4VIP8,3LEIZ60CDK2IMDH6YE582ESW1339ZN,CZEL9,CZEL9,3LEIZ60CDK2IMDH6YE582ESW1339ZN,3LEIZ60CDK2IMDH6YE582ESW1339ZN,268119,268119,,,,,,,,,,
,,,,4,6.822295,0,26,26,76,1,a person at a table with coffee and two halloween pumpkins with a nose right above the mouth on the orange pumpkin,a person at  table with coffee and two halloween pumpkins with a nose right near the eyes on the orange pumpkin,ma,55174490,5,45,A11442N7K4VIP8,2021-01-09_07h48.58.183,MetaAwareness,2020.1.2,Win32,60,33J5JKFMK71K7ZT547GJWPII6TEQ31,A11442N7K4VIP8,3LEIZ60CDK2IMDH6YE582ESW1339ZN,CZEL9,CZEL9,3LEIZ60CDK2IMDH6YE582ESW1339ZN,3LEIZ60CDK2IMDH6YE582ESW1339ZN,268119,268119,,,,,,,,,,
,,,,4,1.8857,0,27,27,153,1,"a desk and chair with two monitors and several files and pennd a keyboard, mouse and table a handle of a vaccum is next to the right of the desk","a desk and chair with two monitors and several files, pens, keyboard, mouse with a vaccum cleaner handle near the right of the desk.",ma,98156944,1,45,A11442N7K4VIP8,2021-01-09_07h48.58.183,MetaAwareness,2020.1.2,Win32,60,33J5JKFMK71K7ZT547GJWPII6TEQ31,A11442N7K4VIP8,3LEIZ60CDK2IMDH6YE582ESW1339ZN,CZEL9,CZEL9,3LEIZ60CDK2IMDH6YE582ESW1339ZN,3LEIZ60CDK2IMDH6YE582ESW1339ZN,268119,268119,,,,,,,,,,
,,,,3,5.040755,0,28,28,116,1,"assortment of baked goods on a table, several of which feature a ribbion of either brown or green color","assortment of baked goods on a table, several of which feature a ribbon of brown color",ma,77793328,12,45,A11442N7K4VIP8,2021-01-09_07h48.58.183,MetaAwareness,2020.1.2,Win32,60,33J5JKFMK71K7ZT547GJWPII6TEQ31,A11442N7K4VIP8,3LEIZ60CDK2IMDH6YE582ESW1339ZN,CZEL9,CZEL9,3LEIZ60CDK2IMDH6YE582ESW1339ZN,3LEIZ60CDK2IMDH6YE582ESW1339ZN,268119,268119,,,,,,,,,,
,,,,5,3.864065,0,29,29,45,1,darts board placed at the bottom on the wall,darts board placed at the middle on the wall,ma,27857618,5,45,A11442N7K4VIP8,2021-01-09_07h48.58.183,MetaAwareness,2020.1.2,Win32,60,33J5JKFMK71K7ZT547GJWPII6TEQ31,A11442N7K4VIP8,3LEIZ60CDK2IMDH6YE582ESW1339ZN,CZEL9,CZEL9,3LEIZ60CDK2IMDH6YE582ESW1339ZN,3LEIZ60CDK2IMDH6YE582ESW1339ZN,268119,268119,,,,,,,,,,
,,,,,,,,,,,,,,,,45,A11442N7K4VIP8,2021-01-09_07h48.58.183,MetaAwareness,2020.1.2,Win32,60,33J5JKFMK71K7ZT547GJWPII6TEQ31,A11442N7K4VIP8,3LEIZ60CDK2IMDH6YE582ESW1339ZN,CZEL9,CZEL9,3LEIZ60CDK2IMDH6YE582ESW1339ZN,3LEIZ60CDK2IMDH6YE582ESW1339ZN,268119,268119,5,2.67028,someone laying underneath a blue beach umbrella on a crowded beach,someone laying underneath a blue beach umbrella on a crowded beach,same,4,2.92163,members of a marching band crossing a track that all have feather plumes at the front of their hats,a cluttered and rustic looking cafe with 10 hanging lights,different
