consent_response.keys,consent_response.rt,key_resp_2.keys,key_resp_2.rt,user_resp.keys,user_resp.rt,trials.thisRepN,trials.thisTrialN,trials.thisN,trials.thisIndex,trials.ran,image_1_text,image_2_text,database,image,number,age,worker_ID,date,expName,psychopyVersion,OS,frameRate,hitId,workerId,assignmentId,a,tp_a,b,tp_b,c,tp_c,catch_same_resp.keys,catch_same_resp.rt,image_1_text_catch_same,image_2_text_catch_same,image_catch_same,catch_different_resp.keys,catch_different_resp.rt,image_1_text_catch_different,image_2_text_catch_different,image_catch_different
space,63.137805,space,34.94695,4,38.967205,0,0,0,79,1,"in the seond bottle at the right side, sticker is pasted on opposite side","in the second bottle at te right side, sticker placed at correct side",ma,61118260,6,25,A2JW59JRBWUMR2,2021-01-09_10h56.31.557,MetaAwareness,2020.1.2,Win32,60,33J5JKFMK71K7ZT547GJWPII6TEQ31,A2JW59JRBWUMR2,39L1G8WVWRUZCF7I9UV6J75YOWG31B,VGL99,VGL99,39L1G8WVWRUZCF7I9UV6J75YOWG31B,39L1G8WVWRUZCF7I9UV6J75YOWG31B,268119,268119,,,,,,,,,,
,,,,1,28.8948,0,1,1,33,1,a display of wooden objects with a quilted picture in the background showing a house in the middle with a large window,a display of wooden objects with a quilted picture in the background showing a house in the center with a small window.,ma,23024660,10,25,A2JW59JRBWUMR2,2021-01-09_10h56.31.557,MetaAwareness,2020.1.2,Win32,60,33J5JKFMK71K7ZT547GJWPII6TEQ31,A2JW59JRBWUMR2,39L1G8WVWRUZCF7I9UV6J75YOWG31B,VGL99,VGL99,39L1G8WVWRUZCF7I9UV6J75YOWG31B,39L1G8WVWRUZCF7I9UV6J75YOWG31B,268119,268119,,,,,,,,,,
,,,,1,38.081505,0,2,2,57,1,"a desk containing a computer with two shelves above it. the second shelf has two clear labelled boxes, one with a label at the top and one with the label at the bottom","a desk containing a computer with two shelves above it. the second shelf has two clear labelled boxes, both with the label at the top",ma,4247084,5,25,A2JW59JRBWUMR2,2021-01-09_10h56.31.557,MetaAwareness,2020.1.2,Win32,60,33J5JKFMK71K7ZT547GJWPII6TEQ31,A2JW59JRBWUMR2,39L1G8WVWRUZCF7I9UV6J75YOWG31B,VGL99,VGL99,39L1G8WVWRUZCF7I9UV6J75YOWG31B,39L1G8WVWRUZCF7I9UV6J75YOWG31B,268119,268119,,,,,,,,,,
,,,,3,18.271885,0,3,3,129,1,"transistors and bits and bops on a board, one rod longer than others","transistors and bits and bops on a board, all the rods are average in length",ma,8197559,6,25,A2JW59JRBWUMR2,2021-01-09_10h56.31.557,MetaAwareness,2020.1.2,Win32,60,33J5JKFMK71K7ZT547GJWPII6TEQ31,A2JW59JRBWUMR2,39L1G8WVWRUZCF7I9UV6J75YOWG31B,VGL99,VGL99,39L1G8WVWRUZCF7I9UV6J75YOWG31B,39L1G8WVWRUZCF7I9UV6J75YOWG31B,268119,268119,,,,,,,,,,
,,,,3,16.49398,0,4,4,63,1,cakes and cookies displayed on a table with one cake having a face with a big brown smile,cakes and cookies displayed on a table with one cake having a face with a big red smile,ma,46635293,9,25,A2JW59JRBWUMR2,2021-01-09_10h56.31.557,MetaAwareness,2020.1.2,Win32,60,33J5JKFMK71K7ZT547GJWPII6TEQ31,A2JW59JRBWUMR2,39L1G8WVWRUZCF7I9UV6J75YOWG31B,VGL99,VGL99,39L1G8WVWRUZCF7I9UV6J75YOWG31B,39L1G8WVWRUZCF7I9UV6J75YOWG31B,268119,268119,,,,,,,,,,
,,,,4,22.85105,0,5,5,14,1,"a photo of the inside of a hot air balloon with many colors, in particular purple and green with a black circle","a photo of the inside of a hot air balloon with many colors, in particular green and yellow with a black circle",ma,12178414,9,25,A2JW59JRBWUMR2,2021-01-09_10h56.31.557,MetaAwareness,2020.1.2,Win32,60,33J5JKFMK71K7ZT547GJWPII6TEQ31,A2JW59JRBWUMR2,39L1G8WVWRUZCF7I9UV6J75YOWG31B,VGL99,VGL99,39L1G8WVWRUZCF7I9UV6J75YOWG31B,39L1G8WVWRUZCF7I9UV6J75YOWG31B,268119,268119,,,,,,,,,,
,,,,1,13.53842,0,6,6,52,1,the animal is in front here,the animal is at the back here,ma,38466626,4,25,A2JW59JRBWUMR2,2021-01-09_10h56.31.557,MetaAwareness,2020.1.2,Win32,60,33J5JKFMK71K7ZT547GJWPII6TEQ31,A2JW59JRBWUMR2,39L1G8WVWRUZCF7I9UV6J75YOWG31B,VGL99,VGL99,39L1G8WVWRUZCF7I9UV6J75YOWG31B,39L1G8WVWRUZCF7I9UV6J75YOWG31B,268119,268119,,,,,,,,,,
,,,,4,14.91579,0,7,7,148,1,six neatly placed handmade fabric ornaments with one that has no button in the middle of it,six neatly placed handmade fabric ornaments with one that has a heart shaped button in the middle of it,ma,90405028,5,25,A2JW59JRBWUMR2,2021-01-09_10h56.31.557,MetaAwareness,2020.1.2,Win32,60,33J5JKFMK71K7ZT547GJWPII6TEQ31,A2JW59JRBWUMR2,39L1G8WVWRUZCF7I9UV6J75YOWG31B,VGL99,VGL99,39L1G8WVWRUZCF7I9UV6J75YOWG31B,39L1G8WVWRUZCF7I9UV6J75YOWG31B,268119,268119,,,,,,,,,,
,,,,4,41.159895,0,8,8,101,1,a grey-green metal chair with a pillow on the back of the chair that has fruit and butterflies on it. there are several christmas decorations on the seat of the chair,"a grey-green metal chair with a pillow on the back of the chair with pink butterflies and red strawberries, cherries and apples on the seat of the chair are christmas decorations",ma,73637203,2,25,A2JW59JRBWUMR2,2021-01-09_10h56.31.557,MetaAwareness,2020.1.2,Win32,60,33J5JKFMK71K7ZT547GJWPII6TEQ31,A2JW59JRBWUMR2,39L1G8WVWRUZCF7I9UV6J75YOWG31B,VGL99,VGL99,39L1G8WVWRUZCF7I9UV6J75YOWG31B,39L1G8WVWRUZCF7I9UV6J75YOWG31B,268119,268119,,,,,,,,,,
,,,,3,32.520475,0,9,9,114,1,a table with a white table cloth 4 pears in a white bowl 2 candles and two containers a white ve with blue and white flowers are on the table,"a table with a white table cloth, four pears in a white bowl, two candles,  two containers and a white vase with blue and white flowers in it.",ma,77574131,1,25,A2JW59JRBWUMR2,2021-01-09_10h56.31.557,MetaAwareness,2020.1.2,Win32,60,33J5JKFMK71K7ZT547GJWPII6TEQ31,A2JW59JRBWUMR2,39L1G8WVWRUZCF7I9UV6J75YOWG31B,VGL99,VGL99,39L1G8WVWRUZCF7I9UV6J75YOWG31B,39L1G8WVWRUZCF7I9UV6J75YOWG31B,268119,268119,,,,,,,,,,
,,,,3,9.509025,0,10,10,105,1,a neatly arranged showcase with a compass pointing north.,a neatly arranged showcase with a compass pointing west.,ma,74173745,9,25,A2JW59JRBWUMR2,2021-01-09_10h56.31.557,MetaAwareness,2020.1.2,Win32,60,33J5JKFMK71K7ZT547GJWPII6TEQ31,A2JW59JRBWUMR2,39L1G8WVWRUZCF7I9UV6J75YOWG31B,VGL99,VGL99,39L1G8WVWRUZCF7I9UV6J75YOWG31B,39L1G8WVWRUZCF7I9UV6J75YOWG31B,268119,268119,,,,,,,,,,
,,,,4,18.836785,0,11,11,127,1,an electronic board with 5 small metal rods in the center and 1 long metal rod,an electronic board with 6 sall metal rods in the center,ma,8197559,4,25,A2JW59JRBWUMR2,2021-01-09_10h56.31.557,MetaAwareness,2020.1.2,Win32,60,33J5JKFMK71K7ZT547GJWPII6TEQ31,A2JW59JRBWUMR2,39L1G8WVWRUZCF7I9UV6J75YOWG31B,VGL99,VGL99,39L1G8WVWRUZCF7I9UV6J75YOWG31B,39L1G8WVWRUZCF7I9UV6J75YOWG31B,268119,268119,,,,,,,,,,
,,,,6,20.651795,0,12,12,72,1,"a orange table with crackers and dip, a bowl of pretzels, and a green plate of deviled eggs","a orange table with crackers and dip, a bowl of pretzels, and a green plate of deviled eggs",ma,51537628,7,25,A2JW59JRBWUMR2,2021-01-09_10h56.31.557,MetaAwareness,2020.1.2,Win32,60,33J5JKFMK71K7ZT547GJWPII6TEQ31,A2JW59JRBWUMR2,39L1G8WVWRUZCF7I9UV6J75YOWG31B,VGL99,VGL99,39L1G8WVWRUZCF7I9UV6J75YOWG31B,39L1G8WVWRUZCF7I9UV6J75YOWG31B,268119,268119,,,,,,,,,,
,,,,3,20.00727,0,13,13,115,1,a decoratve band in green,a decorative band in brown,ma,77793328,6,25,A2JW59JRBWUMR2,2021-01-09_10h56.31.557,MetaAwareness,2020.1.2,Win32,60,33J5JKFMK71K7ZT547GJWPII6TEQ31,A2JW59JRBWUMR2,39L1G8WVWRUZCF7I9UV6J75YOWG31B,VGL99,VGL99,39L1G8WVWRUZCF7I9UV6J75YOWG31B,39L1G8WVWRUZCF7I9UV6J75YOWG31B,268119,268119,,,,,,,,,,
,,,,5,14.69177,0,14,14,1,1,a room with some wall decorations including a wide painting of a coffee mug,a room with wall decorations in cluding a narrow painting of a coffee mug.,ma,10504629,6,25,A2JW59JRBWUMR2,2021-01-09_10h56.31.557,MetaAwareness,2020.1.2,Win32,60,33J5JKFMK71K7ZT547GJWPII6TEQ31,A2JW59JRBWUMR2,39L1G8WVWRUZCF7I9UV6J75YOWG31B,VGL99,VGL99,39L1G8WVWRUZCF7I9UV6J75YOWG31B,39L1G8WVWRUZCF7I9UV6J75YOWG31B,268119,268119,,,,,,,,,,
,,,,5,10.98244,0,15,15,36,1,an yellow color books are visible,an red color books are visible.,ma,23199105,5,25,A2JW59JRBWUMR2,2021-01-09_10h56.31.557,MetaAwareness,2020.1.2,Win32,60,33J5JKFMK71K7ZT547GJWPII6TEQ31,A2JW59JRBWUMR2,39L1G8WVWRUZCF7I9UV6J75YOWG31B,VGL99,VGL99,39L1G8WVWRUZCF7I9UV6J75YOWG31B,39L1G8WVWRUZCF7I9UV6J75YOWG31B,268119,268119,,,,,,,,,,
,,,,5,9.077055,0,16,16,45,1,darts board placed at the bottom on the wall,darts board placed at the middle on the wall,ma,27857618,5,25,A2JW59JRBWUMR2,2021-01-09_10h56.31.557,MetaAwareness,2020.1.2,Win32,60,33J5JKFMK71K7ZT547GJWPII6TEQ31,A2JW59JRBWUMR2,39L1G8WVWRUZCF7I9UV6J75YOWG31B,VGL99,VGL99,39L1G8WVWRUZCF7I9UV6J75YOWG31B,39L1G8WVWRUZCF7I9UV6J75YOWG31B,268119,268119,,,,,,,,,,
,,,,3,21.11541,0,17,17,88,1,a picture showing stamps laid out on a grid. one of the stamps shows the phone number and webstie separated with a lot of whit space.,a picture showing stamps laid out on a grid. one of the stamps shows the phone number and website of a company close together,ma,69128765,1,25,A2JW59JRBWUMR2,2021-01-09_10h56.31.557,MetaAwareness,2020.1.2,Win32,60,33J5JKFMK71K7ZT547GJWPII6TEQ31,A2JW59JRBWUMR2,39L1G8WVWRUZCF7I9UV6J75YOWG31B,VGL99,VGL99,39L1G8WVWRUZCF7I9UV6J75YOWG31B,39L1G8WVWRUZCF7I9UV6J75YOWG31B,268119,268119,,,,,,,,,,
,,,,5,16.287615,0,18,18,69,1,a large rectangle of sushi rice on a sushi platter,a smaller rectangle of sushi rice on a sushi platter,ma,48486405,1,25,A2JW59JRBWUMR2,2021-01-09_10h56.31.557,MetaAwareness,2020.1.2,Win32,60,33J5JKFMK71K7ZT547GJWPII6TEQ31,A2JW59JRBWUMR2,39L1G8WVWRUZCF7I9UV6J75YOWG31B,VGL99,VGL99,39L1G8WVWRUZCF7I9UV6J75YOWG31B,39L1G8WVWRUZCF7I9UV6J75YOWG31B,268119,268119,,,,,,,,,,
,,,,5,14.179185,0,19,19,100,1,there are six small decors and a blue cushion on the green table and the pattern on the top left corner of the cushion is a pink butterfly,there are six small decors ad a blue cushion on the green table and the pattern on the top left corner of the cushion is a red strawberry,ma,73637203,1,25,A2JW59JRBWUMR2,2021-01-09_10h56.31.557,MetaAwareness,2020.1.2,Win32,60,33J5JKFMK71K7ZT547GJWPII6TEQ31,A2JW59JRBWUMR2,39L1G8WVWRUZCF7I9UV6J75YOWG31B,VGL99,VGL99,39L1G8WVWRUZCF7I9UV6J75YOWG31B,39L1G8WVWRUZCF7I9UV6J75YOWG31B,268119,268119,,,,,,,,,,
,,,,5,5.140745,0,20,20,102,1,a chair cover with a pink butterfly at the top left,a chair cover with a red strawberry at the top left,ma,73637203,5,25,A2JW59JRBWUMR2,2021-01-09_10h56.31.557,MetaAwareness,2020.1.2,Win32,60,33J5JKFMK71K7ZT547GJWPII6TEQ31,A2JW59JRBWUMR2,39L1G8WVWRUZCF7I9UV6J75YOWG31B,VGL99,VGL99,39L1G8WVWRUZCF7I9UV6J75YOWG31B,39L1G8WVWRUZCF7I9UV6J75YOWG31B,268119,268119,,,,,,,,,,
,,,,5,5.541025,0,21,21,112,1,a bunch of cupcakes with an h in the midle,a bunch of cupcakes with an e in the middle,ma,77345858,6,25,A2JW59JRBWUMR2,2021-01-09_10h56.31.557,MetaAwareness,2020.1.2,Win32,60,33J5JKFMK71K7ZT547GJWPII6TEQ31,A2JW59JRBWUMR2,39L1G8WVWRUZCF7I9UV6J75YOWG31B,VGL99,VGL99,39L1G8WVWRUZCF7I9UV6J75YOWG31B,39L1G8WVWRUZCF7I9UV6J75YOWG31B,268119,268119,,,,,,,,,,
,,,,5,14.158285,0,22,22,76,1,a person at a table with coffee and two halloween pumpkins with a nose right above the mouth on the orange pumpkin,a person at  table with coffee and two halloween pumpkins with a nose right near the eyes on the orange pumpkin,ma,55174490,5,25,A2JW59JRBWUMR2,2021-01-09_10h56.31.557,MetaAwareness,2020.1.2,Win32,60,33J5JKFMK71K7ZT547GJWPII6TEQ31,A2JW59JRBWUMR2,39L1G8WVWRUZCF7I9UV6J75YOWG31B,VGL99,VGL99,39L1G8WVWRUZCF7I9UV6J75YOWG31B,39L1G8WVWRUZCF7I9UV6J75YOWG31B,268119,268119,,,,,,,,,,
,,,,6,45.43752,0,23,23,44,1,"a section of a restaurant, with a billiard table moved to the bottom of a frame","a section of a restaurant, with a billiard table moved to the middle of the frame",ma,27857618,2,25,A2JW59JRBWUMR2,2021-01-09_10h56.31.557,MetaAwareness,2020.1.2,Win32,60,33J5JKFMK71K7ZT547GJWPII6TEQ31,A2JW59JRBWUMR2,39L1G8WVWRUZCF7I9UV6J75YOWG31B,VGL99,VGL99,39L1G8WVWRUZCF7I9UV6J75YOWG31B,39L1G8WVWRUZCF7I9UV6J75YOWG31B,268119,268119,,,,,,,,,,
,,,,5,21.239445,0,24,24,54,1,a picture of a woodcarving desk featuring a piece with waves in the center,a picture of a woodcarving desk featuring a new piece,ma,42429798,1,25,A2JW59JRBWUMR2,2021-01-09_10h56.31.557,MetaAwareness,2020.1.2,Win32,60,33J5JKFMK71K7ZT547GJWPII6TEQ31,A2JW59JRBWUMR2,39L1G8WVWRUZCF7I9UV6J75YOWG31B,VGL99,VGL99,39L1G8WVWRUZCF7I9UV6J75YOWG31B,39L1G8WVWRUZCF7I9UV6J75YOWG31B,268119,268119,,,,,,,,,,
,,,,5,8.434035,0,25,25,99,1,a hallowween cake with a kitty and a yellow bat on its hip,a halloween cake with a kitty and a yellow bat on the middle right of outfit,ma,72488522,10,25,A2JW59JRBWUMR2,2021-01-09_10h56.31.557,MetaAwareness,2020.1.2,Win32,60,33J5JKFMK71K7ZT547GJWPII6TEQ31,A2JW59JRBWUMR2,39L1G8WVWRUZCF7I9UV6J75YOWG31B,VGL99,VGL99,39L1G8WVWRUZCF7I9UV6J75YOWG31B,39L1G8WVWRUZCF7I9UV6J75YOWG31B,268119,268119,,,,,,,,,,
,,,,3,13.91323,0,26,26,91,1,a website address located under a phone number with large spacing,a website address located under a phone number with no spacing,ma,69128765,6,25,A2JW59JRBWUMR2,2021-01-09_10h56.31.557,MetaAwareness,2020.1.2,Win32,60,33J5JKFMK71K7ZT547GJWPII6TEQ31,A2JW59JRBWUMR2,39L1G8WVWRUZCF7I9UV6J75YOWG31B,VGL99,VGL99,39L1G8WVWRUZCF7I9UV6J75YOWG31B,39L1G8WVWRUZCF7I9UV6J75YOWG31B,268119,268119,,,,,,,,,,
,,,,1,6.435485,0,27,27,60,1,a pantry area in a home kitchen,a small container in a pantry. i'm guessing it contains tea,ma,46475259,1,25,A2JW59JRBWUMR2,2021-01-09_10h56.31.557,MetaAwareness,2020.1.2,Win32,60,33J5JKFMK71K7ZT547GJWPII6TEQ31,A2JW59JRBWUMR2,39L1G8WVWRUZCF7I9UV6J75YOWG31B,VGL99,VGL99,39L1G8WVWRUZCF7I9UV6J75YOWG31B,39L1G8WVWRUZCF7I9UV6J75YOWG31B,268119,268119,,,,,,,,,,
,,,,4,13.71461,0,28,28,82,1,"a tea set with multiple cups, including a yellow cup with green interior","a tea set with multiple cups, including a yellow cup with a tan interior",ma,62224663,5,25,A2JW59JRBWUMR2,2021-01-09_10h56.31.557,MetaAwareness,2020.1.2,Win32,60,33J5JKFMK71K7ZT547GJWPII6TEQ31,A2JW59JRBWUMR2,39L1G8WVWRUZCF7I9UV6J75YOWG31B,VGL99,VGL99,39L1G8WVWRUZCF7I9UV6J75YOWG31B,39L1G8WVWRUZCF7I9UV6J75YOWG31B,268119,268119,,,,,,,,,,
,,,,4,17.61604,0,29,29,73,1,a wall of kids artwork in  a child's room,a colorful painting in a child's room,ma,51856108,2,25,A2JW59JRBWUMR2,2021-01-09_10h56.31.557,MetaAwareness,2020.1.2,Win32,60,33J5JKFMK71K7ZT547GJWPII6TEQ31,A2JW59JRBWUMR2,39L1G8WVWRUZCF7I9UV6J75YOWG31B,VGL99,VGL99,39L1G8WVWRUZCF7I9UV6J75YOWG31B,39L1G8WVWRUZCF7I9UV6J75YOWG31B,268119,268119,,,,,,,,,,
,,,,,,,,,,,,,,,,25,A2JW59JRBWUMR2,2021-01-09_10h56.31.557,MetaAwareness,2020.1.2,Win32,60,33J5JKFMK71K7ZT547GJWPII6TEQ31,A2JW59JRBWUMR2,39L1G8WVWRUZCF7I9UV6J75YOWG31B,VGL99,VGL99,39L1G8WVWRUZCF7I9UV6J75YOWG31B,39L1G8WVWRUZCF7I9UV6J75YOWG31B,268119,268119,6,14.18989,someone laying underneath a blue beach umbrella on a crowded beach,someone laying underneath a blue beach umbrella on a crowded beach,same,1,5.29391,members of a marching band crossing a track that all have feather plumes at the front of their hats,a cluttered and rustic looking cafe with 10 hanging lights,different
