consent_response.keys,consent_response.rt,key_resp_2.keys,key_resp_2.rt,user_resp.keys,user_resp.rt,trials.thisRepN,trials.thisTrialN,trials.thisN,trials.thisIndex,trials.ran,image_1_text,image_2_text,database,image,number,age,worker_ID,date,expName,psychopyVersion,OS,frameRate,hitId,workerId,assignmentId,a,tp_a,b,tp_b,c,tp_c,catch_same_resp.keys,catch_same_resp.rt,image_1_text_catch_same,image_2_text_catch_same,image_catch_same,catch_different_resp.keys,catch_different_resp.rt,image_1_text_catch_different,image_2_text_catch_different,image_catch_different
space,28.08555,space,47.059155,2,141.97412,0,0,0,153,1,"a desk and chair with two monitors and several files and pennd a keyboard, mouse and table a handle of a vaccum is next to the right of the desk","a desk and chair with two monitors and several files, pens, keyboard, mouse with a vaccum cleaner handle near the right of the desk.",ma,98156944,1,32,A3FES0O1E6NHO7,2021-01-09_07h53.00.986,MetaAwareness,2020.1.2,Win32,60,33J5JKFMK71K7ZT547GJWPII6TEQ31,A3FES0O1E6NHO7,3FPRZHYEPZAFYRNGG8FVQVCED0MV3R,EZPF9,EZPF9,3FPRZHYEPZAFYRNGG8FVQVCED0MV3R,3FPRZHYEPZAFYRNGG8FVQVCED0MV3R,268119,268119,,,,,,,,,,
,,,,4,23.015395,0,1,1,52,1,the animal is in front here,the animal is at the back here,ma,38466626,4,32,A3FES0O1E6NHO7,2021-01-09_07h53.00.986,MetaAwareness,2020.1.2,Win32,60,33J5JKFMK71K7ZT547GJWPII6TEQ31,A3FES0O1E6NHO7,3FPRZHYEPZAFYRNGG8FVQVCED0MV3R,EZPF9,EZPF9,3FPRZHYEPZAFYRNGG8FVQVCED0MV3R,3FPRZHYEPZAFYRNGG8FVQVCED0MV3R,268119,268119,,,,,,,,,,
,,,,4,38.129185,0,2,2,44,1,"a section of a restaurant, with a billiard table moved to the bottom of a frame","a section of a restaurant, with a billiard table moved to the middle of the frame",ma,27857618,2,32,A3FES0O1E6NHO7,2021-01-09_07h53.00.986,MetaAwareness,2020.1.2,Win32,60,33J5JKFMK71K7ZT547GJWPII6TEQ31,A3FES0O1E6NHO7,3FPRZHYEPZAFYRNGG8FVQVCED0MV3R,EZPF9,EZPF9,3FPRZHYEPZAFYRNGG8FVQVCED0MV3R,3FPRZHYEPZAFYRNGG8FVQVCED0MV3R,268119,268119,,,,,,,,,,
,,,,2,18.114675,0,3,3,134,1,a wall crowded with pictures with one black and white picture in the middle that is blurry.,a wall crowdrd with pictures with one black and white picture in the middle that is clear.,ma,83691215,9,32,A3FES0O1E6NHO7,2021-01-09_07h53.00.986,MetaAwareness,2020.1.2,Win32,60,33J5JKFMK71K7ZT547GJWPII6TEQ31,A3FES0O1E6NHO7,3FPRZHYEPZAFYRNGG8FVQVCED0MV3R,EZPF9,EZPF9,3FPRZHYEPZAFYRNGG8FVQVCED0MV3R,3FPRZHYEPZAFYRNGG8FVQVCED0MV3R,268119,268119,,,,,,,,,,
,,,,1,9.36676,0,4,4,53,1,a decorated shelf with vases and picture frames with the larger frame having a circle detail on the bottom,a decorated shelf with vases and pictures,ma,38546029,7,32,A3FES0O1E6NHO7,2021-01-09_07h53.00.986,MetaAwareness,2020.1.2,Win32,60,33J5JKFMK71K7ZT547GJWPII6TEQ31,A3FES0O1E6NHO7,3FPRZHYEPZAFYRNGG8FVQVCED0MV3R,EZPF9,EZPF9,3FPRZHYEPZAFYRNGG8FVQVCED0MV3R,3FPRZHYEPZAFYRNGG8FVQVCED0MV3R,268119,268119,,,,,,,,,,
,,,,6,16.9791,0,5,5,113,1,a plate of cupcakes with a pink iced ribbon in the front with the letters gughlhof.,a plate of cupcakes with a pink iced ribbon in the front with the letters gugelhof.,ma,77345858,9,32,A3FES0O1E6NHO7,2021-01-09_07h53.00.986,MetaAwareness,2020.1.2,Win32,60,33J5JKFMK71K7ZT547GJWPII6TEQ31,A3FES0O1E6NHO7,3FPRZHYEPZAFYRNGG8FVQVCED0MV3R,EZPF9,EZPF9,3FPRZHYEPZAFYRNGG8FVQVCED0MV3R,3FPRZHYEPZAFYRNGG8FVQVCED0MV3R,268119,268119,,,,,,,,,,
,,,,5,8.446715,0,6,6,55,1,wood carved symbol with a squigly print. in top upper right hand corner,wood carved symbol with no squicly print in the top upper right hand corner.,ma,42429798,2,32,A3FES0O1E6NHO7,2021-01-09_07h53.00.986,MetaAwareness,2020.1.2,Win32,60,33J5JKFMK71K7ZT547GJWPII6TEQ31,A3FES0O1E6NHO7,3FPRZHYEPZAFYRNGG8FVQVCED0MV3R,EZPF9,EZPF9,3FPRZHYEPZAFYRNGG8FVQVCED0MV3R,3FPRZHYEPZAFYRNGG8FVQVCED0MV3R,268119,268119,,,,,,,,,,
,,,,5,19.72382,0,7,7,0,1,"a room with flowers, lamp, hanging lights, and wall art.  one of the pieces of wall art appears to be a picture of coffee from starbucks and is hanging approximately six inches from the corner of the room.","a room with flowers, lamp, hanging lights, and wall art.  one of the pieces of wall art appears to be a picture of coffee from starbucks and is hanging approximatley ten inches from the corner of th room.",ma,10504629,3,32,A3FES0O1E6NHO7,2021-01-09_07h53.00.986,MetaAwareness,2020.1.2,Win32,60,33J5JKFMK71K7ZT547GJWPII6TEQ31,A3FES0O1E6NHO7,3FPRZHYEPZAFYRNGG8FVQVCED0MV3R,EZPF9,EZPF9,3FPRZHYEPZAFYRNGG8FVQVCED0MV3R,3FPRZHYEPZAFYRNGG8FVQVCED0MV3R,268119,268119,,,,,,,,,,
,,,,4,11.56504,0,8,8,54,1,a picture of a woodcarving desk featuring a piece with waves in the center,a picture of a woodcarving desk featuring a new piece,ma,42429798,1,32,A3FES0O1E6NHO7,2021-01-09_07h53.00.986,MetaAwareness,2020.1.2,Win32,60,33J5JKFMK71K7ZT547GJWPII6TEQ31,A3FES0O1E6NHO7,3FPRZHYEPZAFYRNGG8FVQVCED0MV3R,EZPF9,EZPF9,3FPRZHYEPZAFYRNGG8FVQVCED0MV3R,3FPRZHYEPZAFYRNGG8FVQVCED0MV3R,268119,268119,,,,,,,,,,
,,,,3,8.23657,0,9,9,95,1,"a quilt with various square patterns, with one section being a ligher shade of red.",a quilt with various rectangular patterns with one section being a light shade of orange.,ma,70687495,6,32,A3FES0O1E6NHO7,2021-01-09_07h53.00.986,MetaAwareness,2020.1.2,Win32,60,33J5JKFMK71K7ZT547GJWPII6TEQ31,A3FES0O1E6NHO7,3FPRZHYEPZAFYRNGG8FVQVCED0MV3R,EZPF9,EZPF9,3FPRZHYEPZAFYRNGG8FVQVCED0MV3R,3FPRZHYEPZAFYRNGG8FVQVCED0MV3R,268119,268119,,,,,,,,,,
,,,,5,6.2185,0,10,10,81,1,"an old time advent calendar, they painted the 6 crooked","an old time advent calendar, they painted the 6 straight",ma,62096551,5,32,A3FES0O1E6NHO7,2021-01-09_07h53.00.986,MetaAwareness,2020.1.2,Win32,60,33J5JKFMK71K7ZT547GJWPII6TEQ31,A3FES0O1E6NHO7,3FPRZHYEPZAFYRNGG8FVQVCED0MV3R,EZPF9,EZPF9,3FPRZHYEPZAFYRNGG8FVQVCED0MV3R,3FPRZHYEPZAFYRNGG8FVQVCED0MV3R,268119,268119,,,,,,,,,,
,,,,4,9.82377,0,11,11,79,1,"in the seond bottle at the right side, sticker is pasted on opposite side","in the second bottle at te right side, sticker placed at correct side",ma,61118260,6,32,A3FES0O1E6NHO7,2021-01-09_07h53.00.986,MetaAwareness,2020.1.2,Win32,60,33J5JKFMK71K7ZT547GJWPII6TEQ31,A3FES0O1E6NHO7,3FPRZHYEPZAFYRNGG8FVQVCED0MV3R,EZPF9,EZPF9,3FPRZHYEPZAFYRNGG8FVQVCED0MV3R,3FPRZHYEPZAFYRNGG8FVQVCED0MV3R,268119,268119,,,,,,,,,,
,,,,5,6.021085,0,12,12,69,1,a large rectangle of sushi rice on a sushi platter,a smaller rectangle of sushi rice on a sushi platter,ma,48486405,1,32,A3FES0O1E6NHO7,2021-01-09_07h53.00.986,MetaAwareness,2020.1.2,Win32,60,33J5JKFMK71K7ZT547GJWPII6TEQ31,A3FES0O1E6NHO7,3FPRZHYEPZAFYRNGG8FVQVCED0MV3R,EZPF9,EZPF9,3FPRZHYEPZAFYRNGG8FVQVCED0MV3R,3FPRZHYEPZAFYRNGG8FVQVCED0MV3R,268119,268119,,,,,,,,,,
,,,,5,4.86943,0,13,13,15,1,"at the middle of the circle, pink color is present","at the middle of the circle, yellow color is present",ma,12178414,10,32,A3FES0O1E6NHO7,2021-01-09_07h53.00.986,MetaAwareness,2020.1.2,Win32,60,33J5JKFMK71K7ZT547GJWPII6TEQ31,A3FES0O1E6NHO7,3FPRZHYEPZAFYRNGG8FVQVCED0MV3R,EZPF9,EZPF9,3FPRZHYEPZAFYRNGG8FVQVCED0MV3R,3FPRZHYEPZAFYRNGG8FVQVCED0MV3R,268119,268119,,,,,,,,,,
,,,,3,7.61352,0,14,14,135,1,a hand towel with a fish and some letters. the letter in the box is small compared to the others,a hand towel witha a fish and some letters. the letter in the box is an apropriate size compared to the others.,ma,83785171,2,32,A3FES0O1E6NHO7,2021-01-09_07h53.00.986,MetaAwareness,2020.1.2,Win32,60,33J5JKFMK71K7ZT547GJWPII6TEQ31,A3FES0O1E6NHO7,3FPRZHYEPZAFYRNGG8FVQVCED0MV3R,EZPF9,EZPF9,3FPRZHYEPZAFYRNGG8FVQVCED0MV3R,3FPRZHYEPZAFYRNGG8FVQVCED0MV3R,268119,268119,,,,,,,,,,
,,,,4,6.807545,0,15,15,30,1,a cluttered decorative table with loose stones in the right corner,a cluttered decorative table with a photo in the right corner,ma,22020472,6,32,A3FES0O1E6NHO7,2021-01-09_07h53.00.986,MetaAwareness,2020.1.2,Win32,60,33J5JKFMK71K7ZT547GJWPII6TEQ31,A3FES0O1E6NHO7,3FPRZHYEPZAFYRNGG8FVQVCED0MV3R,EZPF9,EZPF9,3FPRZHYEPZAFYRNGG8FVQVCED0MV3R,3FPRZHYEPZAFYRNGG8FVQVCED0MV3R,268119,268119,,,,,,,,,,
,,,,5,7.30009,0,16,16,59,1,a work bench with a variety of tools including a pencil and a hammer.,a work bench with a variety of tools including a hammer.,ma,45525109,3,32,A3FES0O1E6NHO7,2021-01-09_07h53.00.986,MetaAwareness,2020.1.2,Win32,60,33J5JKFMK71K7ZT547GJWPII6TEQ31,A3FES0O1E6NHO7,3FPRZHYEPZAFYRNGG8FVQVCED0MV3R,EZPF9,EZPF9,3FPRZHYEPZAFYRNGG8FVQVCED0MV3R,3FPRZHYEPZAFYRNGG8FVQVCED0MV3R,268119,268119,,,,,,,,,,
,,,,4,10.72413,0,17,17,61,1,a display window containing many cakes including a black cake with a yellow smile,a display window containing many cakes includinga black cake with a red smile,ma,46635293,4,32,A3FES0O1E6NHO7,2021-01-09_07h53.00.986,MetaAwareness,2020.1.2,Win32,60,33J5JKFMK71K7ZT547GJWPII6TEQ31,A3FES0O1E6NHO7,3FPRZHYEPZAFYRNGG8FVQVCED0MV3R,EZPF9,EZPF9,3FPRZHYEPZAFYRNGG8FVQVCED0MV3R,3FPRZHYEPZAFYRNGG8FVQVCED0MV3R,268119,268119,,,,,,,,,,
,,,,4,6.793865,0,18,18,147,1,a set of 6 cloths in the shape of whirls and with buttons in the middle,a set of 6 cloths in the shape of swirls all with a button in the middle except one,ma,90405028,2,32,A3FES0O1E6NHO7,2021-01-09_07h53.00.986,MetaAwareness,2020.1.2,Win32,60,33J5JKFMK71K7ZT547GJWPII6TEQ31,A3FES0O1E6NHO7,3FPRZHYEPZAFYRNGG8FVQVCED0MV3R,EZPF9,EZPF9,3FPRZHYEPZAFYRNGG8FVQVCED0MV3R,3FPRZHYEPZAFYRNGG8FVQVCED0MV3R,268119,268119,,,,,,,,,,
,,,,4,9.497155,0,19,19,9,1,"the inside of a hot air baloon that features a colorful pattern of pink, red, yellow, blue and green","the inside of a hot air balloon that features a colorful pattern of red, yellow, blue and green",ma,12178414,2,32,A3FES0O1E6NHO7,2021-01-09_07h53.00.986,MetaAwareness,2020.1.2,Win32,60,33J5JKFMK71K7ZT547GJWPII6TEQ31,A3FES0O1E6NHO7,3FPRZHYEPZAFYRNGG8FVQVCED0MV3R,EZPF9,EZPF9,3FPRZHYEPZAFYRNGG8FVQVCED0MV3R,3FPRZHYEPZAFYRNGG8FVQVCED0MV3R,268119,268119,,,,,,,,,,
,,,,5,7.769535,0,20,20,77,1,a room with seven musical insturments on the wall,a room with six musical insturments on the wall,ma,57861456,7,32,A3FES0O1E6NHO7,2021-01-09_07h53.00.986,MetaAwareness,2020.1.2,Win32,60,33J5JKFMK71K7ZT547GJWPII6TEQ31,A3FES0O1E6NHO7,3FPRZHYEPZAFYRNGG8FVQVCED0MV3R,EZPF9,EZPF9,3FPRZHYEPZAFYRNGG8FVQVCED0MV3R,3FPRZHYEPZAFYRNGG8FVQVCED0MV3R,268119,268119,,,,,,,,,,
,,,,5,6.51966,0,21,21,152,1,a building with six windows where the second window is closed along with others.,a building with six windows where the second window is half opened unlike others.,ma,95091295,11,32,A3FES0O1E6NHO7,2021-01-09_07h53.00.986,MetaAwareness,2020.1.2,Win32,60,33J5JKFMK71K7ZT547GJWPII6TEQ31,A3FES0O1E6NHO7,3FPRZHYEPZAFYRNGG8FVQVCED0MV3R,EZPF9,EZPF9,3FPRZHYEPZAFYRNGG8FVQVCED0MV3R,3FPRZHYEPZAFYRNGG8FVQVCED0MV3R,268119,268119,,,,,,,,,,
,,,,1,9.458345,0,22,22,60,1,a pantry area in a home kitchen,a small container in a pantry. i'm guessing it contains tea,ma,46475259,1,32,A3FES0O1E6NHO7,2021-01-09_07h53.00.986,MetaAwareness,2020.1.2,Win32,60,33J5JKFMK71K7ZT547GJWPII6TEQ31,A3FES0O1E6NHO7,3FPRZHYEPZAFYRNGG8FVQVCED0MV3R,EZPF9,EZPF9,3FPRZHYEPZAFYRNGG8FVQVCED0MV3R,3FPRZHYEPZAFYRNGG8FVQVCED0MV3R,268119,268119,,,,,,,,,,
,,,,3,12.14132,0,23,23,28,1,"a cluttered room with a chest of drawers an lots of nicknacks on it a yellow cloth with a vase, lamp and picture sitting on the chest.","a cluttered room with a ches of drawers and lots of nicknacks on the chest a yellow cloth is on the corner with a vase, lamp, picture frame, and pile of purple stuff.",ma,22020472,2,32,A3FES0O1E6NHO7,2021-01-09_07h53.00.986,MetaAwareness,2020.1.2,Win32,60,33J5JKFMK71K7ZT547GJWPII6TEQ31,A3FES0O1E6NHO7,3FPRZHYEPZAFYRNGG8FVQVCED0MV3R,EZPF9,EZPF9,3FPRZHYEPZAFYRNGG8FVQVCED0MV3R,3FPRZHYEPZAFYRNGG8FVQVCED0MV3R,268119,268119,,,,,,,,,,
,,,,4,13.532815,0,24,24,26,1,pirate-themed cupcakes with a small pirate with a red bandana and eyepatch decoration with brown bags in the back with a smiley face on them,pirate themed cupcakes with a small pirates with red bandana and eyepatch decorations with brown bags with a smiley face on them,ma,18345691,3,32,A3FES0O1E6NHO7,2021-01-09_07h53.00.986,MetaAwareness,2020.1.2,Win32,60,33J5JKFMK71K7ZT547GJWPII6TEQ31,A3FES0O1E6NHO7,3FPRZHYEPZAFYRNGG8FVQVCED0MV3R,EZPF9,EZPF9,3FPRZHYEPZAFYRNGG8FVQVCED0MV3R,3FPRZHYEPZAFYRNGG8FVQVCED0MV3R,268119,268119,,,,,,,,,,
,,,,5,7.687825,0,25,25,62,1,a bakery full of sweet including a face cake with a yellow mouth,a bakery full of sweets including a face cake with a red mouth,ma,46635293,8,32,A3FES0O1E6NHO7,2021-01-09_07h53.00.986,MetaAwareness,2020.1.2,Win32,60,33J5JKFMK71K7ZT547GJWPII6TEQ31,A3FES0O1E6NHO7,3FPRZHYEPZAFYRNGG8FVQVCED0MV3R,EZPF9,EZPF9,3FPRZHYEPZAFYRNGG8FVQVCED0MV3R,3FPRZHYEPZAFYRNGG8FVQVCED0MV3R,268119,268119,,,,,,,,,,
,,,,6,8.95731,0,26,26,131,1,a table with a tablecloth and dishes,a table with a tablecloth and dishes,ma,81993755,5,32,A3FES0O1E6NHO7,2021-01-09_07h53.00.986,MetaAwareness,2020.1.2,Win32,60,33J5JKFMK71K7ZT547GJWPII6TEQ31,A3FES0O1E6NHO7,3FPRZHYEPZAFYRNGG8FVQVCED0MV3R,EZPF9,EZPF9,3FPRZHYEPZAFYRNGG8FVQVCED0MV3R,3FPRZHYEPZAFYRNGG8FVQVCED0MV3R,268119,268119,,,,,,,,,,
,,,,2,8.77225,0,27,27,43,1,elephant keychains laying on a table cloth with french writing,elephant keychains laying on a tablecloth with the french word des emphasized,ma,25107991,6,32,A3FES0O1E6NHO7,2021-01-09_07h53.00.986,MetaAwareness,2020.1.2,Win32,60,33J5JKFMK71K7ZT547GJWPII6TEQ31,A3FES0O1E6NHO7,3FPRZHYEPZAFYRNGG8FVQVCED0MV3R,EZPF9,EZPF9,3FPRZHYEPZAFYRNGG8FVQVCED0MV3R,3FPRZHYEPZAFYRNGG8FVQVCED0MV3R,268119,268119,,,,,,,,,,
,,,,3,5.710885,0,28,28,127,1,an electronic board with 5 small metal rods in the center and 1 long metal rod,an electronic board with 6 sall metal rods in the center,ma,8197559,4,32,A3FES0O1E6NHO7,2021-01-09_07h53.00.986,MetaAwareness,2020.1.2,Win32,60,33J5JKFMK71K7ZT547GJWPII6TEQ31,A3FES0O1E6NHO7,3FPRZHYEPZAFYRNGG8FVQVCED0MV3R,EZPF9,EZPF9,3FPRZHYEPZAFYRNGG8FVQVCED0MV3R,3FPRZHYEPZAFYRNGG8FVQVCED0MV3R,268119,268119,,,,,,,,,,
,,,,5,5.6267,0,29,29,23,1,a rock shop having a longer window on the wall,a rock shop having a shorter window on the wall,ma,16527526,3,32,A3FES0O1E6NHO7,2021-01-09_07h53.00.986,MetaAwareness,2020.1.2,Win32,60,33J5JKFMK71K7ZT547GJWPII6TEQ31,A3FES0O1E6NHO7,3FPRZHYEPZAFYRNGG8FVQVCED0MV3R,EZPF9,EZPF9,3FPRZHYEPZAFYRNGG8FVQVCED0MV3R,3FPRZHYEPZAFYRNGG8FVQVCED0MV3R,268119,268119,,,,,,,,,,
,,,,,,,,,,,,,,,,32,A3FES0O1E6NHO7,2021-01-09_07h53.00.986,MetaAwareness,2020.1.2,Win32,60,33J5JKFMK71K7ZT547GJWPII6TEQ31,A3FES0O1E6NHO7,3FPRZHYEPZAFYRNGG8FVQVCED0MV3R,EZPF9,EZPF9,3FPRZHYEPZAFYRNGG8FVQVCED0MV3R,3FPRZHYEPZAFYRNGG8FVQVCED0MV3R,268119,268119,6,7.42929,someone laying underneath a blue beach umbrella on a crowded beach,someone laying underneath a blue beach umbrella on a crowded beach,same,1,4.66591,members of a marching band crossing a track that all have feather plumes at the front of their hats,a cluttered and rustic looking cafe with 10 hanging lights,different
