consent_response.keys,consent_response.rt,key_resp_2.keys,key_resp_2.rt,user_resp.keys,user_resp.rt,trials.thisRepN,trials.thisTrialN,trials.thisN,trials.thisIndex,trials.ran,image_1_text,image_2_text,database,image,number,age,worker_ID,date,expName,psychopyVersion,OS,frameRate,hitId,workerId,assignmentId,a,tp_a,b,tp_b,c,tp_c,catch_same_resp.keys,catch_same_resp.rt,image_1_text_catch_same,image_2_text_catch_same,image_catch_same,catch_different_resp.keys,catch_different_resp.rt,image_1_text_catch_different,image_2_text_catch_different,image_catch_different
space,7.68337,space,12.50305,4,10.09801,0,0,0,583,1,a roof deck overlooks the ocean and a teal house,a roof deck overlooks the ocean and a pink house,wolfe1,image-136,1,39,A10VA2IF9D0HRI,2021-01-08_14h28.36.668,MetaAwareness,2020.1.2,MacIntel,60,3XDJY5RK5TOXHOJQLU57GV7DNEV4UK,A10VA2IF9D0HRI,388U7OUMF84ROS72O1S2N0P4PG90RO,M7888,M7888,388U7OUMF84ROS72O1S2N0P4PG90RO,388U7OUMF84ROS72O1S2N0P4PG90RO,268048,268048,,,,,,,,,,
,,,,3,11.07524,0,1,1,149,1,a group of people sitting on grass in front of a building with a white object laying behind them,a group of people sitting on grass in front of a building with nothing laying behind them,wolfe1,image-028,2,39,A10VA2IF9D0HRI,2021-01-08_14h28.36.668,MetaAwareness,2020.1.2,MacIntel,60,3XDJY5RK5TOXHOJQLU57GV7DNEV4UK,A10VA2IF9D0HRI,388U7OUMF84ROS72O1S2N0P4PG90RO,M7888,M7888,388U7OUMF84ROS72O1S2N0P4PG90RO,388U7OUMF84ROS72O1S2N0P4PG90RO,268048,268048,,,,,,,,,,
,,,,6,22.01572,0,2,2,123,1,joggers running past a fountain that has benches on either side,joggers running past a fountain that has benches on one side,wolfe1,image-022,3,39,A10VA2IF9D0HRI,2021-01-08_14h28.36.668,MetaAwareness,2020.1.2,MacIntel,60,3XDJY5RK5TOXHOJQLU57GV7DNEV4UK,A10VA2IF9D0HRI,388U7OUMF84ROS72O1S2N0P4PG90RO,M7888,M7888,388U7OUMF84ROS72O1S2N0P4PG90RO,388U7OUMF84ROS72O1S2N0P4PG90RO,268048,268048,,,,,,,,,,
,,,,2,9.363075,0,3,3,72,1,"many people are enjoying an outdoor concert in the grass, there is a blanket with no one on it",many people are enjoying an outdoor concert in the grass,wolfe1,image-014,1,39,A10VA2IF9D0HRI,2021-01-08_14h28.36.668,MetaAwareness,2020.1.2,MacIntel,60,3XDJY5RK5TOXHOJQLU57GV7DNEV4UK,A10VA2IF9D0HRI,388U7OUMF84ROS72O1S2N0P4PG90RO,M7888,M7888,388U7OUMF84ROS72O1S2N0P4PG90RO,388U7OUMF84ROS72O1S2N0P4PG90RO,268048,268048,,,,,,,,,,
,,,,5,11.29455,0,4,4,338,1,"five boys sitting in a room and one boy's shirt has blue, tan, and white stripes","five boys sitting in a room and one boy's shirt has purple, tan, and white stripes",wolfe1,image-089,5,39,A10VA2IF9D0HRI,2021-01-08_14h28.36.668,MetaAwareness,2020.1.2,MacIntel,60,3XDJY5RK5TOXHOJQLU57GV7DNEV4UK,A10VA2IF9D0HRI,388U7OUMF84ROS72O1S2N0P4PG90RO,M7888,M7888,388U7OUMF84ROS72O1S2N0P4PG90RO,388U7OUMF84ROS72O1S2N0P4PG90RO,268048,268048,,,,,,,,,,
,,,,3,25.12937,0,5,5,75,1,people sitting on blankets on a lawn listening to a concert on a stage with a vacant blanket at the left,people sitting on blankets on a lawn listening to a concert on a stage with no blanket on the lawn to the left,wolfe1,image-014,4,39,A10VA2IF9D0HRI,2021-01-08_14h28.36.668,MetaAwareness,2020.1.2,MacIntel,60,3XDJY5RK5TOXHOJQLU57GV7DNEV4UK,A10VA2IF9D0HRI,388U7OUMF84ROS72O1S2N0P4PG90RO,M7888,M7888,388U7OUMF84ROS72O1S2N0P4PG90RO,388U7OUMF84ROS72O1S2N0P4PG90RO,268048,268048,,,,,,,,,,
,,,,5,7.69702,0,6,6,292,1,a mall with storefronts with red in the windows,a mall with storefronts with purple in the windows,wolfe1,image-079,6,39,A10VA2IF9D0HRI,2021-01-08_14h28.36.668,MetaAwareness,2020.1.2,MacIntel,60,3XDJY5RK5TOXHOJQLU57GV7DNEV4UK,A10VA2IF9D0HRI,388U7OUMF84ROS72O1S2N0P4PG90RO,M7888,M7888,388U7OUMF84ROS72O1S2N0P4PG90RO,388U7OUMF84ROS72O1S2N0P4PG90RO,268048,268048,,,,,,,,,,
,,,,5,5.77794,0,7,7,287,1,a man walking in a crowd wearing a blue stripped shirt,a man walking in a crowd wearing a green stripped shirt,wolfe1,image-078,5,39,A10VA2IF9D0HRI,2021-01-08_14h28.36.668,MetaAwareness,2020.1.2,MacIntel,60,3XDJY5RK5TOXHOJQLU57GV7DNEV4UK,A10VA2IF9D0HRI,388U7OUMF84ROS72O1S2N0P4PG90RO,M7888,M7888,388U7OUMF84ROS72O1S2N0P4PG90RO,388U7OUMF84ROS72O1S2N0P4PG90RO,268048,268048,,,,,,,,,,
,,,,5,8.62726,0,8,8,295,1,"patrons sit near an outdoor bar, with a green umbrella nearby","patrons sit near an outdoor bar, with a purple umbrella nearby",wolfe1,image-080,3,39,A10VA2IF9D0HRI,2021-01-08_14h28.36.668,MetaAwareness,2020.1.2,MacIntel,60,3XDJY5RK5TOXHOJQLU57GV7DNEV4UK,A10VA2IF9D0HRI,388U7OUMF84ROS72O1S2N0P4PG90RO,M7888,M7888,388U7OUMF84ROS72O1S2N0P4PG90RO,388U7OUMF84ROS72O1S2N0P4PG90RO,268048,268048,,,,,,,,,,
,,,,5,4.4007,0,9,9,323,1,child in red playing around,child in purple running around,wolfe1,image-086,2,39,A10VA2IF9D0HRI,2021-01-08_14h28.36.668,MetaAwareness,2020.1.2,MacIntel,60,3XDJY5RK5TOXHOJQLU57GV7DNEV4UK,A10VA2IF9D0HRI,388U7OUMF84ROS72O1S2N0P4PG90RO,M7888,M7888,388U7OUMF84ROS72O1S2N0P4PG90RO,388U7OUMF84ROS72O1S2N0P4PG90RO,268048,268048,,,,,,,,,,
,,,,2,8.7275,0,10,10,91,1,a group of men are on a golf course golfing next a small box,a group of men are golfing on the fairway of a golf course,wolfe1,image-017,2,39,A10VA2IF9D0HRI,2021-01-08_14h28.36.668,MetaAwareness,2020.1.2,MacIntel,60,3XDJY5RK5TOXHOJQLU57GV7DNEV4UK,A10VA2IF9D0HRI,388U7OUMF84ROS72O1S2N0P4PG90RO,M7888,M7888,388U7OUMF84ROS72O1S2N0P4PG90RO,388U7OUMF84ROS72O1S2N0P4PG90RO,268048,268048,,,,,,,,,,
,,,,1,11.558945,0,11,11,176,1,men playing basketball in front of a crowd with a blue awning in the top left corner.,men playing basketball in front of a crowd with no awning visible.,wolfe1,image-033,3,39,A10VA2IF9D0HRI,2021-01-08_14h28.36.668,MetaAwareness,2020.1.2,MacIntel,60,3XDJY5RK5TOXHOJQLU57GV7DNEV4UK,A10VA2IF9D0HRI,388U7OUMF84ROS72O1S2N0P4PG90RO,M7888,M7888,388U7OUMF84ROS72O1S2N0P4PG90RO,388U7OUMF84ROS72O1S2N0P4PG90RO,268048,268048,,,,,,,,,,
,,,,2,5.188105,0,12,12,68,1,six men playing instruments outside of a store that has a sign on the building next to them,six men playing instruments outside of a store that has a plain building next to it,wolfe1,image-013,1,39,A10VA2IF9D0HRI,2021-01-08_14h28.36.668,MetaAwareness,2020.1.2,MacIntel,60,3XDJY5RK5TOXHOJQLU57GV7DNEV4UK,A10VA2IF9D0HRI,388U7OUMF84ROS72O1S2N0P4PG90RO,M7888,M7888,388U7OUMF84ROS72O1S2N0P4PG90RO,388U7OUMF84ROS72O1S2N0P4PG90RO,268048,268048,,,,,,,,,,
,,,,3,7.153945,0,13,13,217,1,"a factory lies off in the distance, next to a pond with large rocks both in and out of the water","a factory lies off in the distance, next to a pond with large rocks out of the water",wolfe1,image-041,6,39,A10VA2IF9D0HRI,2021-01-08_14h28.36.668,MetaAwareness,2020.1.2,MacIntel,60,3XDJY5RK5TOXHOJQLU57GV7DNEV4UK,A10VA2IF9D0HRI,388U7OUMF84ROS72O1S2N0P4PG90RO,M7888,M7888,388U7OUMF84ROS72O1S2N0P4PG90RO,388U7OUMF84ROS72O1S2N0P4PG90RO,268048,268048,,,,,,,,,,
,,,,5,5.906305,0,14,14,389,1,men in pink robes are performing a ritual while a group including a man in an orange jacket watch,men in pink robes are performing a ritaul while a group including a man in a green jacket watch,wolfe1,image-099,3,39,A10VA2IF9D0HRI,2021-01-08_14h28.36.668,MetaAwareness,2020.1.2,MacIntel,60,3XDJY5RK5TOXHOJQLU57GV7DNEV4UK,A10VA2IF9D0HRI,388U7OUMF84ROS72O1S2N0P4PG90RO,M7888,M7888,388U7OUMF84ROS72O1S2N0P4PG90RO,388U7OUMF84ROS72O1S2N0P4PG90RO,268048,268048,,,,,,,,,,
,,,,6,11.061915,0,15,15,99,1,"a group camps on a beach, their kayaks and tents and chairs set up on the sand, including one overlooking the horizon.","a group camps on a beach, their kayaks and tents and chairs set up on the sand, though none overlook the horizon.",wolfe1,image-018,1,39,A10VA2IF9D0HRI,2021-01-08_14h28.36.668,MetaAwareness,2020.1.2,MacIntel,60,3XDJY5RK5TOXHOJQLU57GV7DNEV4UK,A10VA2IF9D0HRI,388U7OUMF84ROS72O1S2N0P4PG90RO,M7888,M7888,388U7OUMF84ROS72O1S2N0P4PG90RO,388U7OUMF84ROS72O1S2N0P4PG90RO,268048,268048,,,,,,,,,,
,,,,3,5.598425,0,16,16,125,1,three runners run past three birds behind them,three runners run past green grass behind them,wolfe1,image-022,5,39,A10VA2IF9D0HRI,2021-01-08_14h28.36.668,MetaAwareness,2020.1.2,MacIntel,60,3XDJY5RK5TOXHOJQLU57GV7DNEV4UK,A10VA2IF9D0HRI,388U7OUMF84ROS72O1S2N0P4PG90RO,M7888,M7888,388U7OUMF84ROS72O1S2N0P4PG90RO,388U7OUMF84ROS72O1S2N0P4PG90RO,268048,268048,,,,,,,,,,
,,,,1,4.552235,0,17,17,124,1,people jog past a fountain with three american flags next to it,people jog by a fountain surrounded by green grass,wolfe1,image-022,4,39,A10VA2IF9D0HRI,2021-01-08_14h28.36.668,MetaAwareness,2020.1.2,MacIntel,60,3XDJY5RK5TOXHOJQLU57GV7DNEV4UK,A10VA2IF9D0HRI,388U7OUMF84ROS72O1S2N0P4PG90RO,M7888,M7888,388U7OUMF84ROS72O1S2N0P4PG90RO,388U7OUMF84ROS72O1S2N0P4PG90RO,268048,268048,,,,,,,,,,
,,,,5,6.63392,0,18,18,355,1,several kids learning a dance in a school gym. a girl close to the front has on pink pants,several kids leanring a dance in a school gym. a girl close to the front has on green pants,wolfe1,image-093,6,39,A10VA2IF9D0HRI,2021-01-08_14h28.36.668,MetaAwareness,2020.1.2,MacIntel,60,3XDJY5RK5TOXHOJQLU57GV7DNEV4UK,A10VA2IF9D0HRI,388U7OUMF84ROS72O1S2N0P4PG90RO,M7888,M7888,388U7OUMF84ROS72O1S2N0P4PG90RO,388U7OUMF84ROS72O1S2N0P4PG90RO,268048,268048,,,,,,,,,,
,,,,5,6.06138,0,19,19,475,1,a lookout building near an athletic field with red metal coverings over the windows.,a lookout building near an athletic field with green metal coverings over the windows.,wolfe1,image-116,3,39,A10VA2IF9D0HRI,2021-01-08_14h28.36.668,MetaAwareness,2020.1.2,MacIntel,60,3XDJY5RK5TOXHOJQLU57GV7DNEV4UK,A10VA2IF9D0HRI,388U7OUMF84ROS72O1S2N0P4PG90RO,M7888,M7888,388U7OUMF84ROS72O1S2N0P4PG90RO,388U7OUMF84ROS72O1S2N0P4PG90RO,268048,268048,,,,,,,,,,
,,,,1,5.97145,0,20,20,172,1,several pigeons are next to a group of people who are feeding them,a groupof four people are feeding a large group of hungry black pigeons,wolfe1,image-032,6,39,A10VA2IF9D0HRI,2021-01-08_14h28.36.668,MetaAwareness,2020.1.2,MacIntel,60,3XDJY5RK5TOXHOJQLU57GV7DNEV4UK,A10VA2IF9D0HRI,388U7OUMF84ROS72O1S2N0P4PG90RO,M7888,M7888,388U7OUMF84ROS72O1S2N0P4PG90RO,388U7OUMF84ROS72O1S2N0P4PG90RO,268048,268048,,,,,,,,,,
,,,,2,11.64747,0,21,21,97,1,"three men watching a fourth man at a golf course, where the fourth man is standing in front of a small tee flag and getting ready to hit the ball","three men watching a fourth man at a golf course, where the fourth man is getting ready to hit the ball",wolfe1,image-017,8,39,A10VA2IF9D0HRI,2021-01-08_14h28.36.668,MetaAwareness,2020.1.2,MacIntel,60,3XDJY5RK5TOXHOJQLU57GV7DNEV4UK,A10VA2IF9D0HRI,388U7OUMF84ROS72O1S2N0P4PG90RO,M7888,M7888,388U7OUMF84ROS72O1S2N0P4PG90RO,388U7OUMF84ROS72O1S2N0P4PG90RO,268048,268048,,,,,,,,,,
,,,,4,7.56605,0,22,22,563,1,a living room scene including a couch with two orange pillows,a living room scene including a couch with one orange and one yellow pillow,wolfe1,image-132,4,39,A10VA2IF9D0HRI,2021-01-08_14h28.36.668,MetaAwareness,2020.1.2,MacIntel,60,3XDJY5RK5TOXHOJQLU57GV7DNEV4UK,A10VA2IF9D0HRI,388U7OUMF84ROS72O1S2N0P4PG90RO,M7888,M7888,388U7OUMF84ROS72O1S2N0P4PG90RO,388U7OUMF84ROS72O1S2N0P4PG90RO,268048,268048,,,,,,,,,,
,,,,5,8.31965,0,23,23,330,1,"a woman browses a table at a yard sale, ignoring the blue plastic toy to her right on the table.","a woman browses a table at a yard sale, ignoring the purple plastic toy to her right on the table.",wolfe1,image-087,4,39,A10VA2IF9D0HRI,2021-01-08_14h28.36.668,MetaAwareness,2020.1.2,MacIntel,60,3XDJY5RK5TOXHOJQLU57GV7DNEV4UK,A10VA2IF9D0HRI,388U7OUMF84ROS72O1S2N0P4PG90RO,M7888,M7888,388U7OUMF84ROS72O1S2N0P4PG90RO,388U7OUMF84ROS72O1S2N0P4PG90RO,268048,268048,,,,,,,,,,
,,,,5,8.501045,0,24,24,18,1,five girls jump in the air in their cap and gowns while standing in front of a bench,five girls jump in the air in their cap and gowns while standing in front of a tree,wolfe1,image-005,1,39,A10VA2IF9D0HRI,2021-01-08_14h28.36.668,MetaAwareness,2020.1.2,MacIntel,60,3XDJY5RK5TOXHOJQLU57GV7DNEV4UK,A10VA2IF9D0HRI,388U7OUMF84ROS72O1S2N0P4PG90RO,M7888,M7888,388U7OUMF84ROS72O1S2N0P4PG90RO,388U7OUMF84ROS72O1S2N0P4PG90RO,268048,268048,,,,,,,,,,
,,,,4,3.143465,0,25,25,286,1,group of people and man in blue shirt,group of people and man in green shirt,wolfe1,image-078,4,39,A10VA2IF9D0HRI,2021-01-08_14h28.36.668,MetaAwareness,2020.1.2,MacIntel,60,3XDJY5RK5TOXHOJQLU57GV7DNEV4UK,A10VA2IF9D0HRI,388U7OUMF84ROS72O1S2N0P4PG90RO,M7888,M7888,388U7OUMF84ROS72O1S2N0P4PG90RO,388U7OUMF84ROS72O1S2N0P4PG90RO,268048,268048,,,,,,,,,,
,,,,5,7.773285,0,26,26,546,1,a jeans-wearing photographer looks at her photos as she stands outside an interestingly designed building,a gray pants-wearing photographer looks at her photos as she stands outside an interestingly designed building,wolfe1,image-129,7,39,A10VA2IF9D0HRI,2021-01-08_14h28.36.668,MetaAwareness,2020.1.2,MacIntel,60,3XDJY5RK5TOXHOJQLU57GV7DNEV4UK,A10VA2IF9D0HRI,388U7OUMF84ROS72O1S2N0P4PG90RO,M7888,M7888,388U7OUMF84ROS72O1S2N0P4PG90RO,388U7OUMF84ROS72O1S2N0P4PG90RO,268048,268048,,,,,,,,,,
,,,,4,5.42327,0,27,27,387,1,a group of people wearing red robes while a man in an orange jacket watches,a group of people wearing red robes while a man in a green jacket watches,wolfe1,image-099,1,39,A10VA2IF9D0HRI,2021-01-08_14h28.36.668,MetaAwareness,2020.1.2,MacIntel,60,3XDJY5RK5TOXHOJQLU57GV7DNEV4UK,A10VA2IF9D0HRI,388U7OUMF84ROS72O1S2N0P4PG90RO,M7888,M7888,388U7OUMF84ROS72O1S2N0P4PG90RO,388U7OUMF84ROS72O1S2N0P4PG90RO,268048,268048,,,,,,,,,,
,,,,4,6.143895,0,28,28,573,1,a fancy outside living room with a red surfboard hung on the wall.,a fancy outside sitting area with a green surf board hung on the wall.,wolfe1,image-133,8,39,A10VA2IF9D0HRI,2021-01-08_14h28.36.668,MetaAwareness,2020.1.2,MacIntel,60,3XDJY5RK5TOXHOJQLU57GV7DNEV4UK,A10VA2IF9D0HRI,388U7OUMF84ROS72O1S2N0P4PG90RO,M7888,M7888,388U7OUMF84ROS72O1S2N0P4PG90RO,388U7OUMF84ROS72O1S2N0P4PG90RO,268048,268048,,,,,,,,,,
,,,,5,15.71446,0,29,29,510,1,a green sign that has red lettering is in the window of the shop in the blue building,a red sign that has red lettering is in the window of the shop in the blue building,wolfe1,image-123,3,39,A10VA2IF9D0HRI,2021-01-08_14h28.36.668,MetaAwareness,2020.1.2,MacIntel,60,3XDJY5RK5TOXHOJQLU57GV7DNEV4UK,A10VA2IF9D0HRI,388U7OUMF84ROS72O1S2N0P4PG90RO,M7888,M7888,388U7OUMF84ROS72O1S2N0P4PG90RO,388U7OUMF84ROS72O1S2N0P4PG90RO,268048,268048,,,,,,,,,,
,,,,,,,,,,,,,,,,39,A10VA2IF9D0HRI,2021-01-08_14h28.36.668,MetaAwareness,2020.1.2,MacIntel,60,3XDJY5RK5TOXHOJQLU57GV7DNEV4UK,A10VA2IF9D0HRI,388U7OUMF84ROS72O1S2N0P4PG90RO,M7888,M7888,388U7OUMF84ROS72O1S2N0P4PG90RO,388U7OUMF84ROS72O1S2N0P4PG90RO,268048,268048,6,6.19809,someone laying underneath a blue beach umbrella on a crowded beach,someone laying underneath a blue beach umbrella on a crowded beach,same,1,6.880815,members of a marching band crossing a track that all have feather plumes at the front of their hats,a cluttered and rustic looking cafe with 10 hanging lights,different
