consent_response.keys,consent_response.rt,key_resp_2.keys,key_resp_2.rt,user_resp.keys,user_resp.rt,trials.thisRepN,trials.thisTrialN,trials.thisN,trials.thisIndex,trials.ran,image_1_text,image_2_text,database,image,number,age,worker_ID,date,expName,psychopyVersion,OS,frameRate,hitId,workerId,assignmentId,a,tp_a,b,tp_b,c,tp_c,catch_same_resp.keys,catch_same_resp.rt,image_1_text_catch_same,image_2_text_catch_same,image_catch_same,catch_different_resp.keys,catch_different_resp.rt,image_1_text_catch_different,image_2_text_catch_different,image_catch_different
space,15.649,space,54.12,5,4.09,0,0,0,122,1,three people running with a fountain and two benches visible in the background,three people running with a fountain and one bench visible in the background.,wolfe1,image-022,2,34,A16CB759HYBUPY,2021-01-08_14h19.13.144,MetaAwareness,2020.1.2,Win32,60,3XDJY5RK5TOXHOJQLU57GV7DNEV4UK,A16CB759HYBUPY,3VD82FOHKRR8L7A28P4IO6M0NILOCV,H2DV8,H2DV8,3VD82FOHKRR8L7A28P4IO6M0NILOCV,3VD82FOHKRR8L7A28P4IO6M0NILOCV,268048,268048,,,,,,,,,,
,,,,5,4.234,0,1,1,430,1,there is a blue candlestick on top of the purple ones,there is only a green candlestick on top of the purple candle,wolfe1,image-107,8,34,A16CB759HYBUPY,2021-01-08_14h19.13.144,MetaAwareness,2020.1.2,Win32,60,3XDJY5RK5TOXHOJQLU57GV7DNEV4UK,A16CB759HYBUPY,3VD82FOHKRR8L7A28P4IO6M0NILOCV,H2DV8,H2DV8,3VD82FOHKRR8L7A28P4IO6M0NILOCV,3VD82FOHKRR8L7A28P4IO6M0NILOCV,268048,268048,,,,,,,,,,
,,,,5,31.435,0,2,2,463,1,people walking on a street in front of a store with a red awning,people walking on a street in front of a store with a yellow awning,wolfe1,image-113,6,34,A16CB759HYBUPY,2021-01-08_14h19.13.144,MetaAwareness,2020.1.2,Win32,60,3XDJY5RK5TOXHOJQLU57GV7DNEV4UK,A16CB759HYBUPY,3VD82FOHKRR8L7A28P4IO6M0NILOCV,H2DV8,H2DV8,3VD82FOHKRR8L7A28P4IO6M0NILOCV,3VD82FOHKRR8L7A28P4IO6M0NILOCV,268048,268048,,,,,,,,,,
,,,,5,1.987,0,3,3,217,1,"a factory lies off in the distance, next to a pond with large rocks both in and out of the water","a factory lies off in the distance, next to a pond with large rocks out of the water",wolfe1,image-041,6,34,A16CB759HYBUPY,2021-01-08_14h19.13.144,MetaAwareness,2020.1.2,Win32,60,3XDJY5RK5TOXHOJQLU57GV7DNEV4UK,A16CB759HYBUPY,3VD82FOHKRR8L7A28P4IO6M0NILOCV,H2DV8,H2DV8,3VD82FOHKRR8L7A28P4IO6M0NILOCV,3VD82FOHKRR8L7A28P4IO6M0NILOCV,268048,268048,,,,,,,,,,
,,,,4,1.672,0,4,4,117,1,a pink and white striped bag sitting in a crowd,some grass in the middle of a crowd of people,wolfe1,image-020,7,34,A16CB759HYBUPY,2021-01-08_14h19.13.144,MetaAwareness,2020.1.2,Win32,60,3XDJY5RK5TOXHOJQLU57GV7DNEV4UK,A16CB759HYBUPY,3VD82FOHKRR8L7A28P4IO6M0NILOCV,H2DV8,H2DV8,3VD82FOHKRR8L7A28P4IO6M0NILOCV,3VD82FOHKRR8L7A28P4IO6M0NILOCV,268048,268048,,,,,,,,,,
,,,,4,10.855,0,5,5,511,1,three buildings on a street with a shop that has a green window above a sign,three buildings on a street with a shop that has a red window above a sign,wolfe1,image-123,4,34,A16CB759HYBUPY,2021-01-08_14h19.13.144,MetaAwareness,2020.1.2,Win32,60,3XDJY5RK5TOXHOJQLU57GV7DNEV4UK,A16CB759HYBUPY,3VD82FOHKRR8L7A28P4IO6M0NILOCV,H2DV8,H2DV8,3VD82FOHKRR8L7A28P4IO6M0NILOCV,3VD82FOHKRR8L7A28P4IO6M0NILOCV,268048,268048,,,,,,,,,,
,,,,4,1.799,0,6,6,242,1,people gathered around a spot where they will be digging with a white container sitting in front of one man.,people gathered around a spot where they will be digging.,wolfe1,image-046,1,34,A16CB759HYBUPY,2021-01-08_14h19.13.144,MetaAwareness,2020.1.2,Win32,60,3XDJY5RK5TOXHOJQLU57GV7DNEV4UK,A16CB759HYBUPY,3VD82FOHKRR8L7A28P4IO6M0NILOCV,H2DV8,H2DV8,3VD82FOHKRR8L7A28P4IO6M0NILOCV,3VD82FOHKRR8L7A28P4IO6M0NILOCV,268048,268048,,,,,,,,,,
,,,,4,1.164,0,7,7,433,1,three men playing golf with a white house that has a grey roof in the background.,three men playing golf with a white house that has a brown roof in the background.,wolfe1,image-108,3,34,A16CB759HYBUPY,2021-01-08_14h19.13.144,MetaAwareness,2020.1.2,Win32,60,3XDJY5RK5TOXHOJQLU57GV7DNEV4UK,A16CB759HYBUPY,3VD82FOHKRR8L7A28P4IO6M0NILOCV,H2DV8,H2DV8,3VD82FOHKRR8L7A28P4IO6M0NILOCV,3VD82FOHKRR8L7A28P4IO6M0NILOCV,268048,268048,,,,,,,,,,
,,,,3,0.678,0,8,8,353,1,a girl with pink pants exercises with other kids in a gymnasium,a girl with green pants exercises with other kids in a gymnasium,wolfe1,image-093,4,34,A16CB759HYBUPY,2021-01-08_14h19.13.144,MetaAwareness,2020.1.2,Win32,60,3XDJY5RK5TOXHOJQLU57GV7DNEV4UK,A16CB759HYBUPY,3VD82FOHKRR8L7A28P4IO6M0NILOCV,H2DV8,H2DV8,3VD82FOHKRR8L7A28P4IO6M0NILOCV,3VD82FOHKRR8L7A28P4IO6M0NILOCV,268048,268048,,,,,,,,,,
,,,,4,0.459,0,9,9,284,1,group of people following a tour guide. one man with a blue striped shirt looks off at one of the local clothing stores.,group of people following a tour guide. one man with a green striped shirt looks off at one of the local clothing stores.,wolfe1,image-078,2,34,A16CB759HYBUPY,2021-01-08_14h19.13.144,MetaAwareness,2020.1.2,Win32,60,3XDJY5RK5TOXHOJQLU57GV7DNEV4UK,A16CB759HYBUPY,3VD82FOHKRR8L7A28P4IO6M0NILOCV,H2DV8,H2DV8,3VD82FOHKRR8L7A28P4IO6M0NILOCV,3VD82FOHKRR8L7A28P4IO6M0NILOCV,268048,268048,,,,,,,,,,
,,,,3,0.292,0,10,10,499,1,a backyard table setting with a torqoise chair next to a buddha head,a backyard table setting with a purple chair next to a buddha head,wolfe1,image-120,4,34,A16CB759HYBUPY,2021-01-08_14h19.13.144,MetaAwareness,2020.1.2,Win32,60,3XDJY5RK5TOXHOJQLU57GV7DNEV4UK,A16CB759HYBUPY,3VD82FOHKRR8L7A28P4IO6M0NILOCV,H2DV8,H2DV8,3VD82FOHKRR8L7A28P4IO6M0NILOCV,3VD82FOHKRR8L7A28P4IO6M0NILOCV,268048,268048,,,,,,,,,,
,,,,4,1.95,0,11,11,278,1,there is a dirt track that has bmx riders racing on it. in the back there are two men among many watching the race. the two men have on white and yellow shirts.,there is a dirt tract that has bmx riders racing on it. in the back there are two men among many watching the race. the two men have on white and green shirts.,wolfe1,image-076,9,34,A16CB759HYBUPY,2021-01-08_14h19.13.144,MetaAwareness,2020.1.2,Win32,60,3XDJY5RK5TOXHOJQLU57GV7DNEV4UK,A16CB759HYBUPY,3VD82FOHKRR8L7A28P4IO6M0NILOCV,H2DV8,H2DV8,3VD82FOHKRR8L7A28P4IO6M0NILOCV,3VD82FOHKRR8L7A28P4IO6M0NILOCV,268048,268048,,,,,,,,,,
,,,,6,1.403,0,12,12,560,1,"a living room with two white sofas, a red pillow is used","a living room with two white sofas, a green pillow is used",wolfe1,image-132,1,34,A16CB759HYBUPY,2021-01-08_14h19.13.144,MetaAwareness,2020.1.2,Win32,60,3XDJY5RK5TOXHOJQLU57GV7DNEV4UK,A16CB759HYBUPY,3VD82FOHKRR8L7A28P4IO6M0NILOCV,H2DV8,H2DV8,3VD82FOHKRR8L7A28P4IO6M0NILOCV,3VD82FOHKRR8L7A28P4IO6M0NILOCV,268048,268048,,,,,,,,,,
,,,,5,1.135,0,13,13,592,1,umbrellas sit on a beach with a blue one at the rear,umbrellas sit on a beach with a yellow one at the rear,wolfe1,image-137,3,34,A16CB759HYBUPY,2021-01-08_14h19.13.144,MetaAwareness,2020.1.2,Win32,60,3XDJY5RK5TOXHOJQLU57GV7DNEV4UK,A16CB759HYBUPY,3VD82FOHKRR8L7A28P4IO6M0NILOCV,H2DV8,H2DV8,3VD82FOHKRR8L7A28P4IO6M0NILOCV,3VD82FOHKRR8L7A28P4IO6M0NILOCV,268048,268048,,,,,,,,,,
,,,,4,1.139,0,14,14,115,1,"many people at park sitting on blankets, with a pink and white bag",many people at a park sitting on blankets,wolfe1,image-020,5,34,A16CB759HYBUPY,2021-01-08_14h19.13.144,MetaAwareness,2020.1.2,Win32,60,3XDJY5RK5TOXHOJQLU57GV7DNEV4UK,A16CB759HYBUPY,3VD82FOHKRR8L7A28P4IO6M0NILOCV,H2DV8,H2DV8,3VD82FOHKRR8L7A28P4IO6M0NILOCV,3VD82FOHKRR8L7A28P4IO6M0NILOCV,268048,268048,,,,,,,,,,
,,,,6,1.729,0,15,15,210,1,kids playing basketball with an outdoor lamp on the wall behind the basketball goal,kids playing basketball with a red brick wall behind the basketball goal,wolfe1,image-040,6,34,A16CB759HYBUPY,2021-01-08_14h19.13.144,MetaAwareness,2020.1.2,Win32,60,3XDJY5RK5TOXHOJQLU57GV7DNEV4UK,A16CB759HYBUPY,3VD82FOHKRR8L7A28P4IO6M0NILOCV,H2DV8,H2DV8,3VD82FOHKRR8L7A28P4IO6M0NILOCV,3VD82FOHKRR8L7A28P4IO6M0NILOCV,268048,268048,,,,,,,,,,
,,,,4,0.342,0,16,16,130,1,there is a building tha appears to be a clinic. there are bushes outside and people are walking into the building,there is  large building that appears to be a clinic. there is one bush outside and people are walking into the building.,wolfe1,image-023,4,34,A16CB759HYBUPY,2021-01-08_14h19.13.144,MetaAwareness,2020.1.2,Win32,60,3XDJY5RK5TOXHOJQLU57GV7DNEV4UK,A16CB759HYBUPY,3VD82FOHKRR8L7A28P4IO6M0NILOCV,H2DV8,H2DV8,3VD82FOHKRR8L7A28P4IO6M0NILOCV,3VD82FOHKRR8L7A28P4IO6M0NILOCV,268048,268048,,,,,,,,,,
,,,,5,0.919,0,17,17,262,1,"a hammock between two palm trees by the ocean, while a palm leaf block the sun",a hammock between two palm trees by the ocea,wolfe1,image-049,2,34,A16CB759HYBUPY,2021-01-08_14h19.13.144,MetaAwareness,2020.1.2,Win32,60,3XDJY5RK5TOXHOJQLU57GV7DNEV4UK,A16CB759HYBUPY,3VD82FOHKRR8L7A28P4IO6M0NILOCV,H2DV8,H2DV8,3VD82FOHKRR8L7A28P4IO6M0NILOCV,3VD82FOHKRR8L7A28P4IO6M0NILOCV,268048,268048,,,,,,,,,,
,,,,4,0.375,0,18,18,158,1,there is a somewhat empty sidewalk along a street with shops and a sandwhich board in front of the jewelry shop,there is a somewhat empty sidewalk along a street with shops and no sandwhich boards on the sidewalk,wolfe1,image-030,3,34,A16CB759HYBUPY,2021-01-08_14h19.13.144,MetaAwareness,2020.1.2,Win32,60,3XDJY5RK5TOXHOJQLU57GV7DNEV4UK,A16CB759HYBUPY,3VD82FOHKRR8L7A28P4IO6M0NILOCV,H2DV8,H2DV8,3VD82FOHKRR8L7A28P4IO6M0NILOCV,3VD82FOHKRR8L7A28P4IO6M0NILOCV,268048,268048,,,,,,,,,,
,,,,5,0.36,0,19,19,314,1,a group of seven hikers with one man in a yellow shirt carrying a red back pack.,a group of seven hikers with one man in a yellow shirt carrying a green back pack.,wolfe1,image-084,3,34,A16CB759HYBUPY,2021-01-08_14h19.13.144,MetaAwareness,2020.1.2,Win32,60,3XDJY5RK5TOXHOJQLU57GV7DNEV4UK,A16CB759HYBUPY,3VD82FOHKRR8L7A28P4IO6M0NILOCV,H2DV8,H2DV8,3VD82FOHKRR8L7A28P4IO6M0NILOCV,3VD82FOHKRR8L7A28P4IO6M0NILOCV,268048,268048,,,,,,,,,,
,,,,4,0.579,0,20,20,238,1,a field in front of a scene of hills and mountains with seven rolls of hay next to some trees,a field in front of a scene of hills and mountains with six rolls of hay next to some trees,wolfe1,image-045,3,34,A16CB759HYBUPY,2021-01-08_14h19.13.144,MetaAwareness,2020.1.2,Win32,60,3XDJY5RK5TOXHOJQLU57GV7DNEV4UK,A16CB759HYBUPY,3VD82FOHKRR8L7A28P4IO6M0NILOCV,H2DV8,H2DV8,3VD82FOHKRR8L7A28P4IO6M0NILOCV,3VD82FOHKRR8L7A28P4IO6M0NILOCV,268048,268048,,,,,,,,,,
,,,,4,0.702,0,21,21,154,1,bikes sit in front of a building with three front facing windows at the very top of the building,bikes sit in front of a building with two front facing windows at the very top of the building,wolfe1,image-029,2,34,A16CB759HYBUPY,2021-01-08_14h19.13.144,MetaAwareness,2020.1.2,Win32,60,3XDJY5RK5TOXHOJQLU57GV7DNEV4UK,A16CB759HYBUPY,3VD82FOHKRR8L7A28P4IO6M0NILOCV,H2DV8,H2DV8,3VD82FOHKRR8L7A28P4IO6M0NILOCV,3VD82FOHKRR8L7A28P4IO6M0NILOCV,268048,268048,,,,,,,,,,
,,,,5,0.174,0,22,22,295,1,"patrons sit near an outdoor bar, with a green umbrella nearby","patrons sit near an outdoor bar, with a purple umbrella nearby",wolfe1,image-080,3,34,A16CB759HYBUPY,2021-01-08_14h19.13.144,MetaAwareness,2020.1.2,Win32,60,3XDJY5RK5TOXHOJQLU57GV7DNEV4UK,A16CB759HYBUPY,3VD82FOHKRR8L7A28P4IO6M0NILOCV,H2DV8,H2DV8,3VD82FOHKRR8L7A28P4IO6M0NILOCV,3VD82FOHKRR8L7A28P4IO6M0NILOCV,268048,268048,,,,,,,,,,
,,,,4,0.134,0,23,23,140,1,a brown cushion sitting on a large sectional bench,a white cushion sits on a large sectional bench,wolfe1,image-026,1,34,A16CB759HYBUPY,2021-01-08_14h19.13.144,MetaAwareness,2020.1.2,Win32,60,3XDJY5RK5TOXHOJQLU57GV7DNEV4UK,A16CB759HYBUPY,3VD82FOHKRR8L7A28P4IO6M0NILOCV,H2DV8,H2DV8,3VD82FOHKRR8L7A28P4IO6M0NILOCV,3VD82FOHKRR8L7A28P4IO6M0NILOCV,268048,268048,,,,,,,,,,
,,,,6,0.74,0,24,24,505,1,a long boat with red fabrics along its side sits in a beautiful lake setting ready to be utilized,a long boat with red and green fabrics along its side sits in a beautiful lake setting ready to be utilized,wolfe1,image-121,6,34,A16CB759HYBUPY,2021-01-08_14h19.13.144,MetaAwareness,2020.1.2,Win32,60,3XDJY5RK5TOXHOJQLU57GV7DNEV4UK,A16CB759HYBUPY,3VD82FOHKRR8L7A28P4IO6M0NILOCV,H2DV8,H2DV8,3VD82FOHKRR8L7A28P4IO6M0NILOCV,3VD82FOHKRR8L7A28P4IO6M0NILOCV,268048,268048,,,,,,,,,,
,,,,4,0.033,0,25,25,394,1,kids enjoying themselves on a swing set. a girl in pink shirt is off to the side watching everyone.,kids enjoying themselves on a swing set. a girl in a yellow shirt is off to the side watching everyone.,wolfe1,image-101,2,34,A16CB759HYBUPY,2021-01-08_14h19.13.144,MetaAwareness,2020.1.2,Win32,60,3XDJY5RK5TOXHOJQLU57GV7DNEV4UK,A16CB759HYBUPY,3VD82FOHKRR8L7A28P4IO6M0NILOCV,H2DV8,H2DV8,3VD82FOHKRR8L7A28P4IO6M0NILOCV,3VD82FOHKRR8L7A28P4IO6M0NILOCV,268048,268048,,,,,,,,,,
,,,,6,0.017,0,26,26,326,1,a boy in a red shirt plays with other children in a grassy field,a boy in a purple shirt plays with other children in a grassy field,wolfe1,image-086,5,34,A16CB759HYBUPY,2021-01-08_14h19.13.144,MetaAwareness,2020.1.2,Win32,60,3XDJY5RK5TOXHOJQLU57GV7DNEV4UK,A16CB759HYBUPY,3VD82FOHKRR8L7A28P4IO6M0NILOCV,H2DV8,H2DV8,3VD82FOHKRR8L7A28P4IO6M0NILOCV,3VD82FOHKRR8L7A28P4IO6M0NILOCV,268048,268048,,,,,,,,,,
,,,,3,0.018,0,27,27,554,1,the instructor shows the children dance moves. one of the children wears a pink skirt.,the instructor shows the children dance moves. one of the children wears a purple skirt.,wolfe1,image-131,1,34,A16CB759HYBUPY,2021-01-08_14h19.13.144,MetaAwareness,2020.1.2,Win32,60,3XDJY5RK5TOXHOJQLU57GV7DNEV4UK,A16CB759HYBUPY,3VD82FOHKRR8L7A28P4IO6M0NILOCV,H2DV8,H2DV8,3VD82FOHKRR8L7A28P4IO6M0NILOCV,3VD82FOHKRR8L7A28P4IO6M0NILOCV,268048,268048,,,,,,,,,,
,,,,6,0.239,0,28,28,407,1,man in blue shirt looking at woman,man in green shirt looking at womnan,wolfe1,image-104,1,34,A16CB759HYBUPY,2021-01-08_14h19.13.144,MetaAwareness,2020.1.2,Win32,60,3XDJY5RK5TOXHOJQLU57GV7DNEV4UK,A16CB759HYBUPY,3VD82FOHKRR8L7A28P4IO6M0NILOCV,H2DV8,H2DV8,3VD82FOHKRR8L7A28P4IO6M0NILOCV,3VD82FOHKRR8L7A28P4IO6M0NILOCV,268048,268048,,,,,,,,,,
,,,,5,0.006,0,29,29,160,1,a troop of boy scouts cross a street with the lead kid wearing badges,a troop of boy scouts cross a street with the lead kid not wearing badges,wolfe1,image-031,1,34,A16CB759HYBUPY,2021-01-08_14h19.13.144,MetaAwareness,2020.1.2,Win32,60,3XDJY5RK5TOXHOJQLU57GV7DNEV4UK,A16CB759HYBUPY,3VD82FOHKRR8L7A28P4IO6M0NILOCV,H2DV8,H2DV8,3VD82FOHKRR8L7A28P4IO6M0NILOCV,3VD82FOHKRR8L7A28P4IO6M0NILOCV,268048,268048,,,,,,,,,,
,,,,,,,,,,,,,,,,34,A16CB759HYBUPY,2021-01-08_14h19.13.144,MetaAwareness,2020.1.2,Win32,60,3XDJY5RK5TOXHOJQLU57GV7DNEV4UK,A16CB759HYBUPY,3VD82FOHKRR8L7A28P4IO6M0NILOCV,H2DV8,H2DV8,3VD82FOHKRR8L7A28P4IO6M0NILOCV,3VD82FOHKRR8L7A28P4IO6M0NILOCV,268048,268048,6,0.231,someone laying underneath a blue beach umbrella on a crowded beach,someone laying underneath a blue beach umbrella on a crowded beach,same,4,0.377,members of a marching band crossing a track that all have feather plumes at the front of their hats,a cluttered and rustic looking cafe with 10 hanging lights,different
