consent_response.keys,consent_response.rt,key_resp_2.keys,key_resp_2.rt,user_resp.keys,user_resp.rt,trials.thisRepN,trials.thisTrialN,trials.thisN,trials.thisIndex,trials.ran,image_1_text,image_2_text,database,image,number,age,worker_ID,date,expName,psychopyVersion,OS,frameRate,hitId,workerId,assignmentId,a,tp_a,b,tp_b,c,tp_c,catch_same_resp.keys,catch_same_resp.rt,image_1_text_catch_same,image_2_text_catch_same,image_catch_same,catch_different_resp.keys,catch_different_resp.rt,image_1_text_catch_different,image_2_text_catch_different,image_catch_different
space,7.905035,space,19.9853,5,14.78171,0,0,0,280,1,"there are a group of people, including police officers, standing in front of a large brick mansion. a woman is holding a blue child's jacket.",there is a group of people standing in front of a large brick mansion. some  of the people are police officers. there is a woman holding a child' yellow jacket.,wolfe1,image-077,2,25,A1BH6H9WRK49I,2021-01-08_16h26.25.239,MetaAwareness,2020.1.2,Win32,60,302OLP89D0AGXJI784UYZS778ONCAW,A1BH6H9WRK49I,3IUZPWIU1PAY9EVSROCQTJCUVTAKWX,UPUI8,UPUI8,3IUZPWIU1PAY9EVSROCQTJCUVTAKWX,3IUZPWIU1PAY9EVSROCQTJCUVTAKWX,268048,268048,,,,,,,,,,
,,,,3,14.42885,0,1,1,392,1,"a campsite with a trailer, tent, red chairs, and 2 red beach towels and 1 blue beach towel hanging on a clothes line","a campsite with a trailer, tent, red chairs, and 3 red beach towels hanging on a clothes line",wolfe1,image-100,2,25,A1BH6H9WRK49I,2021-01-08_16h26.25.239,MetaAwareness,2020.1.2,Win32,60,302OLP89D0AGXJI784UYZS778ONCAW,A1BH6H9WRK49I,3IUZPWIU1PAY9EVSROCQTJCUVTAKWX,UPUI8,UPUI8,3IUZPWIU1PAY9EVSROCQTJCUVTAKWX,3IUZPWIU1PAY9EVSROCQTJCUVTAKWX,268048,268048,,,,,,,,,,
,,,,3,9.732105,0,2,2,89,1,a crowd of people at a park and something laying in the ground in front of a lady sitting on a bench.,a crowd of people at a park and a lady sitting on a bench with nothing on the ground in front of her.,wolfe1,image-016,5,25,A1BH6H9WRK49I,2021-01-08_16h26.25.239,MetaAwareness,2020.1.2,Win32,60,302OLP89D0AGXJI784UYZS778ONCAW,A1BH6H9WRK49I,3IUZPWIU1PAY9EVSROCQTJCUVTAKWX,UPUI8,UPUI8,3IUZPWIU1PAY9EVSROCQTJCUVTAKWX,3IUZPWIU1PAY9EVSROCQTJCUVTAKWX,268048,268048,,,,,,,,,,
,,,,2,12.71802,0,3,3,363,1,two college students walking outside. the female student is carrying a black backpack with a blue label.,two college students walking outside. the female student is carrying a black backpack with a green label.,wolfe1,image-094,8,25,A1BH6H9WRK49I,2021-01-08_16h26.25.239,MetaAwareness,2020.1.2,Win32,60,302OLP89D0AGXJI784UYZS778ONCAW,A1BH6H9WRK49I,3IUZPWIU1PAY9EVSROCQTJCUVTAKWX,UPUI8,UPUI8,3IUZPWIU1PAY9EVSROCQTJCUVTAKWX,3IUZPWIU1PAY9EVSROCQTJCUVTAKWX,268048,268048,,,,,,,,,,
,,,,3,37.72776,0,4,4,461,1,a young man walking alone in front of a store with red colored hanging displays,a young man walking alone in front of a store with yellow colored hanging displays,wolfe1,image-113,4,25,A1BH6H9WRK49I,2021-01-08_16h26.25.239,MetaAwareness,2020.1.2,Win32,60,302OLP89D0AGXJI784UYZS778ONCAW,A1BH6H9WRK49I,3IUZPWIU1PAY9EVSROCQTJCUVTAKWX,UPUI8,UPUI8,3IUZPWIU1PAY9EVSROCQTJCUVTAKWX,3IUZPWIU1PAY9EVSROCQTJCUVTAKWX,268048,268048,,,,,,,,,,
,,,,2,9.15911,0,5,5,78,1,a large concert in an outdoor tent with a lot of people sitting on the ground and a baby in the grass alone,a large concert in an outdoor tent with a lot people sitting on the ground. there is no baby in the grass in this image,wolfe1,image-014,7,25,A1BH6H9WRK49I,2021-01-08_16h26.25.239,MetaAwareness,2020.1.2,Win32,60,302OLP89D0AGXJI784UYZS778ONCAW,A1BH6H9WRK49I,3IUZPWIU1PAY9EVSROCQTJCUVTAKWX,UPUI8,UPUI8,3IUZPWIU1PAY9EVSROCQTJCUVTAKWX,3IUZPWIU1PAY9EVSROCQTJCUVTAKWX,268048,268048,,,,,,,,,,
,,,,5,12.79737,0,6,6,59,1,a plant sitting on a table with some books and 2 other plants.,a long table with some books and 2 plants,wolfe1,image-011,7,25,A1BH6H9WRK49I,2021-01-08_16h26.25.239,MetaAwareness,2020.1.2,Win32,60,302OLP89D0AGXJI784UYZS778ONCAW,A1BH6H9WRK49I,3IUZPWIU1PAY9EVSROCQTJCUVTAKWX,UPUI8,UPUI8,3IUZPWIU1PAY9EVSROCQTJCUVTAKWX,3IUZPWIU1PAY9EVSROCQTJCUVTAKWX,268048,268048,,,,,,,,,,
,,,,2,5.900455,0,7,7,86,1,a black object sints on the ground in front of a woman in a brown skirt on a crowded playground,nothing sits on on the ground in front of a woman in a brown skirt on a crowded playground,wolfe1,image-016,2,25,A1BH6H9WRK49I,2021-01-08_16h26.25.239,MetaAwareness,2020.1.2,Win32,60,302OLP89D0AGXJI784UYZS778ONCAW,A1BH6H9WRK49I,3IUZPWIU1PAY9EVSROCQTJCUVTAKWX,UPUI8,UPUI8,3IUZPWIU1PAY9EVSROCQTJCUVTAKWX,3IUZPWIU1PAY9EVSROCQTJCUVTAKWX,268048,268048,,,,,,,,,,
,,,,3,5.137205,0,8,8,352,1,a group of people on a basketball court with one person wearing a pair of pink pants,a group of people on a basketball court with one person wearing a pair of green pants,wolfe1,image-093,3,25,A1BH6H9WRK49I,2021-01-08_16h26.25.239,MetaAwareness,2020.1.2,Win32,60,302OLP89D0AGXJI784UYZS778ONCAW,A1BH6H9WRK49I,3IUZPWIU1PAY9EVSROCQTJCUVTAKWX,UPUI8,UPUI8,3IUZPWIU1PAY9EVSROCQTJCUVTAKWX,3IUZPWIU1PAY9EVSROCQTJCUVTAKWX,268048,268048,,,,,,,,,,
,,,,3,4.528505,0,9,9,528,1,the guy si wearing blue,the guy is wearing green,wolfe1,image-126,4,25,A1BH6H9WRK49I,2021-01-08_16h26.25.239,MetaAwareness,2020.1.2,Win32,60,302OLP89D0AGXJI784UYZS778ONCAW,A1BH6H9WRK49I,3IUZPWIU1PAY9EVSROCQTJCUVTAKWX,UPUI8,UPUI8,3IUZPWIU1PAY9EVSROCQTJCUVTAKWX,3IUZPWIU1PAY9EVSROCQTJCUVTAKWX,268048,268048,,,,,,,,,,
,,,,2,11.176195,0,10,10,210,1,kids playing basketball with an outdoor lamp on the wall behind the basketball goal,kids playing basketball with a red brick wall behind the basketball goal,wolfe1,image-040,6,25,A1BH6H9WRK49I,2021-01-08_16h26.25.239,MetaAwareness,2020.1.2,Win32,60,302OLP89D0AGXJI784UYZS778ONCAW,A1BH6H9WRK49I,3IUZPWIU1PAY9EVSROCQTJCUVTAKWX,UPUI8,UPUI8,3IUZPWIU1PAY9EVSROCQTJCUVTAKWX,3IUZPWIU1PAY9EVSROCQTJCUVTAKWX,268048,268048,,,,,,,,,,
,,,,2,8.661365,0,11,11,53,1,a person in the snow setting up their supplies one of which is a yellow bucket,a person in the snow laying out all their supplies on the floor.,wolfe1,image-010,7,25,A1BH6H9WRK49I,2021-01-08_16h26.25.239,MetaAwareness,2020.1.2,Win32,60,302OLP89D0AGXJI784UYZS778ONCAW,A1BH6H9WRK49I,3IUZPWIU1PAY9EVSROCQTJCUVTAKWX,UPUI8,UPUI8,3IUZPWIU1PAY9EVSROCQTJCUVTAKWX,3IUZPWIU1PAY9EVSROCQTJCUVTAKWX,268048,268048,,,,,,,,,,
,,,,2,9.176645,0,12,12,19,1,five girls in graduation gowns jumping in the air with a bench behind them,five girls jumping in the air in red graduation gowns with no bench behind them.,wolfe1,image-005,2,25,A1BH6H9WRK49I,2021-01-08_16h26.25.239,MetaAwareness,2020.1.2,Win32,60,302OLP89D0AGXJI784UYZS778ONCAW,A1BH6H9WRK49I,3IUZPWIU1PAY9EVSROCQTJCUVTAKWX,UPUI8,UPUI8,3IUZPWIU1PAY9EVSROCQTJCUVTAKWX,3IUZPWIU1PAY9EVSROCQTJCUVTAKWX,268048,268048,,,,,,,,,,
,,,,3,3.403395,0,13,13,468,1,"a group of people listening to a concert, with a woman sitting in a green chair.",a group of people listening to a concert and a woman sitting in a purple chair.,wolfe1,image-115,1,25,A1BH6H9WRK49I,2021-01-08_16h26.25.239,MetaAwareness,2020.1.2,Win32,60,302OLP89D0AGXJI784UYZS778ONCAW,A1BH6H9WRK49I,3IUZPWIU1PAY9EVSROCQTJCUVTAKWX,UPUI8,UPUI8,3IUZPWIU1PAY9EVSROCQTJCUVTAKWX,3IUZPWIU1PAY9EVSROCQTJCUVTAKWX,268048,268048,,,,,,,,,,
,,,,3,5.10422,0,14,14,429,1,a basket of candles with a variety of colors including blue are at a shrine.,a basket of candles with a variety of colors including purple are at a shrine.,wolfe1,image-107,7,25,A1BH6H9WRK49I,2021-01-08_16h26.25.239,MetaAwareness,2020.1.2,Win32,60,302OLP89D0AGXJI784UYZS778ONCAW,A1BH6H9WRK49I,3IUZPWIU1PAY9EVSROCQTJCUVTAKWX,UPUI8,UPUI8,3IUZPWIU1PAY9EVSROCQTJCUVTAKWX,3IUZPWIU1PAY9EVSROCQTJCUVTAKWX,268048,268048,,,,,,,,,,
,,,,2,5.25103,0,15,15,172,1,several pigeons are next to a group of people who are feeding them,a groupof four people are feeding a large group of hungry black pigeons,wolfe1,image-032,6,25,A1BH6H9WRK49I,2021-01-08_16h26.25.239,MetaAwareness,2020.1.2,Win32,60,302OLP89D0AGXJI784UYZS778ONCAW,A1BH6H9WRK49I,3IUZPWIU1PAY9EVSROCQTJCUVTAKWX,UPUI8,UPUI8,3IUZPWIU1PAY9EVSROCQTJCUVTAKWX,3IUZPWIU1PAY9EVSROCQTJCUVTAKWX,268048,268048,,,,,,,,,,
,,,,2,4.001875,0,16,16,204,1,a box on a shelf full of bottles in a room,a white wall behind a shelf in a white room,wolfe1,image-039,5,25,A1BH6H9WRK49I,2021-01-08_16h26.25.239,MetaAwareness,2020.1.2,Win32,60,302OLP89D0AGXJI784UYZS778ONCAW,A1BH6H9WRK49I,3IUZPWIU1PAY9EVSROCQTJCUVTAKWX,UPUI8,UPUI8,3IUZPWIU1PAY9EVSROCQTJCUVTAKWX,3IUZPWIU1PAY9EVSROCQTJCUVTAKWX,268048,268048,,,,,,,,,,
,,,,3,4.21386,0,17,17,436,1,the roof of the building in the background is the color green,the roof of the building in the background is the color purple,wolfe1,image-108,6,25,A1BH6H9WRK49I,2021-01-08_16h26.25.239,MetaAwareness,2020.1.2,Win32,60,302OLP89D0AGXJI784UYZS778ONCAW,A1BH6H9WRK49I,3IUZPWIU1PAY9EVSROCQTJCUVTAKWX,UPUI8,UPUI8,3IUZPWIU1PAY9EVSROCQTJCUVTAKWX,3IUZPWIU1PAY9EVSROCQTJCUVTAKWX,268048,268048,,,,,,,,,,
,,,,3,5.829775,0,18,18,346,1,"a group of older people exercising, and the woman in the middle is wearing white shoes.","a group of older people exercising, and the woman in the middle is wearing grey shoes.",wolfe1,image-092,1,25,A1BH6H9WRK49I,2021-01-08_16h26.25.239,MetaAwareness,2020.1.2,Win32,60,302OLP89D0AGXJI784UYZS778ONCAW,A1BH6H9WRK49I,3IUZPWIU1PAY9EVSROCQTJCUVTAKWX,UPUI8,UPUI8,3IUZPWIU1PAY9EVSROCQTJCUVTAKWX,3IUZPWIU1PAY9EVSROCQTJCUVTAKWX,268048,268048,,,,,,,,,,
,,,,4,11.366565,0,19,19,142,1,"a scenic beachfront view from a balcony, including tables, a couch, and red, white, and green pillows","a scenic beachfront view from a balcony, including tables, a couch, and red and white pillows",wolfe1,image-026,3,25,A1BH6H9WRK49I,2021-01-08_16h26.25.239,MetaAwareness,2020.1.2,Win32,60,302OLP89D0AGXJI784UYZS778ONCAW,A1BH6H9WRK49I,3IUZPWIU1PAY9EVSROCQTJCUVTAKWX,UPUI8,UPUI8,3IUZPWIU1PAY9EVSROCQTJCUVTAKWX,3IUZPWIU1PAY9EVSROCQTJCUVTAKWX,268048,268048,,,,,,,,,,
,,,,2,4.99258,0,20,20,496,1,this is an outside gazebo that has several green plants and a sculputre in the middle. there is a green picture on the right front side .,this is an outside gazebo that has several green plants and a sculputre in the middle. there is a blue picture on the right front side.,wolfe1,image-120,1,25,A1BH6H9WRK49I,2021-01-08_16h26.25.239,MetaAwareness,2020.1.2,Win32,60,302OLP89D0AGXJI784UYZS778ONCAW,A1BH6H9WRK49I,3IUZPWIU1PAY9EVSROCQTJCUVTAKWX,UPUI8,UPUI8,3IUZPWIU1PAY9EVSROCQTJCUVTAKWX,3IUZPWIU1PAY9EVSROCQTJCUVTAKWX,268048,268048,,,,,,,,,,
,,,,3,2.405795,0,21,21,524,1,person taking landscape photo with another person holding a blue backpack,person taking landscape phone and another person holding a yellow backpack,wolfe1,image-125,3,25,A1BH6H9WRK49I,2021-01-08_16h26.25.239,MetaAwareness,2020.1.2,Win32,60,302OLP89D0AGXJI784UYZS778ONCAW,A1BH6H9WRK49I,3IUZPWIU1PAY9EVSROCQTJCUVTAKWX,UPUI8,UPUI8,3IUZPWIU1PAY9EVSROCQTJCUVTAKWX,3IUZPWIU1PAY9EVSROCQTJCUVTAKWX,268048,268048,,,,,,,,,,
,,,,2,5.887875,0,22,22,201,1,a store that has different shelves of items where the top shelf is all the same except for 1 large black square,a store that has different shelves of items where the top shelf is all the same item,wolfe1,image-039,2,25,A1BH6H9WRK49I,2021-01-08_16h26.25.239,MetaAwareness,2020.1.2,Win32,60,302OLP89D0AGXJI784UYZS778ONCAW,A1BH6H9WRK49I,3IUZPWIU1PAY9EVSROCQTJCUVTAKWX,UPUI8,UPUI8,3IUZPWIU1PAY9EVSROCQTJCUVTAKWX,3IUZPWIU1PAY9EVSROCQTJCUVTAKWX,268048,268048,,,,,,,,,,
,,,,2,4.221135,0,23,23,243,1,diggers with white box,diggers discussing dig site,wolfe1,image-046,2,25,A1BH6H9WRK49I,2021-01-08_16h26.25.239,MetaAwareness,2020.1.2,Win32,60,302OLP89D0AGXJI784UYZS778ONCAW,A1BH6H9WRK49I,3IUZPWIU1PAY9EVSROCQTJCUVTAKWX,UPUI8,UPUI8,3IUZPWIU1PAY9EVSROCQTJCUVTAKWX,3IUZPWIU1PAY9EVSROCQTJCUVTAKWX,268048,268048,,,,,,,,,,
,,,,2,6.73495,0,24,24,259,1,a group of african american kids with grass that has a tiny bit of water in it in the background,a group of african american kids with dry grass in the background,wolfe1,image-048,3,25,A1BH6H9WRK49I,2021-01-08_16h26.25.239,MetaAwareness,2020.1.2,Win32,60,302OLP89D0AGXJI784UYZS778ONCAW,A1BH6H9WRK49I,3IUZPWIU1PAY9EVSROCQTJCUVTAKWX,UPUI8,UPUI8,3IUZPWIU1PAY9EVSROCQTJCUVTAKWX,3IUZPWIU1PAY9EVSROCQTJCUVTAKWX,268048,268048,,,,,,,,,,
,,,,3,8.124705,0,25,25,339,1,"there is an orange room with black seats. in the seats are 5 young men. one of the people in the photo is wearing a blue, grey, and white t-shirt","there is an orange room with black seats. in teh seats are 5 young men. one of men in the photo is wearing a purple, grey, and white t-shirt.",wolfe1,image-089,6,25,A1BH6H9WRK49I,2021-01-08_16h26.25.239,MetaAwareness,2020.1.2,Win32,60,302OLP89D0AGXJI784UYZS778ONCAW,A1BH6H9WRK49I,3IUZPWIU1PAY9EVSROCQTJCUVTAKWX,UPUI8,UPUI8,3IUZPWIU1PAY9EVSROCQTJCUVTAKWX,3IUZPWIU1PAY9EVSROCQTJCUVTAKWX,268048,268048,,,,,,,,,,
,,,,3,2.39088,0,26,26,575,1,the lady is wearing red,the lady is wearing blue,wolfe1,image-134,2,25,A1BH6H9WRK49I,2021-01-08_16h26.25.239,MetaAwareness,2020.1.2,Win32,60,302OLP89D0AGXJI784UYZS778ONCAW,A1BH6H9WRK49I,3IUZPWIU1PAY9EVSROCQTJCUVTAKWX,UPUI8,UPUI8,3IUZPWIU1PAY9EVSROCQTJCUVTAKWX,3IUZPWIU1PAY9EVSROCQTJCUVTAKWX,268048,268048,,,,,,,,,,
,,,,3,2.40653,0,27,27,334,1,children and adults walking in a field with a red cooler,children and adults walking in a field with a pirple cooler,wolfe1,image-088,5,25,A1BH6H9WRK49I,2021-01-08_16h26.25.239,MetaAwareness,2020.1.2,Win32,60,302OLP89D0AGXJI784UYZS778ONCAW,A1BH6H9WRK49I,3IUZPWIU1PAY9EVSROCQTJCUVTAKWX,UPUI8,UPUI8,3IUZPWIU1PAY9EVSROCQTJCUVTAKWX,3IUZPWIU1PAY9EVSROCQTJCUVTAKWX,268048,268048,,,,,,,,,,
,,,,2,3.323435,0,28,28,354,1,a girl in white shorts is next to a girl with bare legs doing exercises in a gymnasium,a girl wearing white shorts stands to a girl wearing a green sock in a gym where they are all exercising,wolfe1,image-093,5,25,A1BH6H9WRK49I,2021-01-08_16h26.25.239,MetaAwareness,2020.1.2,Win32,60,302OLP89D0AGXJI784UYZS778ONCAW,A1BH6H9WRK49I,3IUZPWIU1PAY9EVSROCQTJCUVTAKWX,UPUI8,UPUI8,3IUZPWIU1PAY9EVSROCQTJCUVTAKWX,3IUZPWIU1PAY9EVSROCQTJCUVTAKWX,268048,268048,,,,,,,,,,
,,,,3,4.593245,0,29,29,294,1,"a crowded outdoor cafe area, with people standing and sitting, and a green awning","a crowded outdoor cafe area, with people standing and sitting, and a red awning",wolfe1,image-080,2,25,A1BH6H9WRK49I,2021-01-08_16h26.25.239,MetaAwareness,2020.1.2,Win32,60,302OLP89D0AGXJI784UYZS778ONCAW,A1BH6H9WRK49I,3IUZPWIU1PAY9EVSROCQTJCUVTAKWX,UPUI8,UPUI8,3IUZPWIU1PAY9EVSROCQTJCUVTAKWX,3IUZPWIU1PAY9EVSROCQTJCUVTAKWX,268048,268048,,,,,,,,,,
,,,,,,,,,,,,,,,,25,A1BH6H9WRK49I,2021-01-08_16h26.25.239,MetaAwareness,2020.1.2,Win32,60,302OLP89D0AGXJI784UYZS778ONCAW,A1BH6H9WRK49I,3IUZPWIU1PAY9EVSROCQTJCUVTAKWX,UPUI8,UPUI8,3IUZPWIU1PAY9EVSROCQTJCUVTAKWX,3IUZPWIU1PAY9EVSROCQTJCUVTAKWX,268048,268048,6,6.0822,someone laying underneath a blue beach umbrella on a crowded beach,someone laying underneath a blue beach umbrella on a crowded beach,same,1,5.10102,members of a marching band crossing a track that all have feather plumes at the front of their hats,a cluttered and rustic looking cafe with 10 hanging lights,different
