consent_response.keys,consent_response.rt,key_resp_2.keys,key_resp_2.rt,user_resp.keys,user_resp.rt,trials.thisRepN,trials.thisTrialN,trials.thisN,trials.thisIndex,trials.ran,image_1_text,image_2_text,database,image,number,age,worker_ID,date,expName,psychopyVersion,OS,frameRate,hitId,workerId,assignmentId,a,tp_a,b,tp_b,c,tp_c,catch_same_resp.keys,catch_same_resp.rt,image_1_text_catch_same,image_2_text_catch_same,image_catch_same,catch_different_resp.keys,catch_different_resp.rt,image_1_text_catch_different,image_2_text_catch_different,image_catch_different
space,26.20556,space,21.76078,5,28.22561,0,0,0,314,1,a group of seven hikers with one man in a yellow shirt carrying a red back pack.,a group of seven hikers with one man in a yellow shirt carrying a green back pack.,wolfe1,image-084,3,31,A27RABV2PS9312,2021-01-08_16h25.04.830,MetaAwareness,2020.1.2,Win32,60,302OLP89D0AGXJI784UYZS778ONCAW,A27RABV2PS9312,3AZHRG4CU5NZ5QM0DBR652MOJ29030,CRZA8,CRZA8,3AZHRG4CU5NZ5QM0DBR652MOJ29030,3AZHRG4CU5NZ5QM0DBR652MOJ29030,268048,268048,,,,,,,,,,
,,,,5,12.48628,0,1,1,311,1,there is a red peice of paper on the board behind the students,there is a yellow peice of paper on the board behind the students,wolfe1,image-083,7,31,A27RABV2PS9312,2021-01-08_16h25.04.830,MetaAwareness,2020.1.2,Win32,60,302OLP89D0AGXJI784UYZS778ONCAW,A27RABV2PS9312,3AZHRG4CU5NZ5QM0DBR652MOJ29030,CRZA8,CRZA8,3AZHRG4CU5NZ5QM0DBR652MOJ29030,3AZHRG4CU5NZ5QM0DBR652MOJ29030,268048,268048,,,,,,,,,,
,,,,5,15.21854,0,2,2,470,1,crowded band festival with one empty lime-green folding chair,crowded band festival with one emply magenta folding chair,wolfe1,image-115,3,31,A27RABV2PS9312,2021-01-08_16h25.04.830,MetaAwareness,2020.1.2,Win32,60,302OLP89D0AGXJI784UYZS778ONCAW,A27RABV2PS9312,3AZHRG4CU5NZ5QM0DBR652MOJ29030,CRZA8,CRZA8,3AZHRG4CU5NZ5QM0DBR652MOJ29030,3AZHRG4CU5NZ5QM0DBR652MOJ29030,268048,268048,,,,,,,,,,
,,,,5,23.0511,0,3,3,60,1,"a small open building in a yard with a hammock and couch, next to it is a small concrete donut with plants in the center",a small open building in a yard with a hammock and a couch,wolfe1,image-012,1,31,A27RABV2PS9312,2021-01-08_16h25.04.830,MetaAwareness,2020.1.2,Win32,60,302OLP89D0AGXJI784UYZS778ONCAW,A27RABV2PS9312,3AZHRG4CU5NZ5QM0DBR652MOJ29030,CRZA8,CRZA8,3AZHRG4CU5NZ5QM0DBR652MOJ29030,3AZHRG4CU5NZ5QM0DBR652MOJ29030,268048,268048,,,,,,,,,,
,,,,5,27.461025,0,4,4,172,1,several pigeons are next to a group of people who are feeding them,a groupof four people are feeding a large group of hungry black pigeons,wolfe1,image-032,6,31,A27RABV2PS9312,2021-01-08_16h25.04.830,MetaAwareness,2020.1.2,Win32,60,302OLP89D0AGXJI784UYZS778ONCAW,A27RABV2PS9312,3AZHRG4CU5NZ5QM0DBR652MOJ29030,CRZA8,CRZA8,3AZHRG4CU5NZ5QM0DBR652MOJ29030,3AZHRG4CU5NZ5QM0DBR652MOJ29030,268048,268048,,,,,,,,,,
,,,,5,8.936365,0,5,5,152,1,there is an object behind the person sitting in the center of the photo,there is more grass behind the person sitting in the center of the photo,wolfe1,image-028,5,31,A27RABV2PS9312,2021-01-08_16h25.04.830,MetaAwareness,2020.1.2,Win32,60,302OLP89D0AGXJI784UYZS778ONCAW,A27RABV2PS9312,3AZHRG4CU5NZ5QM0DBR652MOJ29030,CRZA8,CRZA8,3AZHRG4CU5NZ5QM0DBR652MOJ29030,3AZHRG4CU5NZ5QM0DBR652MOJ29030,268048,268048,,,,,,,,,,
,,,,5,9.092405,0,6,6,271,1,several participants participate in a motorcross race. one member of the crowd is wearing a yellow shirt.,several partipants are in a motorcross race. one member of the crowd is wearing an aqua green shirt.,wolfe1,image-076,2,31,A27RABV2PS9312,2021-01-08_16h25.04.830,MetaAwareness,2020.1.2,Win32,60,302OLP89D0AGXJI784UYZS778ONCAW,A27RABV2PS9312,3AZHRG4CU5NZ5QM0DBR652MOJ29030,CRZA8,CRZA8,3AZHRG4CU5NZ5QM0DBR652MOJ29030,3AZHRG4CU5NZ5QM0DBR652MOJ29030,268048,268048,,,,,,,,,,
,,,,2,16.00747,0,7,7,203,1,a square black objects sits in the middle of the shelf in a room,nothing sits in the middle of the shelf  in a room,wolfe1,image-039,4,31,A27RABV2PS9312,2021-01-08_16h25.04.830,MetaAwareness,2020.1.2,Win32,60,302OLP89D0AGXJI784UYZS778ONCAW,A27RABV2PS9312,3AZHRG4CU5NZ5QM0DBR652MOJ29030,CRZA8,CRZA8,3AZHRG4CU5NZ5QM0DBR652MOJ29030,3AZHRG4CU5NZ5QM0DBR652MOJ29030,268048,268048,,,,,,,,,,
,,,,5,22.48664,0,8,8,154,1,bikes sit in front of a building with three front facing windows at the very top of the building,bikes sit in front of a building with two front facing windows at the very top of the building,wolfe1,image-029,2,31,A27RABV2PS9312,2021-01-08_16h25.04.830,MetaAwareness,2020.1.2,Win32,60,302OLP89D0AGXJI784UYZS778ONCAW,A27RABV2PS9312,3AZHRG4CU5NZ5QM0DBR652MOJ29030,CRZA8,CRZA8,3AZHRG4CU5NZ5QM0DBR652MOJ29030,3AZHRG4CU5NZ5QM0DBR652MOJ29030,268048,268048,,,,,,,,,,
,,,,5,11.28429,0,9,9,500,1,red safety floating vests on a boat,green safety floating vests on a boat,wolfe1,image-121,1,31,A27RABV2PS9312,2021-01-08_16h25.04.830,MetaAwareness,2020.1.2,Win32,60,302OLP89D0AGXJI784UYZS778ONCAW,A27RABV2PS9312,3AZHRG4CU5NZ5QM0DBR652MOJ29030,CRZA8,CRZA8,3AZHRG4CU5NZ5QM0DBR652MOJ29030,3AZHRG4CU5NZ5QM0DBR652MOJ29030,268048,268048,,,,,,,,,,
,,,,5,17.269885,0,10,10,9,1,a yard sale with a blue shirt and a brown coat hanging up in front of a brick house.,a yard sale with a brown coat hanging up in front of a brick house.,wolfe1,image-002,4,31,A27RABV2PS9312,2021-01-08_16h25.04.830,MetaAwareness,2020.1.2,Win32,60,302OLP89D0AGXJI784UYZS778ONCAW,A27RABV2PS9312,3AZHRG4CU5NZ5QM0DBR652MOJ29030,CRZA8,CRZA8,3AZHRG4CU5NZ5QM0DBR652MOJ29030,3AZHRG4CU5NZ5QM0DBR652MOJ29030,268048,268048,,,,,,,,,,
,,,,5,13.178425,0,11,11,489,1,walking thru a park with one person wearing a red backpack.,walking thru a park with one person wearing an orange backpack.,wolfe1,image-118,4,31,A27RABV2PS9312,2021-01-08_16h25.04.830,MetaAwareness,2020.1.2,Win32,60,302OLP89D0AGXJI784UYZS778ONCAW,A27RABV2PS9312,3AZHRG4CU5NZ5QM0DBR652MOJ29030,CRZA8,CRZA8,3AZHRG4CU5NZ5QM0DBR652MOJ29030,3AZHRG4CU5NZ5QM0DBR652MOJ29030,268048,268048,,,,,,,,,,
,,,,5,9.94513,0,12,12,433,1,three men playing golf with a white house that has a grey roof in the background.,three men playing golf with a white house that has a brown roof in the background.,wolfe1,image-108,3,31,A27RABV2PS9312,2021-01-08_16h25.04.830,MetaAwareness,2020.1.2,Win32,60,302OLP89D0AGXJI784UYZS778ONCAW,A27RABV2PS9312,3AZHRG4CU5NZ5QM0DBR652MOJ29030,CRZA8,CRZA8,3AZHRG4CU5NZ5QM0DBR652MOJ29030,3AZHRG4CU5NZ5QM0DBR652MOJ29030,268048,268048,,,,,,,,,,
,,,,5,13.868165,0,13,13,122,1,three people running with a fountain and two benches visible in the background,three people running with a fountain and one bench visible in the background.,wolfe1,image-022,2,31,A27RABV2PS9312,2021-01-08_16h25.04.830,MetaAwareness,2020.1.2,Win32,60,302OLP89D0AGXJI784UYZS778ONCAW,A27RABV2PS9312,3AZHRG4CU5NZ5QM0DBR652MOJ29030,CRZA8,CRZA8,3AZHRG4CU5NZ5QM0DBR652MOJ29030,3AZHRG4CU5NZ5QM0DBR652MOJ29030,268048,268048,,,,,,,,,,
,,,,5,10.34286,0,14,14,509,1,a storefront with a blue placard and cars out front,a storefront with a red placard and vars out front,wolfe1,image-123,2,31,A27RABV2PS9312,2021-01-08_16h25.04.830,MetaAwareness,2020.1.2,Win32,60,302OLP89D0AGXJI784UYZS778ONCAW,A27RABV2PS9312,3AZHRG4CU5NZ5QM0DBR652MOJ29030,CRZA8,CRZA8,3AZHRG4CU5NZ5QM0DBR652MOJ29030,3AZHRG4CU5NZ5QM0DBR652MOJ29030,268048,268048,,,,,,,,,,
,,,,5,8.17672,0,15,15,162,1,scouts walking in a parade and a woman wearing a patch,scouts walking in a parade,wolfe1,image-031,3,31,A27RABV2PS9312,2021-01-08_16h25.04.830,MetaAwareness,2020.1.2,Win32,60,302OLP89D0AGXJI784UYZS778ONCAW,A27RABV2PS9312,3AZHRG4CU5NZ5QM0DBR652MOJ29030,CRZA8,CRZA8,3AZHRG4CU5NZ5QM0DBR652MOJ29030,3AZHRG4CU5NZ5QM0DBR652MOJ29030,268048,268048,,,,,,,,,,
,,,,3,28.45832,0,16,16,266,1,a class room with three people in front lecturing with stacked up items in the corner behind them.,a classroom with three people in the front talking with a bare corner behind them.,wolfe1,image-050,1,31,A27RABV2PS9312,2021-01-08_16h25.04.830,MetaAwareness,2020.1.2,Win32,60,302OLP89D0AGXJI784UYZS778ONCAW,A27RABV2PS9312,3AZHRG4CU5NZ5QM0DBR652MOJ29030,CRZA8,CRZA8,3AZHRG4CU5NZ5QM0DBR652MOJ29030,3AZHRG4CU5NZ5QM0DBR652MOJ29030,268048,268048,,,,,,,,,,
,,,,4,19.655435,0,17,17,210,1,kids playing basketball with an outdoor lamp on the wall behind the basketball goal,kids playing basketball with a red brick wall behind the basketball goal,wolfe1,image-040,6,31,A27RABV2PS9312,2021-01-08_16h25.04.830,MetaAwareness,2020.1.2,Win32,60,302OLP89D0AGXJI784UYZS778ONCAW,A27RABV2PS9312,3AZHRG4CU5NZ5QM0DBR652MOJ29030,CRZA8,CRZA8,3AZHRG4CU5NZ5QM0DBR652MOJ29030,3AZHRG4CU5NZ5QM0DBR652MOJ29030,268048,268048,,,,,,,,,,
,,,,4,21.10865,0,18,18,188,1,a group of sail boats sailing on the ocean behind some jetski's and a smaller boat.,a group of sail boats sailing on the ocean behind some jetski's.,wolfe1,image-035,1,31,A27RABV2PS9312,2021-01-08_16h25.04.830,MetaAwareness,2020.1.2,Win32,60,302OLP89D0AGXJI784UYZS778ONCAW,A27RABV2PS9312,3AZHRG4CU5NZ5QM0DBR652MOJ29030,CRZA8,CRZA8,3AZHRG4CU5NZ5QM0DBR652MOJ29030,3AZHRG4CU5NZ5QM0DBR652MOJ29030,268048,268048,,,,,,,,,,
,,,,5,21.7505,0,19,19,389,1,men in pink robes are performing a ritual while a group including a man in an orange jacket watch,men in pink robes are performing a ritaul while a group including a man in a green jacket watch,wolfe1,image-099,3,31,A27RABV2PS9312,2021-01-08_16h25.04.830,MetaAwareness,2020.1.2,Win32,60,302OLP89D0AGXJI784UYZS778ONCAW,A27RABV2PS9312,3AZHRG4CU5NZ5QM0DBR652MOJ29030,CRZA8,CRZA8,3AZHRG4CU5NZ5QM0DBR652MOJ29030,3AZHRG4CU5NZ5QM0DBR652MOJ29030,268048,268048,,,,,,,,,,
,,,,5,9.75116,0,20,20,384,1,people walking towards an ancient building with one man wearing green shorts,people walking towards an ancient building with one man wearing brown shorts,wolfe1,image-098,3,31,A27RABV2PS9312,2021-01-08_16h25.04.830,MetaAwareness,2020.1.2,Win32,60,302OLP89D0AGXJI784UYZS778ONCAW,A27RABV2PS9312,3AZHRG4CU5NZ5QM0DBR652MOJ29030,CRZA8,CRZA8,3AZHRG4CU5NZ5QM0DBR652MOJ29030,3AZHRG4CU5NZ5QM0DBR652MOJ29030,268048,268048,,,,,,,,,,
,,,,5,9.178145,0,21,21,329,1,on the left of the table there is a blue container,on the left of the table there is a purple container,wolfe1,image-087,3,31,A27RABV2PS9312,2021-01-08_16h25.04.830,MetaAwareness,2020.1.2,Win32,60,302OLP89D0AGXJI784UYZS778ONCAW,A27RABV2PS9312,3AZHRG4CU5NZ5QM0DBR652MOJ29030,CRZA8,CRZA8,3AZHRG4CU5NZ5QM0DBR652MOJ29030,3AZHRG4CU5NZ5QM0DBR652MOJ29030,268048,268048,,,,,,,,,,
,,,,3,11.290245,0,22,22,23,1,a group of graduates celebrate in front of a bench.,a group of grdsuates celebrate the abscence of a bench.,wolfe1,image-005,6,31,A27RABV2PS9312,2021-01-08_16h25.04.830,MetaAwareness,2020.1.2,Win32,60,302OLP89D0AGXJI784UYZS778ONCAW,A27RABV2PS9312,3AZHRG4CU5NZ5QM0DBR652MOJ29030,CRZA8,CRZA8,3AZHRG4CU5NZ5QM0DBR652MOJ29030,3AZHRG4CU5NZ5QM0DBR652MOJ29030,268048,268048,,,,,,,,,,
,,,,5,25.23779,0,23,23,569,1,an outdoor seating area with a brown surfboard leaning on the wall.,an outdoor seating area with a green surfboard leaning on the wall.,wolfe1,image-133,4,31,A27RABV2PS9312,2021-01-08_16h25.04.830,MetaAwareness,2020.1.2,Win32,60,302OLP89D0AGXJI784UYZS778ONCAW,A27RABV2PS9312,3AZHRG4CU5NZ5QM0DBR652MOJ29030,CRZA8,CRZA8,3AZHRG4CU5NZ5QM0DBR652MOJ29030,3AZHRG4CU5NZ5QM0DBR652MOJ29030,268048,268048,,,,,,,,,,
,,,,5,17.867835,0,24,24,377,1,"a music classroom with a teacher, students, and a blue box under a stool.","a music classroom with a teacher, students, and a green box under a stool.",wolfe1,image-096,6,31,A27RABV2PS9312,2021-01-08_16h25.04.830,MetaAwareness,2020.1.2,Win32,60,302OLP89D0AGXJI784UYZS778ONCAW,A27RABV2PS9312,3AZHRG4CU5NZ5QM0DBR652MOJ29030,CRZA8,CRZA8,3AZHRG4CU5NZ5QM0DBR652MOJ29030,3AZHRG4CU5NZ5QM0DBR652MOJ29030,268048,268048,,,,,,,,,,
,,,,2,11.590415,0,25,25,205,1,there was one light placed in the photo,no lights are paced in the photo,wolfe1,image-040,1,31,A27RABV2PS9312,2021-01-08_16h25.04.830,MetaAwareness,2020.1.2,Win32,60,302OLP89D0AGXJI784UYZS778ONCAW,A27RABV2PS9312,3AZHRG4CU5NZ5QM0DBR652MOJ29030,CRZA8,CRZA8,3AZHRG4CU5NZ5QM0DBR652MOJ29030,3AZHRG4CU5NZ5QM0DBR652MOJ29030,268048,268048,,,,,,,,,,
,,,,5,14.65507,0,26,26,338,1,"five boys sitting in a room and one boy's shirt has blue, tan, and white stripes","five boys sitting in a room and one boy's shirt has purple, tan, and white stripes",wolfe1,image-089,5,31,A27RABV2PS9312,2021-01-08_16h25.04.830,MetaAwareness,2020.1.2,Win32,60,302OLP89D0AGXJI784UYZS778ONCAW,A27RABV2PS9312,3AZHRG4CU5NZ5QM0DBR652MOJ29030,CRZA8,CRZA8,3AZHRG4CU5NZ5QM0DBR652MOJ29030,3AZHRG4CU5NZ5QM0DBR652MOJ29030,268048,268048,,,,,,,,,,
,,,,4,23.384805,0,27,27,40,1,"a petting zoo with a couple of reindeer next to a woman in the foreground and a man bending over, facing the viewer in the background",a petting zoo with a woman in a pink dress smiling at two reindeer in the foreground and a gravelly area of ground in the background near a group of other people,wolfe1,image-008,3,31,A27RABV2PS9312,2021-01-08_16h25.04.830,MetaAwareness,2020.1.2,Win32,60,302OLP89D0AGXJI784UYZS778ONCAW,A27RABV2PS9312,3AZHRG4CU5NZ5QM0DBR652MOJ29030,CRZA8,CRZA8,3AZHRG4CU5NZ5QM0DBR652MOJ29030,3AZHRG4CU5NZ5QM0DBR652MOJ29030,268048,268048,,,,,,,,,,
,,,,5,8.89107,0,28,28,504,1,a boat with red life vests hanging over the side of it,a boat with green life vests hanging over the side of it,wolfe1,image-121,5,31,A27RABV2PS9312,2021-01-08_16h25.04.830,MetaAwareness,2020.1.2,Win32,60,302OLP89D0AGXJI784UYZS778ONCAW,A27RABV2PS9312,3AZHRG4CU5NZ5QM0DBR652MOJ29030,CRZA8,CRZA8,3AZHRG4CU5NZ5QM0DBR652MOJ29030,3AZHRG4CU5NZ5QM0DBR652MOJ29030,268048,268048,,,,,,,,,,
,,,,5,13.23482,0,29,29,365,1,a person hiking a trail passing a flower with red petals,a person hiking a trail passing a flower with yellow petals,wolfe1,image-095,1,31,A27RABV2PS9312,2021-01-08_16h25.04.830,MetaAwareness,2020.1.2,Win32,60,302OLP89D0AGXJI784UYZS778ONCAW,A27RABV2PS9312,3AZHRG4CU5NZ5QM0DBR652MOJ29030,CRZA8,CRZA8,3AZHRG4CU5NZ5QM0DBR652MOJ29030,3AZHRG4CU5NZ5QM0DBR652MOJ29030,268048,268048,,,,,,,,,,
,,,,,,,,,,,,,,,,31,A27RABV2PS9312,2021-01-08_16h25.04.830,MetaAwareness,2020.1.2,Win32,60,302OLP89D0AGXJI784UYZS778ONCAW,A27RABV2PS9312,3AZHRG4CU5NZ5QM0DBR652MOJ29030,CRZA8,CRZA8,3AZHRG4CU5NZ5QM0DBR652MOJ29030,3AZHRG4CU5NZ5QM0DBR652MOJ29030,268048,268048,6,15.206995,someone laying underneath a blue beach umbrella on a crowded beach,someone laying underneath a blue beach umbrella on a crowded beach,same,1,19.14988,members of a marching band crossing a track that all have feather plumes at the front of their hats,a cluttered and rustic looking cafe with 10 hanging lights,different
