consent_response.keys,consent_response.rt,key_resp_2.keys,key_resp_2.rt,user_resp.keys,user_resp.rt,trials.thisRepN,trials.thisTrialN,trials.thisN,trials.thisIndex,trials.ran,image_1_text,image_2_text,database,image,number,age,worker_ID,date,expName,psychopyVersion,OS,frameRate,hitId,workerId,assignmentId,a,tp_a,b,tp_b,c,tp_c,catch_same_resp.keys,catch_same_resp.rt,image_1_text_catch_same,image_2_text_catch_same,image_catch_same,catch_different_resp.keys,catch_different_resp.rt,image_1_text_catch_different,image_2_text_catch_different,image_catch_different
space,41.40599,space,18.50732,3,5.937215,0,0,0,110,1,people climbing the face of a short cliff with bags and gear on the ground and one man in a red shirt almost reaching the top.,people climbing the face of a short cliff with bags and gear on the ground.,wolfe1,image-019,4,32,A31681CCEVDIH3,2021-01-08_12h55.32.080,MetaAwareness,2020.1.2,Win32,60,3XDJY5RK5TOXHOJQLU57GV7DNEV4UK,A31681CCEVDIH3,3SKEMFQBZ48NJDZATLWKF398DMR8KQ,BMKS8,BMKS8,3SKEMFQBZ48NJDZATLWKF398DMR8KQ,3SKEMFQBZ48NJDZATLWKF398DMR8KQ,268048,268048,,,,,,,,,,
,,,,3,13.480275,0,1,1,307,1,students using computers with a red object in the background,students using computers with a yellow object in the nbackground,wolfe1,image-083,2,32,A31681CCEVDIH3,2021-01-08_12h55.32.080,MetaAwareness,2020.1.2,Win32,60,3XDJY5RK5TOXHOJQLU57GV7DNEV4UK,A31681CCEVDIH3,3SKEMFQBZ48NJDZATLWKF398DMR8KQ,BMKS8,BMKS8,3SKEMFQBZ48NJDZATLWKF398DMR8KQ,3SKEMFQBZ48NJDZATLWKF398DMR8KQ,268048,268048,,,,,,,,,,
,,,,4,12.06877,0,2,2,276,1,two men one in yellow shirt watch motorcross biking,two men one in a green shirt watch motorcross biking,wolfe1,image-076,7,32,A31681CCEVDIH3,2021-01-08_12h55.32.080,MetaAwareness,2020.1.2,Win32,60,3XDJY5RK5TOXHOJQLU57GV7DNEV4UK,A31681CCEVDIH3,3SKEMFQBZ48NJDZATLWKF398DMR8KQ,BMKS8,BMKS8,3SKEMFQBZ48NJDZATLWKF398DMR8KQ,3SKEMFQBZ48NJDZATLWKF398DMR8KQ,268048,268048,,,,,,,,,,
,,,,5,5.336285,0,3,3,387,1,a group of people wearing red robes while a man in an orange jacket watches,a group of people wearing red robes while a man in a green jacket watches,wolfe1,image-099,1,32,A31681CCEVDIH3,2021-01-08_12h55.32.080,MetaAwareness,2020.1.2,Win32,60,3XDJY5RK5TOXHOJQLU57GV7DNEV4UK,A31681CCEVDIH3,3SKEMFQBZ48NJDZATLWKF398DMR8KQ,BMKS8,BMKS8,3SKEMFQBZ48NJDZATLWKF398DMR8KQ,3SKEMFQBZ48NJDZATLWKF398DMR8KQ,268048,268048,,,,,,,,,,
,,,,5,4.72689,0,4,4,5,1,a table is set at an outdoor cafe next to the sea. the table setting has service for eight and salt and pepper shakers.,a table is set at an outdoor cafe next to the sea. the table setting has service for eight.,wolfe1,image-001,6,32,A31681CCEVDIH3,2021-01-08_12h55.32.080,MetaAwareness,2020.1.2,Win32,60,3XDJY5RK5TOXHOJQLU57GV7DNEV4UK,A31681CCEVDIH3,3SKEMFQBZ48NJDZATLWKF398DMR8KQ,BMKS8,BMKS8,3SKEMFQBZ48NJDZATLWKF398DMR8KQ,3SKEMFQBZ48NJDZATLWKF398DMR8KQ,268048,268048,,,,,,,,,,
,,,,3,7.66128,0,5,5,430,1,there is a blue candlestick on top of the purple ones,there is only a green candlestick on top of the purple candle,wolfe1,image-107,8,32,A31681CCEVDIH3,2021-01-08_12h55.32.080,MetaAwareness,2020.1.2,Win32,60,3XDJY5RK5TOXHOJQLU57GV7DNEV4UK,A31681CCEVDIH3,3SKEMFQBZ48NJDZATLWKF398DMR8KQ,BMKS8,BMKS8,3SKEMFQBZ48NJDZATLWKF398DMR8KQ,3SKEMFQBZ48NJDZATLWKF398DMR8KQ,268048,268048,,,,,,,,,,
,,,,2,4.046275,0,6,6,280,1,"there are a group of people, including police officers, standing in front of a large brick mansion. a woman is holding a blue child's jacket.",there is a group of people standing in front of a large brick mansion. some  of the people are police officers. there is a woman holding a child' yellow jacket.,wolfe1,image-077,2,32,A31681CCEVDIH3,2021-01-08_12h55.32.080,MetaAwareness,2020.1.2,Win32,60,3XDJY5RK5TOXHOJQLU57GV7DNEV4UK,A31681CCEVDIH3,3SKEMFQBZ48NJDZATLWKF398DMR8KQ,BMKS8,BMKS8,3SKEMFQBZ48NJDZATLWKF398DMR8KQ,3SKEMFQBZ48NJDZATLWKF398DMR8KQ,268048,268048,,,,,,,,,,
,,,,3,2.635995,0,7,7,82,1,two guys pose with an eagle cutout with a building and a garbage can in the background,two guys pose with an eagle cutout with a building in the background,wolfe1,image-015,3,32,A31681CCEVDIH3,2021-01-08_12h55.32.080,MetaAwareness,2020.1.2,Win32,60,3XDJY5RK5TOXHOJQLU57GV7DNEV4UK,A31681CCEVDIH3,3SKEMFQBZ48NJDZATLWKF398DMR8KQ,BMKS8,BMKS8,3SKEMFQBZ48NJDZATLWKF398DMR8KQ,3SKEMFQBZ48NJDZATLWKF398DMR8KQ,268048,268048,,,,,,,,,,
,,,,3,3.4133,0,8,8,197,1,quiet street with a few traditional style buildings with a sign on the yellow building,quiet street with a few traditional style buildings,wolfe1,image-038,2,32,A31681CCEVDIH3,2021-01-08_12h55.32.080,MetaAwareness,2020.1.2,Win32,60,3XDJY5RK5TOXHOJQLU57GV7DNEV4UK,A31681CCEVDIH3,3SKEMFQBZ48NJDZATLWKF398DMR8KQ,BMKS8,BMKS8,3SKEMFQBZ48NJDZATLWKF398DMR8KQ,3SKEMFQBZ48NJDZATLWKF398DMR8KQ,268048,268048,,,,,,,,,,
,,,,1,5.54927,0,9,9,85,1,a bunch of people enjoying a day at the park where someone has dropped something,a bunch of people enjoying a day at the park with the pavement clear of debris,wolfe1,image-016,1,32,A31681CCEVDIH3,2021-01-08_12h55.32.080,MetaAwareness,2020.1.2,Win32,60,3XDJY5RK5TOXHOJQLU57GV7DNEV4UK,A31681CCEVDIH3,3SKEMFQBZ48NJDZATLWKF398DMR8KQ,BMKS8,BMKS8,3SKEMFQBZ48NJDZATLWKF398DMR8KQ,3SKEMFQBZ48NJDZATLWKF398DMR8KQ,268048,268048,,,,,,,,,,
,,,,1,2.93227,0,10,10,528,1,the guy si wearing blue,the guy is wearing green,wolfe1,image-126,4,32,A31681CCEVDIH3,2021-01-08_12h55.32.080,MetaAwareness,2020.1.2,Win32,60,3XDJY5RK5TOXHOJQLU57GV7DNEV4UK,A31681CCEVDIH3,3SKEMFQBZ48NJDZATLWKF398DMR8KQ,BMKS8,BMKS8,3SKEMFQBZ48NJDZATLWKF398DMR8KQ,3SKEMFQBZ48NJDZATLWKF398DMR8KQ,268048,268048,,,,,,,,,,
,,,,4,28.724225,0,11,11,275,1,"a dirtbike race with several people in the audience, one is wearing a yellow shirt","a dirt bike race with several people watching, the person wearing a yellow shirt is now wearing a green shirt.",wolfe1,image-076,6,32,A31681CCEVDIH3,2021-01-08_12h55.32.080,MetaAwareness,2020.1.2,Win32,60,3XDJY5RK5TOXHOJQLU57GV7DNEV4UK,A31681CCEVDIH3,3SKEMFQBZ48NJDZATLWKF398DMR8KQ,BMKS8,BMKS8,3SKEMFQBZ48NJDZATLWKF398DMR8KQ,3SKEMFQBZ48NJDZATLWKF398DMR8KQ,268048,268048,,,,,,,,,,
,,,,3,3.28331,0,12,12,438,1,"a group of hikers or tourists gathered around a sign on an outdoor trail, one of them with a red and black backpack on his back","a group of hikers or tourists gathered around a sign on a trail outside looking at the sign, one of them sporting a blue and black backpack",wolfe1,image-109,2,32,A31681CCEVDIH3,2021-01-08_12h55.32.080,MetaAwareness,2020.1.2,Win32,60,3XDJY5RK5TOXHOJQLU57GV7DNEV4UK,A31681CCEVDIH3,3SKEMFQBZ48NJDZATLWKF398DMR8KQ,BMKS8,BMKS8,3SKEMFQBZ48NJDZATLWKF398DMR8KQ,3SKEMFQBZ48NJDZATLWKF398DMR8KQ,268048,268048,,,,,,,,,,
,,,,4,3.788465,0,13,13,36,1,a street in milwaukee close to se water with a solar panel nearby,a street in milwaukee close to se water,wolfe1,image-007,5,32,A31681CCEVDIH3,2021-01-08_12h55.32.080,MetaAwareness,2020.1.2,Win32,60,3XDJY5RK5TOXHOJQLU57GV7DNEV4UK,A31681CCEVDIH3,3SKEMFQBZ48NJDZATLWKF398DMR8KQ,BMKS8,BMKS8,3SKEMFQBZ48NJDZATLWKF398DMR8KQ,3SKEMFQBZ48NJDZATLWKF398DMR8KQ,268048,268048,,,,,,,,,,
,,,,4,4.28618,0,14,14,193,1,6 various colored containers sitting on a picnic table in a green house.,5 various colored container sitting on a picnic table in a green house.,wolfe1,image-037,2,32,A31681CCEVDIH3,2021-01-08_12h55.32.080,MetaAwareness,2020.1.2,Win32,60,3XDJY5RK5TOXHOJQLU57GV7DNEV4UK,A31681CCEVDIH3,3SKEMFQBZ48NJDZATLWKF398DMR8KQ,BMKS8,BMKS8,3SKEMFQBZ48NJDZATLWKF398DMR8KQ,3SKEMFQBZ48NJDZATLWKF398DMR8KQ,268048,268048,,,,,,,,,,
,,,,4,6.66453,0,15,15,235,1,"seven small barns adorn a grassy countryside that rests near a lake, rolling hills, and a large mountain","six small barns adorn a grassy countryside that rests near a lake, rolling hills, and a large mountain",wolfe1,image-044,4,32,A31681CCEVDIH3,2021-01-08_12h55.32.080,MetaAwareness,2020.1.2,Win32,60,3XDJY5RK5TOXHOJQLU57GV7DNEV4UK,A31681CCEVDIH3,3SKEMFQBZ48NJDZATLWKF398DMR8KQ,BMKS8,BMKS8,3SKEMFQBZ48NJDZATLWKF398DMR8KQ,3SKEMFQBZ48NJDZATLWKF398DMR8KQ,268048,268048,,,,,,,,,,
,,,,3,2.519905,0,16,16,503,1,there are some purple and black color cloths on the boat,there are some green and black color cloths on the boat,wolfe1,image-121,4,32,A31681CCEVDIH3,2021-01-08_12h55.32.080,MetaAwareness,2020.1.2,Win32,60,3XDJY5RK5TOXHOJQLU57GV7DNEV4UK,A31681CCEVDIH3,3SKEMFQBZ48NJDZATLWKF398DMR8KQ,BMKS8,BMKS8,3SKEMFQBZ48NJDZATLWKF398DMR8KQ,3SKEMFQBZ48NJDZATLWKF398DMR8KQ,268048,268048,,,,,,,,,,
,,,,4,7.220845,0,17,17,222,1,a palace is on display with three points on the top closest to the crowd below,a palace is on diplay with two points on the top closest to the crowd below,wolfe1,image-042,3,32,A31681CCEVDIH3,2021-01-08_12h55.32.080,MetaAwareness,2020.1.2,Win32,60,3XDJY5RK5TOXHOJQLU57GV7DNEV4UK,A31681CCEVDIH3,3SKEMFQBZ48NJDZATLWKF398DMR8KQ,BMKS8,BMKS8,3SKEMFQBZ48NJDZATLWKF398DMR8KQ,3SKEMFQBZ48NJDZATLWKF398DMR8KQ,268048,268048,,,,,,,,,,
,,,,3,2.49362,0,18,18,504,1,a boat with red life vests hanging over the side of it,a boat with green life vests hanging over the side of it,wolfe1,image-121,5,32,A31681CCEVDIH3,2021-01-08_12h55.32.080,MetaAwareness,2020.1.2,Win32,60,3XDJY5RK5TOXHOJQLU57GV7DNEV4UK,A31681CCEVDIH3,3SKEMFQBZ48NJDZATLWKF398DMR8KQ,BMKS8,BMKS8,3SKEMFQBZ48NJDZATLWKF398DMR8KQ,3SKEMFQBZ48NJDZATLWKF398DMR8KQ,268048,268048,,,,,,,,,,
,,,,3,2.918485,0,19,19,549,1,a group of people in a cold snowy place with a man in blue getting into something that is orange.,a group of people in a cold snowy place with a man in blue getting into something that is blue.,wolfe1,image-130,1,32,A31681CCEVDIH3,2021-01-08_12h55.32.080,MetaAwareness,2020.1.2,Win32,60,3XDJY5RK5TOXHOJQLU57GV7DNEV4UK,A31681CCEVDIH3,3SKEMFQBZ48NJDZATLWKF398DMR8KQ,BMKS8,BMKS8,3SKEMFQBZ48NJDZATLWKF398DMR8KQ,3SKEMFQBZ48NJDZATLWKF398DMR8KQ,268048,268048,,,,,,,,,,
,,,,3,2.496695,0,20,20,396,1,a group of men posing for a picture with the gentleman all the way on the right wearing a bright red tie.,a group of men posing for a picture with the gentleman all the way on the right wearing a dull red tie.,wolfe1,image-102,2,32,A31681CCEVDIH3,2021-01-08_12h55.32.080,MetaAwareness,2020.1.2,Win32,60,3XDJY5RK5TOXHOJQLU57GV7DNEV4UK,A31681CCEVDIH3,3SKEMFQBZ48NJDZATLWKF398DMR8KQ,BMKS8,BMKS8,3SKEMFQBZ48NJDZATLWKF398DMR8KQ,3SKEMFQBZ48NJDZATLWKF398DMR8KQ,268048,268048,,,,,,,,,,
,,,,3,6.441855,0,21,21,216,1,wasteland with a red brick factory in the distance. the terrain and lake is riddled with rocks,wasteland with a red brick factory in the distance. the terrain is riddled with rocks,wolfe1,image-041,5,32,A31681CCEVDIH3,2021-01-08_12h55.32.080,MetaAwareness,2020.1.2,Win32,60,3XDJY5RK5TOXHOJQLU57GV7DNEV4UK,A31681CCEVDIH3,3SKEMFQBZ48NJDZATLWKF398DMR8KQ,BMKS8,BMKS8,3SKEMFQBZ48NJDZATLWKF398DMR8KQ,3SKEMFQBZ48NJDZATLWKF398DMR8KQ,268048,268048,,,,,,,,,,
,,,,2,5.25879,0,22,22,9,1,a yard sale with a blue shirt and a brown coat hanging up in front of a brick house.,a yard sale with a brown coat hanging up in front of a brick house.,wolfe1,image-002,4,32,A31681CCEVDIH3,2021-01-08_12h55.32.080,MetaAwareness,2020.1.2,Win32,60,3XDJY5RK5TOXHOJQLU57GV7DNEV4UK,A31681CCEVDIH3,3SKEMFQBZ48NJDZATLWKF398DMR8KQ,BMKS8,BMKS8,3SKEMFQBZ48NJDZATLWKF398DMR8KQ,3SKEMFQBZ48NJDZATLWKF398DMR8KQ,268048,268048,,,,,,,,,,
,,,,3,1.652615,0,23,23,339,1,"there is an orange room with black seats. in the seats are 5 young men. one of the people in the photo is wearing a blue, grey, and white t-shirt","there is an orange room with black seats. in teh seats are 5 young men. one of men in the photo is wearing a purple, grey, and white t-shirt.",wolfe1,image-089,6,32,A31681CCEVDIH3,2021-01-08_12h55.32.080,MetaAwareness,2020.1.2,Win32,60,3XDJY5RK5TOXHOJQLU57GV7DNEV4UK,A31681CCEVDIH3,3SKEMFQBZ48NJDZATLWKF398DMR8KQ,BMKS8,BMKS8,3SKEMFQBZ48NJDZATLWKF398DMR8KQ,3SKEMFQBZ48NJDZATLWKF398DMR8KQ,268048,268048,,,,,,,,,,
,,,,2,1.46444,0,24,24,332,1,a lady carrying a red water jug.,a lady carrying a pink water jug.,wolfe1,image-088,3,32,A31681CCEVDIH3,2021-01-08_12h55.32.080,MetaAwareness,2020.1.2,Win32,60,3XDJY5RK5TOXHOJQLU57GV7DNEV4UK,A31681CCEVDIH3,3SKEMFQBZ48NJDZATLWKF398DMR8KQ,BMKS8,BMKS8,3SKEMFQBZ48NJDZATLWKF398DMR8KQ,3SKEMFQBZ48NJDZATLWKF398DMR8KQ,268048,268048,,,,,,,,,,
,,,,3,1.554465,0,25,25,390,1,people standing on dirt in traditional indian garb and a man dressed casually with a peach collared shirt,people standing on dirt in traditional indian garb and a man dressed casually with a green collared shirt,wolfe1,image-099,4,32,A31681CCEVDIH3,2021-01-08_12h55.32.080,MetaAwareness,2020.1.2,Win32,60,3XDJY5RK5TOXHOJQLU57GV7DNEV4UK,A31681CCEVDIH3,3SKEMFQBZ48NJDZATLWKF398DMR8KQ,BMKS8,BMKS8,3SKEMFQBZ48NJDZATLWKF398DMR8KQ,3SKEMFQBZ48NJDZATLWKF398DMR8KQ,268048,268048,,,,,,,,,,
,,,,2,1.556465,0,26,26,325,1,many boys are being in the scene one boy wearing red color t-shirt,many boys are being in the scene and one boy wearing purple color t-shirt,wolfe1,image-086,4,32,A31681CCEVDIH3,2021-01-08_12h55.32.080,MetaAwareness,2020.1.2,Win32,60,3XDJY5RK5TOXHOJQLU57GV7DNEV4UK,A31681CCEVDIH3,3SKEMFQBZ48NJDZATLWKF398DMR8KQ,BMKS8,BMKS8,3SKEMFQBZ48NJDZATLWKF398DMR8KQ,3SKEMFQBZ48NJDZATLWKF398DMR8KQ,268048,268048,,,,,,,,,,
,,,,3,2.797555,0,27,27,356,1,the woman has a backback with a blue tag.,the woman has a backpack with a green tag.,wolfe1,image-094,1,32,A31681CCEVDIH3,2021-01-08_12h55.32.080,MetaAwareness,2020.1.2,Win32,60,3XDJY5RK5TOXHOJQLU57GV7DNEV4UK,A31681CCEVDIH3,3SKEMFQBZ48NJDZATLWKF398DMR8KQ,BMKS8,BMKS8,3SKEMFQBZ48NJDZATLWKF398DMR8KQ,3SKEMFQBZ48NJDZATLWKF398DMR8KQ,268048,268048,,,,,,,,,,
,,,,4,3.279855,0,28,28,3,1,a table is set with salt in a seaside dining area,a table with no food on it is set in a seaside dining area,wolfe1,image-001,4,32,A31681CCEVDIH3,2021-01-08_12h55.32.080,MetaAwareness,2020.1.2,Win32,60,3XDJY5RK5TOXHOJQLU57GV7DNEV4UK,A31681CCEVDIH3,3SKEMFQBZ48NJDZATLWKF398DMR8KQ,BMKS8,BMKS8,3SKEMFQBZ48NJDZATLWKF398DMR8KQ,3SKEMFQBZ48NJDZATLWKF398DMR8KQ,268048,268048,,,,,,,,,,
,,,,3,2.77619,0,29,29,552,1,a helicopter with a group of people getting supplies with yellow boxes,a helicopter with a group of people getting supplies with blue boxes,wolfe1,image-130,5,32,A31681CCEVDIH3,2021-01-08_12h55.32.080,MetaAwareness,2020.1.2,Win32,60,3XDJY5RK5TOXHOJQLU57GV7DNEV4UK,A31681CCEVDIH3,3SKEMFQBZ48NJDZATLWKF398DMR8KQ,BMKS8,BMKS8,3SKEMFQBZ48NJDZATLWKF398DMR8KQ,3SKEMFQBZ48NJDZATLWKF398DMR8KQ,268048,268048,,,,,,,,,,
,,,,,,,,,,,,,,,,32,A31681CCEVDIH3,2021-01-08_12h55.32.080,MetaAwareness,2020.1.2,Win32,60,3XDJY5RK5TOXHOJQLU57GV7DNEV4UK,A31681CCEVDIH3,3SKEMFQBZ48NJDZATLWKF398DMR8KQ,BMKS8,BMKS8,3SKEMFQBZ48NJDZATLWKF398DMR8KQ,3SKEMFQBZ48NJDZATLWKF398DMR8KQ,268048,268048,4,2.74562,someone laying underneath a blue beach umbrella on a crowded beach,someone laying underneath a blue beach umbrella on a crowded beach,same,1,6.807565,members of a marching band crossing a track that all have feather plumes at the front of their hats,a cluttered and rustic looking cafe with 10 hanging lights,different
