consent_response.keys,consent_response.rt,key_resp_2.keys,key_resp_2.rt,user_resp.keys,user_resp.rt,trials.thisRepN,trials.thisTrialN,trials.thisN,trials.thisIndex,trials.ran,image_1_text,image_2_text,database,image,number,age,worker_ID,date,expName,psychopyVersion,OS,frameRate,hitId,workerId,assignmentId,a,tp_a,b,tp_b,c,tp_c,catch_same_resp.keys,catch_same_resp.rt,image_1_text_catch_same,image_2_text_catch_same,image_catch_same,catch_different_resp.keys,catch_different_resp.rt,image_1_text_catch_different,image_2_text_catch_different,image_catch_different
space,5.791,space,5.467,4,12.438,0,0,0,177,1,guys playing basketball on a court which is covered slightly on the corner,guys playing basketball on a court,wolfe1,image-033,4,38,A5NE8TWS8ZV7B,2021-01-08_15h57.35.024,MetaAwareness,2020.1.2,Win32,60,3LN3BXKGC1YQL81FBVM978PDYZHWG0,A5NE8TWS8ZV7B,33PPO7FECWI8UD5DAQMOOF8WW9BID7,EOP38,EOP38,33PPO7FECWI8UD5DAQMOOF8WW9BID7,33PPO7FECWI8UD5DAQMOOF8WW9BID7,268048,268048,,,,,,,,,,
,,,,4,7.679,0,1,1,65,1,a very modern cabin with a hammock and a fire pit,a very modern cabin with a hammock and a gravel yard,wolfe1,image-012,6,38,A5NE8TWS8ZV7B,2021-01-08_15h57.35.024,MetaAwareness,2020.1.2,Win32,60,3LN3BXKGC1YQL81FBVM978PDYZHWG0,A5NE8TWS8ZV7B,33PPO7FECWI8UD5DAQMOOF8WW9BID7,EOP38,EOP38,33PPO7FECWI8UD5DAQMOOF8WW9BID7,33PPO7FECWI8UD5DAQMOOF8WW9BID7,268048,268048,,,,,,,,,,
,,,,2,11.203,0,2,2,351,1,kids balancing on one foot in a gym with one girl wearing pink pants.,kids balancing on one foot in a gym with one girl wearing green pants.,wolfe1,image-093,2,38,A5NE8TWS8ZV7B,2021-01-08_15h57.35.024,MetaAwareness,2020.1.2,Win32,60,3LN3BXKGC1YQL81FBVM978PDYZHWG0,A5NE8TWS8ZV7B,33PPO7FECWI8UD5DAQMOOF8WW9BID7,EOP38,EOP38,33PPO7FECWI8UD5DAQMOOF8WW9BID7,33PPO7FECWI8UD5DAQMOOF8WW9BID7,268048,268048,,,,,,,,,,
,,,,2,8.524,0,3,3,468,1,"a group of people listening to a concert, with a woman sitting in a green chair.",a group of people listening to a concert and a woman sitting in a purple chair.,wolfe1,image-115,1,38,A5NE8TWS8ZV7B,2021-01-08_15h57.35.024,MetaAwareness,2020.1.2,Win32,60,3LN3BXKGC1YQL81FBVM978PDYZHWG0,A5NE8TWS8ZV7B,33PPO7FECWI8UD5DAQMOOF8WW9BID7,EOP38,EOP38,33PPO7FECWI8UD5DAQMOOF8WW9BID7,33PPO7FECWI8UD5DAQMOOF8WW9BID7,268048,268048,,,,,,,,,,
,,,,2,9.345,0,4,4,564,1,"a well-decorated living room with a fireplace, several pictures on the wall, and two white couches covered in pillows, one of which is red","a well-decorated living room with a fireplace, several pictures on the wall, and two white couches covered in pillows, one of which is green",wolfe1,image-132,5,38,A5NE8TWS8ZV7B,2021-01-08_15h57.35.024,MetaAwareness,2020.1.2,Win32,60,3LN3BXKGC1YQL81FBVM978PDYZHWG0,A5NE8TWS8ZV7B,33PPO7FECWI8UD5DAQMOOF8WW9BID7,EOP38,EOP38,33PPO7FECWI8UD5DAQMOOF8WW9BID7,33PPO7FECWI8UD5DAQMOOF8WW9BID7,268048,268048,,,,,,,,,,
,,,,2,3.969,0,5,5,371,1,hiker walking along a trail next to a red flower.,hiker walking along a trail next to a yellow flower.,wolfe1,image-095,8,38,A5NE8TWS8ZV7B,2021-01-08_15h57.35.024,MetaAwareness,2020.1.2,Win32,60,3LN3BXKGC1YQL81FBVM978PDYZHWG0,A5NE8TWS8ZV7B,33PPO7FECWI8UD5DAQMOOF8WW9BID7,EOP38,EOP38,33PPO7FECWI8UD5DAQMOOF8WW9BID7,33PPO7FECWI8UD5DAQMOOF8WW9BID7,268048,268048,,,,,,,,,,
,,,,2,2.902,0,6,6,443,1,strip of bulidings with a red one at the end,strip of buildings with a blue one at the end,wolfe1,image-110,3,38,A5NE8TWS8ZV7B,2021-01-08_15h57.35.024,MetaAwareness,2020.1.2,Win32,60,3LN3BXKGC1YQL81FBVM978PDYZHWG0,A5NE8TWS8ZV7B,33PPO7FECWI8UD5DAQMOOF8WW9BID7,EOP38,EOP38,33PPO7FECWI8UD5DAQMOOF8WW9BID7,33PPO7FECWI8UD5DAQMOOF8WW9BID7,268048,268048,,,,,,,,,,
,,,,2,7.755,0,7,7,370,1,a man is hiking on a dirt trail with red flowers growing beside it.,a man is hiking on a dirt trail with yellow flowers growing beside it.,wolfe1,image-095,7,38,A5NE8TWS8ZV7B,2021-01-08_15h57.35.024,MetaAwareness,2020.1.2,Win32,60,3LN3BXKGC1YQL81FBVM978PDYZHWG0,A5NE8TWS8ZV7B,33PPO7FECWI8UD5DAQMOOF8WW9BID7,EOP38,EOP38,33PPO7FECWI8UD5DAQMOOF8WW9BID7,33PPO7FECWI8UD5DAQMOOF8WW9BID7,268048,268048,,,,,,,,,,
,,,,2,5.275,0,8,8,412,1,"a group of doctors and or nurses are in a meeting room having a discussion, and one of the men is wearing a light blue button-down dress shirt","a group of doctors and or nurses are in a meeting room having a discussion, and one of the men is wearing a light green button-down dress shirt",wolfe1,image-104,6,38,A5NE8TWS8ZV7B,2021-01-08_15h57.35.024,MetaAwareness,2020.1.2,Win32,60,3LN3BXKGC1YQL81FBVM978PDYZHWG0,A5NE8TWS8ZV7B,33PPO7FECWI8UD5DAQMOOF8WW9BID7,EOP38,EOP38,33PPO7FECWI8UD5DAQMOOF8WW9BID7,33PPO7FECWI8UD5DAQMOOF8WW9BID7,268048,268048,,,,,,,,,,
,,,,2,6.006,0,9,9,285,1,people walking down the street with a man in a blue striped shirt looking at passing storefronts,people walking down the street with a man in a green striped shirt looking at passing storefronts,wolfe1,image-078,3,38,A5NE8TWS8ZV7B,2021-01-08_15h57.35.024,MetaAwareness,2020.1.2,Win32,60,3LN3BXKGC1YQL81FBVM978PDYZHWG0,A5NE8TWS8ZV7B,33PPO7FECWI8UD5DAQMOOF8WW9BID7,EOP38,EOP38,33PPO7FECWI8UD5DAQMOOF8WW9BID7,33PPO7FECWI8UD5DAQMOOF8WW9BID7,268048,268048,,,,,,,,,,
,,,,2,3.321,0,10,10,458,1,people walking downtown with one person looking at a turquios shop with red shades,people walking downtown with one person looking at a turquois shop with yellow shades,wolfe1,image-113,1,38,A5NE8TWS8ZV7B,2021-01-08_15h57.35.024,MetaAwareness,2020.1.2,Win32,60,3LN3BXKGC1YQL81FBVM978PDYZHWG0,A5NE8TWS8ZV7B,33PPO7FECWI8UD5DAQMOOF8WW9BID7,EOP38,EOP38,33PPO7FECWI8UD5DAQMOOF8WW9BID7,33PPO7FECWI8UD5DAQMOOF8WW9BID7,268048,268048,,,,,,,,,,
,,,,1,9.857,0,11,11,7,1,a yard sale in front of a brick house with clothing and a childs to and a blue dress,a yard sale in front of a brick house with clothing and a childs toy,wolfe1,image-002,2,38,A5NE8TWS8ZV7B,2021-01-08_15h57.35.024,MetaAwareness,2020.1.2,Win32,60,3LN3BXKGC1YQL81FBVM978PDYZHWG0,A5NE8TWS8ZV7B,33PPO7FECWI8UD5DAQMOOF8WW9BID7,EOP38,EOP38,33PPO7FECWI8UD5DAQMOOF8WW9BID7,33PPO7FECWI8UD5DAQMOOF8WW9BID7,268048,268048,,,,,,,,,,
,,,,5,21.596,0,12,12,435,1,three men are playing golf with a roofline visible between the trees.,men are playing golf in a neighborhood with a roofline of a house in the background.,wolfe1,image-108,5,38,A5NE8TWS8ZV7B,2021-01-08_15h57.35.024,MetaAwareness,2020.1.2,Win32,60,3LN3BXKGC1YQL81FBVM978PDYZHWG0,A5NE8TWS8ZV7B,33PPO7FECWI8UD5DAQMOOF8WW9BID7,EOP38,EOP38,33PPO7FECWI8UD5DAQMOOF8WW9BID7,33PPO7FECWI8UD5DAQMOOF8WW9BID7,268048,268048,,,,,,,,,,
,,,,2,5.109,0,13,13,206,1,a group of boys are playing basketball. there is a coachlight on the wall,a group of boys are playing basketball. there is no coachlight on the wall.,wolfe1,image-040,2,38,A5NE8TWS8ZV7B,2021-01-08_15h57.35.024,MetaAwareness,2020.1.2,Win32,60,3LN3BXKGC1YQL81FBVM978PDYZHWG0,A5NE8TWS8ZV7B,33PPO7FECWI8UD5DAQMOOF8WW9BID7,EOP38,EOP38,33PPO7FECWI8UD5DAQMOOF8WW9BID7,33PPO7FECWI8UD5DAQMOOF8WW9BID7,268048,268048,,,,,,,,,,
,,,,1,10.131,0,14,14,304,1,a soccer play with one red and one torquoise shoe rens after another toward the ball,a soccer play with one red and one green shoe runs after another toward the ball,wolfe1,image-082,3,38,A5NE8TWS8ZV7B,2021-01-08_15h57.35.024,MetaAwareness,2020.1.2,Win32,60,3LN3BXKGC1YQL81FBVM978PDYZHWG0,A5NE8TWS8ZV7B,33PPO7FECWI8UD5DAQMOOF8WW9BID7,EOP38,EOP38,33PPO7FECWI8UD5DAQMOOF8WW9BID7,33PPO7FECWI8UD5DAQMOOF8WW9BID7,268048,268048,,,,,,,,,,
,,,,2,8.597,0,15,15,99,1,"a group camps on a beach, their kayaks and tents and chairs set up on the sand, including one overlooking the horizon.","a group camps on a beach, their kayaks and tents and chairs set up on the sand, though none overlook the horizon.",wolfe1,image-018,1,38,A5NE8TWS8ZV7B,2021-01-08_15h57.35.024,MetaAwareness,2020.1.2,Win32,60,3LN3BXKGC1YQL81FBVM978PDYZHWG0,A5NE8TWS8ZV7B,33PPO7FECWI8UD5DAQMOOF8WW9BID7,EOP38,EOP38,33PPO7FECWI8UD5DAQMOOF8WW9BID7,33PPO7FECWI8UD5DAQMOOF8WW9BID7,268048,268048,,,,,,,,,,
,,,,2,6.904,0,16,16,158,1,there is a somewhat empty sidewalk along a street with shops and a sandwhich board in front of the jewelry shop,there is a somewhat empty sidewalk along a street with shops and no sandwhich boards on the sidewalk,wolfe1,image-030,3,38,A5NE8TWS8ZV7B,2021-01-08_15h57.35.024,MetaAwareness,2020.1.2,Win32,60,3LN3BXKGC1YQL81FBVM978PDYZHWG0,A5NE8TWS8ZV7B,33PPO7FECWI8UD5DAQMOOF8WW9BID7,EOP38,EOP38,33PPO7FECWI8UD5DAQMOOF8WW9BID7,33PPO7FECWI8UD5DAQMOOF8WW9BID7,268048,268048,,,,,,,,,,
,,,,2,7.213,0,17,17,324,1,children are playing in a grassy field while a kid in a red shirt sits behind them,children are playing in a grassy fiel while a kid in purple sits behind them,wolfe1,image-086,3,38,A5NE8TWS8ZV7B,2021-01-08_15h57.35.024,MetaAwareness,2020.1.2,Win32,60,3LN3BXKGC1YQL81FBVM978PDYZHWG0,A5NE8TWS8ZV7B,33PPO7FECWI8UD5DAQMOOF8WW9BID7,EOP38,EOP38,33PPO7FECWI8UD5DAQMOOF8WW9BID7,33PPO7FECWI8UD5DAQMOOF8WW9BID7,268048,268048,,,,,,,,,,
,,,,1,12.641,0,18,18,174,1,basketball game near a roofed building,basketball game in a park with trees,wolfe1,image-033,1,38,A5NE8TWS8ZV7B,2021-01-08_15h57.35.024,MetaAwareness,2020.1.2,Win32,60,3LN3BXKGC1YQL81FBVM978PDYZHWG0,A5NE8TWS8ZV7B,33PPO7FECWI8UD5DAQMOOF8WW9BID7,EOP38,EOP38,33PPO7FECWI8UD5DAQMOOF8WW9BID7,33PPO7FECWI8UD5DAQMOOF8WW9BID7,268048,268048,,,,,,,,,,
,,,,1,10.171,0,19,19,263,1,coconut trees are placed in the beach and one coconut  leaves placed in the yellow box,coconut trees are placed in the beach and one coconut leaves with inflorescence is not  there in the yellow box,wolfe1,image-049,3,38,A5NE8TWS8ZV7B,2021-01-08_15h57.35.024,MetaAwareness,2020.1.2,Win32,60,3LN3BXKGC1YQL81FBVM978PDYZHWG0,A5NE8TWS8ZV7B,33PPO7FECWI8UD5DAQMOOF8WW9BID7,EOP38,EOP38,33PPO7FECWI8UD5DAQMOOF8WW9BID7,33PPO7FECWI8UD5DAQMOOF8WW9BID7,268048,268048,,,,,,,,,,
,,,,1,4.678,0,20,20,25,1,"behind the jumping female graduates, there is a bench",behind the jumping female graduates there is grass,wolfe1,image-005,8,38,A5NE8TWS8ZV7B,2021-01-08_15h57.35.024,MetaAwareness,2020.1.2,Win32,60,3LN3BXKGC1YQL81FBVM978PDYZHWG0,A5NE8TWS8ZV7B,33PPO7FECWI8UD5DAQMOOF8WW9BID7,EOP38,EOP38,33PPO7FECWI8UD5DAQMOOF8WW9BID7,33PPO7FECWI8UD5DAQMOOF8WW9BID7,268048,268048,,,,,,,,,,
,,,,2,7.196,0,21,21,214,1,a landscape photo of a red building and a lake with 1 rock in the lake,a landscape photo of a red building and a lake without any rocks in the lake,wolfe1,image-041,3,38,A5NE8TWS8ZV7B,2021-01-08_15h57.35.024,MetaAwareness,2020.1.2,Win32,60,3LN3BXKGC1YQL81FBVM978PDYZHWG0,A5NE8TWS8ZV7B,33PPO7FECWI8UD5DAQMOOF8WW9BID7,EOP38,EOP38,33PPO7FECWI8UD5DAQMOOF8WW9BID7,33PPO7FECWI8UD5DAQMOOF8WW9BID7,268048,268048,,,,,,,,,,
,,,,4,8.631,0,22,22,98,1,four men playing golf and the current golfer has something behind him.,four men playing golf,wolfe1,image-017,9,38,A5NE8TWS8ZV7B,2021-01-08_15h57.35.024,MetaAwareness,2020.1.2,Win32,60,3LN3BXKGC1YQL81FBVM978PDYZHWG0,A5NE8TWS8ZV7B,33PPO7FECWI8UD5DAQMOOF8WW9BID7,EOP38,EOP38,33PPO7FECWI8UD5DAQMOOF8WW9BID7,33PPO7FECWI8UD5DAQMOOF8WW9BID7,268048,268048,,,,,,,,,,
,,,,2,3.681,0,23,23,454,1,"in the crowd of people, one man wears a red shirt.",in the crowd of people one man wears a blue shirt.,wolfe1,image-112,1,38,A5NE8TWS8ZV7B,2021-01-08_15h57.35.024,MetaAwareness,2020.1.2,Win32,60,3LN3BXKGC1YQL81FBVM978PDYZHWG0,A5NE8TWS8ZV7B,33PPO7FECWI8UD5DAQMOOF8WW9BID7,EOP38,EOP38,33PPO7FECWI8UD5DAQMOOF8WW9BID7,33PPO7FECWI8UD5DAQMOOF8WW9BID7,268048,268048,,,,,,,,,,
,,,,4,6.703,0,24,24,61,1,"a small building with a hammock, and a small circular object on the ground outside",a small building with a hammock,wolfe1,image-012,2,38,A5NE8TWS8ZV7B,2021-01-08_15h57.35.024,MetaAwareness,2020.1.2,Win32,60,3LN3BXKGC1YQL81FBVM978PDYZHWG0,A5NE8TWS8ZV7B,33PPO7FECWI8UD5DAQMOOF8WW9BID7,EOP38,EOP38,33PPO7FECWI8UD5DAQMOOF8WW9BID7,33PPO7FECWI8UD5DAQMOOF8WW9BID7,268048,268048,,,,,,,,,,
,,,,2,4.288,0,25,25,291,1,the inside of a mall with someone standing infront of a red banner.,the inside of a mall with someone standing infront of a purple banner.,wolfe1,image-079,5,38,A5NE8TWS8ZV7B,2021-01-08_15h57.35.024,MetaAwareness,2020.1.2,Win32,60,3LN3BXKGC1YQL81FBVM978PDYZHWG0,A5NE8TWS8ZV7B,33PPO7FECWI8UD5DAQMOOF8WW9BID7,EOP38,EOP38,33PPO7FECWI8UD5DAQMOOF8WW9BID7,33PPO7FECWI8UD5DAQMOOF8WW9BID7,268048,268048,,,,,,,,,,
,,,,5,15.483,0,26,26,110,1,people climbing the face of a short cliff with bags and gear on the ground and one man in a red shirt almost reaching the top.,people climbing the face of a short cliff with bags and gear on the ground.,wolfe1,image-019,4,38,A5NE8TWS8ZV7B,2021-01-08_15h57.35.024,MetaAwareness,2020.1.2,Win32,60,3LN3BXKGC1YQL81FBVM978PDYZHWG0,A5NE8TWS8ZV7B,33PPO7FECWI8UD5DAQMOOF8WW9BID7,EOP38,EOP38,33PPO7FECWI8UD5DAQMOOF8WW9BID7,33PPO7FECWI8UD5DAQMOOF8WW9BID7,268048,268048,,,,,,,,,,
,,,,5,8.288,0,27,27,81,1,two young guys playing around with the college mascot on a brick courtyard with a trashcan,two young guys playing around with the college mascot on a brick courtyard,wolfe1,image-015,2,38,A5NE8TWS8ZV7B,2021-01-08_15h57.35.024,MetaAwareness,2020.1.2,Win32,60,3LN3BXKGC1YQL81FBVM978PDYZHWG0,A5NE8TWS8ZV7B,33PPO7FECWI8UD5DAQMOOF8WW9BID7,EOP38,EOP38,33PPO7FECWI8UD5DAQMOOF8WW9BID7,33PPO7FECWI8UD5DAQMOOF8WW9BID7,268048,268048,,,,,,,,,,
,,,,2,3.508,0,28,28,292,1,a mall with storefronts with red in the windows,a mall with storefronts with purple in the windows,wolfe1,image-079,6,38,A5NE8TWS8ZV7B,2021-01-08_15h57.35.024,MetaAwareness,2020.1.2,Win32,60,3LN3BXKGC1YQL81FBVM978PDYZHWG0,A5NE8TWS8ZV7B,33PPO7FECWI8UD5DAQMOOF8WW9BID7,EOP38,EOP38,33PPO7FECWI8UD5DAQMOOF8WW9BID7,33PPO7FECWI8UD5DAQMOOF8WW9BID7,268048,268048,,,,,,,,,,
,,,,6,6.737,0,29,29,517,1,a wooden pole in some water by a walkway,a wooden pole in some water by a walkway,wolfe1,image-124,2,38,A5NE8TWS8ZV7B,2021-01-08_15h57.35.024,MetaAwareness,2020.1.2,Win32,60,3LN3BXKGC1YQL81FBVM978PDYZHWG0,A5NE8TWS8ZV7B,33PPO7FECWI8UD5DAQMOOF8WW9BID7,EOP38,EOP38,33PPO7FECWI8UD5DAQMOOF8WW9BID7,33PPO7FECWI8UD5DAQMOOF8WW9BID7,268048,268048,,,,,,,,,,
,,,,,,,,,,,,,,,,38,A5NE8TWS8ZV7B,2021-01-08_15h57.35.024,MetaAwareness,2020.1.2,Win32,60,3LN3BXKGC1YQL81FBVM978PDYZHWG0,A5NE8TWS8ZV7B,33PPO7FECWI8UD5DAQMOOF8WW9BID7,EOP38,EOP38,33PPO7FECWI8UD5DAQMOOF8WW9BID7,33PPO7FECWI8UD5DAQMOOF8WW9BID7,268048,268048,6,7.021,someone laying underneath a blue beach umbrella on a crowded beach,someone laying underneath a blue beach umbrella on a crowded beach,same,1,5.453,members of a marching band crossing a track that all have feather plumes at the front of their hats,a cluttered and rustic looking cafe with 10 hanging lights,different
