consent_response.keys,consent_response.rt,key_resp_2.keys,key_resp_2.rt,user_resp.keys,user_resp.rt,trials.thisRepN,trials.thisTrialN,trials.thisN,trials.thisIndex,trials.ran,image_1_text,image_2_text,database,image,number,age,worker_ID,date,expName,psychopyVersion,OS,frameRate,hitId,workerId,assignmentId,a,tp_a,b,tp_b,c,tp_c,catch_same_resp.keys,catch_same_resp.rt,image_1_text_catch_same,image_2_text_catch_same,image_catch_same,catch_different_resp.keys,catch_different_resp.rt,image_1_text_catch_different,image_2_text_catch_different,image_catch_different
space,12.04901,space,10.019605,5,17.67125,0,0,0,128,1,a woman and young girl walking into a clinic with 2 bushes on either side,a woman and a young girl walking into a clinic with a bush on the right side,wolfe1,image-023,2,37,AFRKVRPZ2RHY8,2021-01-08_16h20.08.159,MetaAwareness,2020.1.2,Win32,60,3KA7IJSNW784AIW3JNG0E3QKPPOBP5,AFRKVRPZ2RHY8,3R0T90IZ1TFKTUT4K6RAJXDYWWECGG,Z90R8,Z90R8,3R0T90IZ1TFKTUT4K6RAJXDYWWECGG,3R0T90IZ1TFKTUT4K6RAJXDYWWECGG,268048,268048,,,,,,,,,,
,,,,4,5.904975,0,1,1,457,1,a man in a red shirt is amoung the crowd,a man in a blue shirt is among the crowd,wolfe1,image-112,4,37,AFRKVRPZ2RHY8,2021-01-08_16h20.08.159,MetaAwareness,2020.1.2,Win32,60,3KA7IJSNW784AIW3JNG0E3QKPPOBP5,AFRKVRPZ2RHY8,3R0T90IZ1TFKTUT4K6RAJXDYWWECGG,Z90R8,Z90R8,3R0T90IZ1TFKTUT4K6RAJXDYWWECGG,3R0T90IZ1TFKTUT4K6RAJXDYWWECGG,268048,268048,,,,,,,,,,
,,,,6,7.08318,0,2,2,213,1,"a mossy, marsh like scene with mountains and blue sky in the background as well as a red, farmlike facility, with one of the marsh rocks in the foreground","a marshlike, rocky setting with water and moutains and a red, farmlike facility in the background and a swatch of lake and plant growth in the foreground",wolfe1,image-041,2,37,AFRKVRPZ2RHY8,2021-01-08_16h20.08.159,MetaAwareness,2020.1.2,Win32,60,3KA7IJSNW784AIW3JNG0E3QKPPOBP5,AFRKVRPZ2RHY8,3R0T90IZ1TFKTUT4K6RAJXDYWWECGG,Z90R8,Z90R8,3R0T90IZ1TFKTUT4K6RAJXDYWWECGG,3R0T90IZ1TFKTUT4K6RAJXDYWWECGG,268048,268048,,,,,,,,,,
,,,,3,4.38643,0,3,3,46,1,a bunch of animals on a farm and a chicken running nearby,a bunch of animals on a farm and  some hay in a fence nearby,wolfe1,image-009,4,37,AFRKVRPZ2RHY8,2021-01-08_16h20.08.159,MetaAwareness,2020.1.2,Win32,60,3KA7IJSNW784AIW3JNG0E3QKPPOBP5,AFRKVRPZ2RHY8,3R0T90IZ1TFKTUT4K6RAJXDYWWECGG,Z90R8,Z90R8,3R0T90IZ1TFKTUT4K6RAJXDYWWECGG,3R0T90IZ1TFKTUT4K6RAJXDYWWECGG,268048,268048,,,,,,,,,,
,,,,5,12.753145,0,4,4,503,1,there are some purple and black color cloths on the boat,there are some green and black color cloths on the boat,wolfe1,image-121,4,37,AFRKVRPZ2RHY8,2021-01-08_16h20.08.159,MetaAwareness,2020.1.2,Win32,60,3KA7IJSNW784AIW3JNG0E3QKPPOBP5,AFRKVRPZ2RHY8,3R0T90IZ1TFKTUT4K6RAJXDYWWECGG,Z90R8,Z90R8,3R0T90IZ1TFKTUT4K6RAJXDYWWECGG,3R0T90IZ1TFKTUT4K6RAJXDYWWECGG,268048,268048,,,,,,,,,,
,,,,5,3.327455,0,5,5,592,1,umbrellas sit on a beach with a blue one at the rear,umbrellas sit on a beach with a yellow one at the rear,wolfe1,image-137,3,37,AFRKVRPZ2RHY8,2021-01-08_16h20.08.159,MetaAwareness,2020.1.2,Win32,60,3KA7IJSNW784AIW3JNG0E3QKPPOBP5,AFRKVRPZ2RHY8,3R0T90IZ1TFKTUT4K6RAJXDYWWECGG,Z90R8,Z90R8,3R0T90IZ1TFKTUT4K6RAJXDYWWECGG,3R0T90IZ1TFKTUT4K6RAJXDYWWECGG,268048,268048,,,,,,,,,,
,,,,3,4.81765,0,6,6,203,1,a square black objects sits in the middle of the shelf in a room,nothing sits in the middle of the shelf  in a room,wolfe1,image-039,4,37,AFRKVRPZ2RHY8,2021-01-08_16h20.08.159,MetaAwareness,2020.1.2,Win32,60,3KA7IJSNW784AIW3JNG0E3QKPPOBP5,AFRKVRPZ2RHY8,3R0T90IZ1TFKTUT4K6RAJXDYWWECGG,Z90R8,Z90R8,3R0T90IZ1TFKTUT4K6RAJXDYWWECGG,3R0T90IZ1TFKTUT4K6RAJXDYWWECGG,268048,268048,,,,,,,,,,
,,,,3,5.505695,0,7,7,264,1,a beach scene with a palm tree. one of the palm fronds is highlighted.,a beach scene with a palm tree. one of the palm fronds is missing.,wolfe1,image-049,4,37,AFRKVRPZ2RHY8,2021-01-08_16h20.08.159,MetaAwareness,2020.1.2,Win32,60,3KA7IJSNW784AIW3JNG0E3QKPPOBP5,AFRKVRPZ2RHY8,3R0T90IZ1TFKTUT4K6RAJXDYWWECGG,Z90R8,Z90R8,3R0T90IZ1TFKTUT4K6RAJXDYWWECGG,3R0T90IZ1TFKTUT4K6RAJXDYWWECGG,268048,268048,,,,,,,,,,
,,,,5,6.475295,0,8,8,516,1,two people walking their dog in a park next to the marina with a dull green colored post.,two people walking their dog in a park next to the marina with a brown colored post.,wolfe1,image-124,1,37,AFRKVRPZ2RHY8,2021-01-08_16h20.08.159,MetaAwareness,2020.1.2,Win32,60,3KA7IJSNW784AIW3JNG0E3QKPPOBP5,AFRKVRPZ2RHY8,3R0T90IZ1TFKTUT4K6RAJXDYWWECGG,Z90R8,Z90R8,3R0T90IZ1TFKTUT4K6RAJXDYWWECGG,3R0T90IZ1TFKTUT4K6RAJXDYWWECGG,268048,268048,,,,,,,,,,
,,,,5,6.383835,0,9,9,121,1,three runners jogging next to a building and two patches of grass that contain an object on one of them,three runners jogging next to a building and two patches of grass that are open and do not have any objects on them,wolfe1,image-022,1,37,AFRKVRPZ2RHY8,2021-01-08_16h20.08.159,MetaAwareness,2020.1.2,Win32,60,3KA7IJSNW784AIW3JNG0E3QKPPOBP5,AFRKVRPZ2RHY8,3R0T90IZ1TFKTUT4K6RAJXDYWWECGG,Z90R8,Z90R8,3R0T90IZ1TFKTUT4K6RAJXDYWWECGG,3R0T90IZ1TFKTUT4K6RAJXDYWWECGG,268048,268048,,,,,,,,,,
,,,,3,9.30046,0,10,10,180,1,men playing a game of basket ball while people watch in the shade under a canopy,men playing basketball while people watch behind a barricade,wolfe1,image-033,7,37,AFRKVRPZ2RHY8,2021-01-08_16h20.08.159,MetaAwareness,2020.1.2,Win32,60,3KA7IJSNW784AIW3JNG0E3QKPPOBP5,AFRKVRPZ2RHY8,3R0T90IZ1TFKTUT4K6RAJXDYWWECGG,Z90R8,Z90R8,3R0T90IZ1TFKTUT4K6RAJXDYWWECGG,3R0T90IZ1TFKTUT4K6RAJXDYWWECGG,268048,268048,,,,,,,,,,
,,,,2,7.510265,0,11,11,392,1,"a campsite with a trailer, tent, red chairs, and 2 red beach towels and 1 blue beach towel hanging on a clothes line","a campsite with a trailer, tent, red chairs, and 3 red beach towels hanging on a clothes line",wolfe1,image-100,2,37,AFRKVRPZ2RHY8,2021-01-08_16h20.08.159,MetaAwareness,2020.1.2,Win32,60,3KA7IJSNW784AIW3JNG0E3QKPPOBP5,AFRKVRPZ2RHY8,3R0T90IZ1TFKTUT4K6RAJXDYWWECGG,Z90R8,Z90R8,3R0T90IZ1TFKTUT4K6RAJXDYWWECGG,3R0T90IZ1TFKTUT4K6RAJXDYWWECGG,268048,268048,,,,,,,,,,
,,,,3,6.80721,0,12,12,545,1,an old woman wearing blue jeans is standing in a crowd of people on a road,an elderly woman wearing grey pants is standing in a crowd of people on the roadside,wolfe1,image-129,6,37,AFRKVRPZ2RHY8,2021-01-08_16h20.08.159,MetaAwareness,2020.1.2,Win32,60,3KA7IJSNW784AIW3JNG0E3QKPPOBP5,AFRKVRPZ2RHY8,3R0T90IZ1TFKTUT4K6RAJXDYWWECGG,Z90R8,Z90R8,3R0T90IZ1TFKTUT4K6RAJXDYWWECGG,3R0T90IZ1TFKTUT4K6RAJXDYWWECGG,268048,268048,,,,,,,,,,
,,,,5,6.00889,0,13,13,193,1,6 various colored containers sitting on a picnic table in a green house.,5 various colored container sitting on a picnic table in a green house.,wolfe1,image-037,2,37,AFRKVRPZ2RHY8,2021-01-08_16h20.08.159,MetaAwareness,2020.1.2,Win32,60,3KA7IJSNW784AIW3JNG0E3QKPPOBP5,AFRKVRPZ2RHY8,3R0T90IZ1TFKTUT4K6RAJXDYWWECGG,Z90R8,Z90R8,3R0T90IZ1TFKTUT4K6RAJXDYWWECGG,3R0T90IZ1TFKTUT4K6RAJXDYWWECGG,268048,268048,,,,,,,,,,
,,,,4,12.26677,0,14,14,216,1,wasteland with a red brick factory in the distance. the terrain and lake is riddled with rocks,wasteland with a red brick factory in the distance. the terrain is riddled with rocks,wolfe1,image-041,5,37,AFRKVRPZ2RHY8,2021-01-08_16h20.08.159,MetaAwareness,2020.1.2,Win32,60,3KA7IJSNW784AIW3JNG0E3QKPPOBP5,AFRKVRPZ2RHY8,3R0T90IZ1TFKTUT4K6RAJXDYWWECGG,Z90R8,Z90R8,3R0T90IZ1TFKTUT4K6RAJXDYWWECGG,3R0T90IZ1TFKTUT4K6RAJXDYWWECGG,268048,268048,,,,,,,,,,
,,,,4,14.942165,0,15,15,30,1,a microwave sits on the counter in a white kitchen beside a black refrigerator,a white cabinet is next to a black refrigerator in a modern white kitchen,wolfe1,image-006,4,37,AFRKVRPZ2RHY8,2021-01-08_16h20.08.159,MetaAwareness,2020.1.2,Win32,60,3KA7IJSNW784AIW3JNG0E3QKPPOBP5,AFRKVRPZ2RHY8,3R0T90IZ1TFKTUT4K6RAJXDYWWECGG,Z90R8,Z90R8,3R0T90IZ1TFKTUT4K6RAJXDYWWECGG,3R0T90IZ1TFKTUT4K6RAJXDYWWECGG,268048,268048,,,,,,,,,,
,,,,3,4.318045,0,16,16,115,1,"many people at park sitting on blankets, with a pink and white bag",many people at a park sitting on blankets,wolfe1,image-020,5,37,AFRKVRPZ2RHY8,2021-01-08_16h20.08.159,MetaAwareness,2020.1.2,Win32,60,3KA7IJSNW784AIW3JNG0E3QKPPOBP5,AFRKVRPZ2RHY8,3R0T90IZ1TFKTUT4K6RAJXDYWWECGG,Z90R8,Z90R8,3R0T90IZ1TFKTUT4K6RAJXDYWWECGG,3R0T90IZ1TFKTUT4K6RAJXDYWWECGG,268048,268048,,,,,,,,,,
,,,,5,5.584745,0,17,17,481,1,a group of people shopping at a market with mostly white awnings except for two which have a green and blue awning.,a group of people shopping at a market with mostly white awnings except for two which have a green and red awning.,wolfe1,image-117,3,37,AFRKVRPZ2RHY8,2021-01-08_16h20.08.159,MetaAwareness,2020.1.2,Win32,60,3KA7IJSNW784AIW3JNG0E3QKPPOBP5,AFRKVRPZ2RHY8,3R0T90IZ1TFKTUT4K6RAJXDYWWECGG,Z90R8,Z90R8,3R0T90IZ1TFKTUT4K6RAJXDYWWECGG,3R0T90IZ1TFKTUT4K6RAJXDYWWECGG,268048,268048,,,,,,,,,,
,,,,4,5.77139,0,18,18,589,1,a fancy rooftop view of a blue house on the streets below.,a fancy rooftop view of a pink house on the streets below.,wolfe1,image-136,7,37,AFRKVRPZ2RHY8,2021-01-08_16h20.08.159,MetaAwareness,2020.1.2,Win32,60,3KA7IJSNW784AIW3JNG0E3QKPPOBP5,AFRKVRPZ2RHY8,3R0T90IZ1TFKTUT4K6RAJXDYWWECGG,Z90R8,Z90R8,3R0T90IZ1TFKTUT4K6RAJXDYWWECGG,3R0T90IZ1TFKTUT4K6RAJXDYWWECGG,268048,268048,,,,,,,,,,
,,,,3,122.320285,0,19,19,181,1,a backyard with a patio and black chairs with red cushions and six stepping stones,a backyard with a patio and black chairs  with red cushions and five stepping stones,wolfe1,image-034,1,37,AFRKVRPZ2RHY8,2021-01-08_16h20.08.159,MetaAwareness,2020.1.2,Win32,60,3KA7IJSNW784AIW3JNG0E3QKPPOBP5,AFRKVRPZ2RHY8,3R0T90IZ1TFKTUT4K6RAJXDYWWECGG,Z90R8,Z90R8,3R0T90IZ1TFKTUT4K6RAJXDYWWECGG,3R0T90IZ1TFKTUT4K6RAJXDYWWECGG,268048,268048,,,,,,,,,,
,,,,4,2.451285,0,20,20,187,1,a backyard with six paver stones,a backyard with five paver stones,wolfe1,image-034,9,37,AFRKVRPZ2RHY8,2021-01-08_16h20.08.159,MetaAwareness,2020.1.2,Win32,60,3KA7IJSNW784AIW3JNG0E3QKPPOBP5,AFRKVRPZ2RHY8,3R0T90IZ1TFKTUT4K6RAJXDYWWECGG,Z90R8,Z90R8,3R0T90IZ1TFKTUT4K6RAJXDYWWECGG,3R0T90IZ1TFKTUT4K6RAJXDYWWECGG,268048,268048,,,,,,,,,,
,,,,3,2.73454,0,21,21,477,1,a house with red windows sits over a ballfield where several people are standing,a house with blue windows looms over a ballfield where several peope are standing in the road,wolfe1,image-116,5,37,AFRKVRPZ2RHY8,2021-01-08_16h20.08.159,MetaAwareness,2020.1.2,Win32,60,3KA7IJSNW784AIW3JNG0E3QKPPOBP5,AFRKVRPZ2RHY8,3R0T90IZ1TFKTUT4K6RAJXDYWWECGG,Z90R8,Z90R8,3R0T90IZ1TFKTUT4K6RAJXDYWWECGG,3R0T90IZ1TFKTUT4K6RAJXDYWWECGG,268048,268048,,,,,,,,,,
,,,,4,4.55154,0,22,22,324,1,children are playing in a grassy field while a kid in a red shirt sits behind them,children are playing in a grassy fiel while a kid in purple sits behind them,wolfe1,image-086,3,37,AFRKVRPZ2RHY8,2021-01-08_16h20.08.159,MetaAwareness,2020.1.2,Win32,60,3KA7IJSNW784AIW3JNG0E3QKPPOBP5,AFRKVRPZ2RHY8,3R0T90IZ1TFKTUT4K6RAJXDYWWECGG,Z90R8,Z90R8,3R0T90IZ1TFKTUT4K6RAJXDYWWECGG,3R0T90IZ1TFKTUT4K6RAJXDYWWECGG,268048,268048,,,,,,,,,,
,,,,3,3.400375,0,23,23,513,1,"blue, white and red buildings on a street front, the blue bluilding has a green sign in the window","blue, white, and red buildings on a street front, the blue building has a red sign in the window",wolfe1,image-123,7,37,AFRKVRPZ2RHY8,2021-01-08_16h20.08.159,MetaAwareness,2020.1.2,Win32,60,3KA7IJSNW784AIW3JNG0E3QKPPOBP5,AFRKVRPZ2RHY8,3R0T90IZ1TFKTUT4K6RAJXDYWWECGG,Z90R8,Z90R8,3R0T90IZ1TFKTUT4K6RAJXDYWWECGG,3R0T90IZ1TFKTUT4K6RAJXDYWWECGG,268048,268048,,,,,,,,,,
,,,,4,4.801075,0,24,24,314,1,a group of seven hikers with one man in a yellow shirt carrying a red back pack.,a group of seven hikers with one man in a yellow shirt carrying a green back pack.,wolfe1,image-084,3,37,AFRKVRPZ2RHY8,2021-01-08_16h20.08.159,MetaAwareness,2020.1.2,Win32,60,3KA7IJSNW784AIW3JNG0E3QKPPOBP5,AFRKVRPZ2RHY8,3R0T90IZ1TFKTUT4K6RAJXDYWWECGG,Z90R8,Z90R8,3R0T90IZ1TFKTUT4K6RAJXDYWWECGG,3R0T90IZ1TFKTUT4K6RAJXDYWWECGG,268048,268048,,,,,,,,,,
,,,,4,3.75087,0,25,25,237,1,"a freshly mowed plain next to a vineyard, adorned with seven rolls of grass","a freshly mowed plain next to a vineyard, adorned with six rolls of grass",wolfe1,image-045,2,37,AFRKVRPZ2RHY8,2021-01-08_16h20.08.159,MetaAwareness,2020.1.2,Win32,60,3KA7IJSNW784AIW3JNG0E3QKPPOBP5,AFRKVRPZ2RHY8,3R0T90IZ1TFKTUT4K6RAJXDYWWECGG,Z90R8,Z90R8,3R0T90IZ1TFKTUT4K6RAJXDYWWECGG,3R0T90IZ1TFKTUT4K6RAJXDYWWECGG,268048,268048,,,,,,,,,,
,,,,3,1.084715,0,26,26,542,1,a group of old ladies and men with one old woman wearing a pair of blue jeans,a group of old ladies and men with one old woman wearing a pair of gray jeans,wolfe1,image-129,3,37,AFRKVRPZ2RHY8,2021-01-08_16h20.08.159,MetaAwareness,2020.1.2,Win32,60,3KA7IJSNW784AIW3JNG0E3QKPPOBP5,AFRKVRPZ2RHY8,3R0T90IZ1TFKTUT4K6RAJXDYWWECGG,Z90R8,Z90R8,3R0T90IZ1TFKTUT4K6RAJXDYWWECGG,3R0T90IZ1TFKTUT4K6RAJXDYWWECGG,268048,268048,,,,,,,,,,
,,,,2,3.134105,0,27,27,31,1,"a luxurious and modern hotel room that features many appliances, such as a microwave, tv, refridgerator, and more","a luxurios and mdern hotel room that featuresa few appliances, such as a refridgerator, tv, and more",wolfe1,image-006,5,37,AFRKVRPZ2RHY8,2021-01-08_16h20.08.159,MetaAwareness,2020.1.2,Win32,60,3KA7IJSNW784AIW3JNG0E3QKPPOBP5,AFRKVRPZ2RHY8,3R0T90IZ1TFKTUT4K6RAJXDYWWECGG,Z90R8,Z90R8,3R0T90IZ1TFKTUT4K6RAJXDYWWECGG,3R0T90IZ1TFKTUT4K6RAJXDYWWECGG,268048,268048,,,,,,,,,,
,,,,4,2.43427,0,28,28,149,1,a group of people sitting on grass in front of a building with a white object laying behind them,a group of people sitting on grass in front of a building with nothing laying behind them,wolfe1,image-028,2,37,AFRKVRPZ2RHY8,2021-01-08_16h20.08.159,MetaAwareness,2020.1.2,Win32,60,3KA7IJSNW784AIW3JNG0E3QKPPOBP5,AFRKVRPZ2RHY8,3R0T90IZ1TFKTUT4K6RAJXDYWWECGG,Z90R8,Z90R8,3R0T90IZ1TFKTUT4K6RAJXDYWWECGG,3R0T90IZ1TFKTUT4K6RAJXDYWWECGG,268048,268048,,,,,,,,,,
,,,,3,4.2171,0,29,29,449,1,a plane at the airport with a yellow jet truck parked next to it,a plane at the airport with a red jet truck parked next to it,wolfe1,image-111,1,37,AFRKVRPZ2RHY8,2021-01-08_16h20.08.159,MetaAwareness,2020.1.2,Win32,60,3KA7IJSNW784AIW3JNG0E3QKPPOBP5,AFRKVRPZ2RHY8,3R0T90IZ1TFKTUT4K6RAJXDYWWECGG,Z90R8,Z90R8,3R0T90IZ1TFKTUT4K6RAJXDYWWECGG,3R0T90IZ1TFKTUT4K6RAJXDYWWECGG,268048,268048,,,,,,,,,,
,,,,,,,,,,,,,,,,37,AFRKVRPZ2RHY8,2021-01-08_16h20.08.159,MetaAwareness,2020.1.2,Win32,60,3KA7IJSNW784AIW3JNG0E3QKPPOBP5,AFRKVRPZ2RHY8,3R0T90IZ1TFKTUT4K6RAJXDYWWECGG,Z90R8,Z90R8,3R0T90IZ1TFKTUT4K6RAJXDYWWECGG,3R0T90IZ1TFKTUT4K6RAJXDYWWECGG,268048,268048,2,2.868135,someone laying underneath a blue beach umbrella on a crowded beach,someone laying underneath a blue beach umbrella on a crowded beach,same,1,5.051265,members of a marching band crossing a track that all have feather plumes at the front of their hats,a cluttered and rustic looking cafe with 10 hanging lights,different
