consent_response.keys,consent_response.rt,key_resp_2.keys,key_resp_2.rt,user_resp.keys,user_resp.rt,trials.thisRepN,trials.thisTrialN,trials.thisN,trials.thisIndex,trials.ran,image_1_text,image_2_text,database,image,number,age,worker_ID,date,expName,psychopyVersion,OS,frameRate,hitId,workerId,assignmentId,a,tp_a,b,tp_b,c,tp_c,catch_same_resp.keys,catch_same_resp.rt,image_1_text_catch_same,image_2_text_catch_same,image_catch_same,catch_different_resp.keys,catch_different_resp.rt,image_1_text_catch_different,image_2_text_catch_different,image_catch_different
space,5.381795,space,236.828365,4,12.32403,0,0,0,510,1,a green sign that has red lettering is in the window of the shop in the blue building,a red sign that has red lettering is in the window of the shop in the blue building,wolfe1,image-123,3,31,AIHUIAQ4922K3,2021-01-08_16h04.25.806,MetaAwareness,2020.1.2,Win32,60,3LN3BXKGC1YQL81FBVM978PDYZHWG0,AIHUIAQ4922K3,3PEIJLRY6UW4TEUZQ7RFJDKWR2KXWU,YJEP8,YJEP8,3PEIJLRY6UW4TEUZQ7RFJDKWR2KXWU,3PEIJLRY6UW4TEUZQ7RFJDKWR2KXWU,268048,268048,,,,,,,,,,
,,,,3,8.57191,0,1,1,216,1,wasteland with a red brick factory in the distance. the terrain and lake is riddled with rocks,wasteland with a red brick factory in the distance. the terrain is riddled with rocks,wolfe1,image-041,5,31,AIHUIAQ4922K3,2021-01-08_16h04.25.806,MetaAwareness,2020.1.2,Win32,60,3LN3BXKGC1YQL81FBVM978PDYZHWG0,AIHUIAQ4922K3,3PEIJLRY6UW4TEUZQ7RFJDKWR2KXWU,YJEP8,YJEP8,3PEIJLRY6UW4TEUZQ7RFJDKWR2KXWU,3PEIJLRY6UW4TEUZQ7RFJDKWR2KXWU,268048,268048,,,,,,,,,,
,,,,3,3.888575,0,2,2,190,1,a collection of boats and ten people on jet skis in an open body of water,a collection of boats and nine people on jet skis in an open body of water,wolfe1,image-035,4,31,AIHUIAQ4922K3,2021-01-08_16h04.25.806,MetaAwareness,2020.1.2,Win32,60,3LN3BXKGC1YQL81FBVM978PDYZHWG0,AIHUIAQ4922K3,3PEIJLRY6UW4TEUZQ7RFJDKWR2KXWU,YJEP8,YJEP8,3PEIJLRY6UW4TEUZQ7RFJDKWR2KXWU,3PEIJLRY6UW4TEUZQ7RFJDKWR2KXWU,268048,268048,,,,,,,,,,
,,,,3,7.3977,0,3,3,129,1,an adult and a child are walking into a clinic that has shrubs on both sides of the entrance,an adult and child are walking into a clinic that has a shrub on one side of the entrance,wolfe1,image-023,3,31,AIHUIAQ4922K3,2021-01-08_16h04.25.806,MetaAwareness,2020.1.2,Win32,60,3LN3BXKGC1YQL81FBVM978PDYZHWG0,AIHUIAQ4922K3,3PEIJLRY6UW4TEUZQ7RFJDKWR2KXWU,YJEP8,YJEP8,3PEIJLRY6UW4TEUZQ7RFJDKWR2KXWU,3PEIJLRY6UW4TEUZQ7RFJDKWR2KXWU,268048,268048,,,,,,,,,,
,,,,3,14.33367,0,4,4,145,1,people are at an outdoor event standing around a set of concrete barriers with lights in them,"people are at an outdoor event standing around a set of concrete barriers with lights in them, except for the center barrier",wolfe1,image-027,2,31,AIHUIAQ4922K3,2021-01-08_16h04.25.806,MetaAwareness,2020.1.2,Win32,60,3LN3BXKGC1YQL81FBVM978PDYZHWG0,AIHUIAQ4922K3,3PEIJLRY6UW4TEUZQ7RFJDKWR2KXWU,YJEP8,YJEP8,3PEIJLRY6UW4TEUZQ7RFJDKWR2KXWU,3PEIJLRY6UW4TEUZQ7RFJDKWR2KXWU,268048,268048,,,,,,,,,,
,,,,3,5.558355,0,5,5,578,1,"a group of people on a sunny day walk along a boardwalk next to businesses, and there is a woman wearing a red shirt near the tropicana building","a group of people on a sunny day walk along a boardwalk next to businesses, and there is a woman wearing a blue shirt near the topicana building",wolfe1,image-134,5,31,AIHUIAQ4922K3,2021-01-08_16h04.25.806,MetaAwareness,2020.1.2,Win32,60,3LN3BXKGC1YQL81FBVM978PDYZHWG0,AIHUIAQ4922K3,3PEIJLRY6UW4TEUZQ7RFJDKWR2KXWU,YJEP8,YJEP8,3PEIJLRY6UW4TEUZQ7RFJDKWR2KXWU,3PEIJLRY6UW4TEUZQ7RFJDKWR2KXWU,268048,268048,,,,,,,,,,
,,,,4,8.16143,0,6,6,337,1,five young men sittin in chairs including a young man in a blue and grey striped shirt,five young men sitting in chairs including a young man in a purple and grey striped shirt,wolfe1,image-089,4,31,AIHUIAQ4922K3,2021-01-08_16h04.25.806,MetaAwareness,2020.1.2,Win32,60,3LN3BXKGC1YQL81FBVM978PDYZHWG0,AIHUIAQ4922K3,3PEIJLRY6UW4TEUZQ7RFJDKWR2KXWU,YJEP8,YJEP8,3PEIJLRY6UW4TEUZQ7RFJDKWR2KXWU,3PEIJLRY6UW4TEUZQ7RFJDKWR2KXWU,268048,268048,,,,,,,,,,
,,,,3,4.013645,0,7,7,9,1,a yard sale with a blue shirt and a brown coat hanging up in front of a brick house.,a yard sale with a brown coat hanging up in front of a brick house.,wolfe1,image-002,4,31,AIHUIAQ4922K3,2021-01-08_16h04.25.806,MetaAwareness,2020.1.2,Win32,60,3LN3BXKGC1YQL81FBVM978PDYZHWG0,AIHUIAQ4922K3,3PEIJLRY6UW4TEUZQ7RFJDKWR2KXWU,YJEP8,YJEP8,3PEIJLRY6UW4TEUZQ7RFJDKWR2KXWU,3PEIJLRY6UW4TEUZQ7RFJDKWR2KXWU,268048,268048,,,,,,,,,,
,,,,4,5.088515,0,8,8,318,1,a hiker on a grassy mountain reaching into their red bag.,a hiker on a grassy mountain reaching into their green bag.,wolfe1,image-084,7,31,AIHUIAQ4922K3,2021-01-08_16h04.25.806,MetaAwareness,2020.1.2,Win32,60,3LN3BXKGC1YQL81FBVM978PDYZHWG0,AIHUIAQ4922K3,3PEIJLRY6UW4TEUZQ7RFJDKWR2KXWU,YJEP8,YJEP8,3PEIJLRY6UW4TEUZQ7RFJDKWR2KXWU,3PEIJLRY6UW4TEUZQ7RFJDKWR2KXWU,268048,268048,,,,,,,,,,
,,,,4,8.528865,0,9,9,321,1,kids ride bikes at the boardwalk at a beach while a man in a red cap watches them.,kids ride bikes at the boardwalk at a beach while a man in a green cap watches them.,wolfe1,image-085,4,31,AIHUIAQ4922K3,2021-01-08_16h04.25.806,MetaAwareness,2020.1.2,Win32,60,3LN3BXKGC1YQL81FBVM978PDYZHWG0,AIHUIAQ4922K3,3PEIJLRY6UW4TEUZQ7RFJDKWR2KXWU,YJEP8,YJEP8,3PEIJLRY6UW4TEUZQ7RFJDKWR2KXWU,3PEIJLRY6UW4TEUZQ7RFJDKWR2KXWU,268048,268048,,,,,,,,,,
,,,,2,7.440325,0,10,10,173,1,to the boys left hand side there are several birds next to him,to the boys left hand side there are not any birds right next to him,wolfe1,image-032,7,31,AIHUIAQ4922K3,2021-01-08_16h04.25.806,MetaAwareness,2020.1.2,Win32,60,3LN3BXKGC1YQL81FBVM978PDYZHWG0,AIHUIAQ4922K3,3PEIJLRY6UW4TEUZQ7RFJDKWR2KXWU,YJEP8,YJEP8,3PEIJLRY6UW4TEUZQ7RFJDKWR2KXWU,3PEIJLRY6UW4TEUZQ7RFJDKWR2KXWU,268048,268048,,,,,,,,,,
,,,,3,6.93916,0,11,11,436,1,the roof of the building in the background is the color green,the roof of the building in the background is the color purple,wolfe1,image-108,6,31,AIHUIAQ4922K3,2021-01-08_16h04.25.806,MetaAwareness,2020.1.2,Win32,60,3LN3BXKGC1YQL81FBVM978PDYZHWG0,AIHUIAQ4922K3,3PEIJLRY6UW4TEUZQ7RFJDKWR2KXWU,YJEP8,YJEP8,3PEIJLRY6UW4TEUZQ7RFJDKWR2KXWU,3PEIJLRY6UW4TEUZQ7RFJDKWR2KXWU,268048,268048,,,,,,,,,,
,,,,4,10.96187,0,12,12,557,1,dance instructor teaches a group of young children how to dance. one child wearing a red plaid skirt seems to have mastered the form better than the rest of her class,dance instructor teaches a group of young children how to dance. one child wearing a purple plaid skirt seems to have mastered the form better than the rest of her class,wolfe1,image-131,4,31,AIHUIAQ4922K3,2021-01-08_16h04.25.806,MetaAwareness,2020.1.2,Win32,60,3LN3BXKGC1YQL81FBVM978PDYZHWG0,AIHUIAQ4922K3,3PEIJLRY6UW4TEUZQ7RFJDKWR2KXWU,YJEP8,YJEP8,3PEIJLRY6UW4TEUZQ7RFJDKWR2KXWU,3PEIJLRY6UW4TEUZQ7RFJDKWR2KXWU,268048,268048,,,,,,,,,,
,,,,1,2.74489,0,13,13,475,1,a lookout building near an athletic field with red metal coverings over the windows.,a lookout building near an athletic field with green metal coverings over the windows.,wolfe1,image-116,3,31,AIHUIAQ4922K3,2021-01-08_16h04.25.806,MetaAwareness,2020.1.2,Win32,60,3LN3BXKGC1YQL81FBVM978PDYZHWG0,AIHUIAQ4922K3,3PEIJLRY6UW4TEUZQ7RFJDKWR2KXWU,YJEP8,YJEP8,3PEIJLRY6UW4TEUZQ7RFJDKWR2KXWU,3PEIJLRY6UW4TEUZQ7RFJDKWR2KXWU,268048,268048,,,,,,,,,,
,,,,3,14.92288,0,14,14,126,1,3 people running in front of a park with a bench next to a fountain,3 people running in front of a park that has a view of a fountain.,wolfe1,image-022,6,31,AIHUIAQ4922K3,2021-01-08_16h04.25.806,MetaAwareness,2020.1.2,Win32,60,3LN3BXKGC1YQL81FBVM978PDYZHWG0,AIHUIAQ4922K3,3PEIJLRY6UW4TEUZQ7RFJDKWR2KXWU,YJEP8,YJEP8,3PEIJLRY6UW4TEUZQ7RFJDKWR2KXWU,3PEIJLRY6UW4TEUZQ7RFJDKWR2KXWU,268048,268048,,,,,,,,,,
,,,,6,7.049435,0,15,15,517,1,a wooden pole in some water by a walkway,a wooden pole in some water by a walkway,wolfe1,image-124,2,31,AIHUIAQ4922K3,2021-01-08_16h04.25.806,MetaAwareness,2020.1.2,Win32,60,3LN3BXKGC1YQL81FBVM978PDYZHWG0,AIHUIAQ4922K3,3PEIJLRY6UW4TEUZQ7RFJDKWR2KXWU,YJEP8,YJEP8,3PEIJLRY6UW4TEUZQ7RFJDKWR2KXWU,3PEIJLRY6UW4TEUZQ7RFJDKWR2KXWU,268048,268048,,,,,,,,,,
,,,,4,3.64848,0,16,16,403,1,a person with green shoes walks with a crowd down a rainy sidewalk,a person with red shoes walks with a crowd down a rainy sidewalk,wolfe1,image-103,2,31,AIHUIAQ4922K3,2021-01-08_16h04.25.806,MetaAwareness,2020.1.2,Win32,60,3LN3BXKGC1YQL81FBVM978PDYZHWG0,AIHUIAQ4922K3,3PEIJLRY6UW4TEUZQ7RFJDKWR2KXWU,YJEP8,YJEP8,3PEIJLRY6UW4TEUZQ7RFJDKWR2KXWU,3PEIJLRY6UW4TEUZQ7RFJDKWR2KXWU,268048,268048,,,,,,,,,,
,,,,2,6.26006,0,17,17,29,1,a living room with a white microwave in the kitchen area,a living room with a white wall in the kitchen area,wolfe1,image-006,3,31,AIHUIAQ4922K3,2021-01-08_16h04.25.806,MetaAwareness,2020.1.2,Win32,60,3LN3BXKGC1YQL81FBVM978PDYZHWG0,AIHUIAQ4922K3,3PEIJLRY6UW4TEUZQ7RFJDKWR2KXWU,YJEP8,YJEP8,3PEIJLRY6UW4TEUZQ7RFJDKWR2KXWU,3PEIJLRY6UW4TEUZQ7RFJDKWR2KXWU,268048,268048,,,,,,,,,,
,,,,3,3.462605,0,18,18,141,1,there is a brown pillow,there is a white pillow,wolfe1,image-026,2,31,AIHUIAQ4922K3,2021-01-08_16h04.25.806,MetaAwareness,2020.1.2,Win32,60,3LN3BXKGC1YQL81FBVM978PDYZHWG0,AIHUIAQ4922K3,3PEIJLRY6UW4TEUZQ7RFJDKWR2KXWU,YJEP8,YJEP8,3PEIJLRY6UW4TEUZQ7RFJDKWR2KXWU,3PEIJLRY6UW4TEUZQ7RFJDKWR2KXWU,268048,268048,,,,,,,,,,
,,,,4,10.587555,0,19,19,556,1,a lady leading a workout class of all different ages of children and a little girl in a red skirt,a lady leading a workout class of all different ages of children and a little girl in a purple skirt,wolfe1,image-131,3,31,AIHUIAQ4922K3,2021-01-08_16h04.25.806,MetaAwareness,2020.1.2,Win32,60,3LN3BXKGC1YQL81FBVM978PDYZHWG0,AIHUIAQ4922K3,3PEIJLRY6UW4TEUZQ7RFJDKWR2KXWU,YJEP8,YJEP8,3PEIJLRY6UW4TEUZQ7RFJDKWR2KXWU,3PEIJLRY6UW4TEUZQ7RFJDKWR2KXWU,268048,268048,,,,,,,,,,
,,,,3,5.335565,0,20,20,497,1,an asian gardan with a statue in the center in front of a light blue fabic with a tassel,an asian garden with a statue in the center in front of a dark blue puple fabric with a tassel,wolfe1,image-120,2,31,AIHUIAQ4922K3,2021-01-08_16h04.25.806,MetaAwareness,2020.1.2,Win32,60,3LN3BXKGC1YQL81FBVM978PDYZHWG0,AIHUIAQ4922K3,3PEIJLRY6UW4TEUZQ7RFJDKWR2KXWU,YJEP8,YJEP8,3PEIJLRY6UW4TEUZQ7RFJDKWR2KXWU,3PEIJLRY6UW4TEUZQ7RFJDKWR2KXWU,268048,268048,,,,,,,,,,
,,,,2,6.604935,0,21,21,79,1,there is an empty blanket on the ground at the concert,there is no empty blanket on the ground at the concer,wolfe1,image-014,8,31,AIHUIAQ4922K3,2021-01-08_16h04.25.806,MetaAwareness,2020.1.2,Win32,60,3LN3BXKGC1YQL81FBVM978PDYZHWG0,AIHUIAQ4922K3,3PEIJLRY6UW4TEUZQ7RFJDKWR2KXWU,YJEP8,YJEP8,3PEIJLRY6UW4TEUZQ7RFJDKWR2KXWU,3PEIJLRY6UW4TEUZQ7RFJDKWR2KXWU,268048,268048,,,,,,,,,,
,,,,1,5.306205,0,22,22,47,1,preparing for skiis with yellow plate,preparing for skiis with luggage,wolfe1,image-010,1,31,AIHUIAQ4922K3,2021-01-08_16h04.25.806,MetaAwareness,2020.1.2,Win32,60,3LN3BXKGC1YQL81FBVM978PDYZHWG0,AIHUIAQ4922K3,3PEIJLRY6UW4TEUZQ7RFJDKWR2KXWU,YJEP8,YJEP8,3PEIJLRY6UW4TEUZQ7RFJDKWR2KXWU,3PEIJLRY6UW4TEUZQ7RFJDKWR2KXWU,268048,268048,,,,,,,,,,
,,,,4,9.25492,0,23,23,404,1,people walking down the street in the rain including a person wearing green shoes,people walking down the street in the rain including a person wearing red shoes,wolfe1,image-103,3,31,AIHUIAQ4922K3,2021-01-08_16h04.25.806,MetaAwareness,2020.1.2,Win32,60,3LN3BXKGC1YQL81FBVM978PDYZHWG0,AIHUIAQ4922K3,3PEIJLRY6UW4TEUZQ7RFJDKWR2KXWU,YJEP8,YJEP8,3PEIJLRY6UW4TEUZQ7RFJDKWR2KXWU,3PEIJLRY6UW4TEUZQ7RFJDKWR2KXWU,268048,268048,,,,,,,,,,
,,,,2,7.66937,0,24,24,168,1,a man in a yellow sportscoat and two women and a child feeding pigeons infront of a castle. there are birds to the right of the boys feet,"a man , two women and a child feeding pigeons in front of a castle, there are no birds to the right of the boys feet.",wolfe1,image-032,2,31,AIHUIAQ4922K3,2021-01-08_16h04.25.806,MetaAwareness,2020.1.2,Win32,60,3LN3BXKGC1YQL81FBVM978PDYZHWG0,AIHUIAQ4922K3,3PEIJLRY6UW4TEUZQ7RFJDKWR2KXWU,YJEP8,YJEP8,3PEIJLRY6UW4TEUZQ7RFJDKWR2KXWU,3PEIJLRY6UW4TEUZQ7RFJDKWR2KXWU,268048,268048,,,,,,,,,,
,,,,4,12.83155,0,25,25,398,1,a group of well dressed men posing for a picture. the one on the very right has a red tie on,a group of well dressed men posing for a picture. the one on the very right has a purple tie on,wolfe1,image-102,4,31,AIHUIAQ4922K3,2021-01-08_16h04.25.806,MetaAwareness,2020.1.2,Win32,60,3LN3BXKGC1YQL81FBVM978PDYZHWG0,AIHUIAQ4922K3,3PEIJLRY6UW4TEUZQ7RFJDKWR2KXWU,YJEP8,YJEP8,3PEIJLRY6UW4TEUZQ7RFJDKWR2KXWU,3PEIJLRY6UW4TEUZQ7RFJDKWR2KXWU,268048,268048,,,,,,,,,,
,,,,3,5.45196,0,26,26,28,1,a kitchen and living area with a microwave,a kitchen and living area,wolfe1,image-006,2,31,AIHUIAQ4922K3,2021-01-08_16h04.25.806,MetaAwareness,2020.1.2,Win32,60,3LN3BXKGC1YQL81FBVM978PDYZHWG0,AIHUIAQ4922K3,3PEIJLRY6UW4TEUZQ7RFJDKWR2KXWU,YJEP8,YJEP8,3PEIJLRY6UW4TEUZQ7RFJDKWR2KXWU,3PEIJLRY6UW4TEUZQ7RFJDKWR2KXWU,268048,268048,,,,,,,,,,
,,,,4,5.02768,0,27,27,564,1,"a well-decorated living room with a fireplace, several pictures on the wall, and two white couches covered in pillows, one of which is red","a well-decorated living room with a fireplace, several pictures on the wall, and two white couches covered in pillows, one of which is green",wolfe1,image-132,5,31,AIHUIAQ4922K3,2021-01-08_16h04.25.806,MetaAwareness,2020.1.2,Win32,60,3LN3BXKGC1YQL81FBVM978PDYZHWG0,AIHUIAQ4922K3,3PEIJLRY6UW4TEUZQ7RFJDKWR2KXWU,YJEP8,YJEP8,3PEIJLRY6UW4TEUZQ7RFJDKWR2KXWU,3PEIJLRY6UW4TEUZQ7RFJDKWR2KXWU,268048,268048,,,,,,,,,,
,,,,3,12.41825,0,28,28,96,1,a group of men are watching a man hit a golf ball in the marked hole.,a group of men are watching a man hit a golf ball in an unmarked hole.,wolfe1,image-017,7,31,AIHUIAQ4922K3,2021-01-08_16h04.25.806,MetaAwareness,2020.1.2,Win32,60,3LN3BXKGC1YQL81FBVM978PDYZHWG0,AIHUIAQ4922K3,3PEIJLRY6UW4TEUZQ7RFJDKWR2KXWU,YJEP8,YJEP8,3PEIJLRY6UW4TEUZQ7RFJDKWR2KXWU,3PEIJLRY6UW4TEUZQ7RFJDKWR2KXWU,268048,268048,,,,,,,,,,
,,,,4,3.829655,0,29,29,500,1,red safety floating vests on a boat,green safety floating vests on a boat,wolfe1,image-121,1,31,AIHUIAQ4922K3,2021-01-08_16h04.25.806,MetaAwareness,2020.1.2,Win32,60,3LN3BXKGC1YQL81FBVM978PDYZHWG0,AIHUIAQ4922K3,3PEIJLRY6UW4TEUZQ7RFJDKWR2KXWU,YJEP8,YJEP8,3PEIJLRY6UW4TEUZQ7RFJDKWR2KXWU,3PEIJLRY6UW4TEUZQ7RFJDKWR2KXWU,268048,268048,,,,,,,,,,
,,,,,,,,,,,,,,,,31,AIHUIAQ4922K3,2021-01-08_16h04.25.806,MetaAwareness,2020.1.2,Win32,60,3LN3BXKGC1YQL81FBVM978PDYZHWG0,AIHUIAQ4922K3,3PEIJLRY6UW4TEUZQ7RFJDKWR2KXWU,YJEP8,YJEP8,3PEIJLRY6UW4TEUZQ7RFJDKWR2KXWU,3PEIJLRY6UW4TEUZQ7RFJDKWR2KXWU,268048,268048,6,1.38519,someone laying underneath a blue beach umbrella on a crowded beach,someone laying underneath a blue beach umbrella on a crowded beach,same,1,7.088185,members of a marching band crossing a track that all have feather plumes at the front of their hats,a cluttered and rustic looking cafe with 10 hanging lights,different
