consent_response.keys,consent_response.rt,key_resp_2.keys,key_resp_2.rt,user_resp.keys,user_resp.rt,trials.thisRepN,trials.thisTrialN,trials.thisN,trials.thisIndex,trials.ran,image_1_text,image_2_text,database,image,number,age,worker_ID,date,expName,psychopyVersion,OS,frameRate,hitId,workerId,assignmentId,a,tp_a,b,tp_b,c,tp_c,catch_same_resp.keys,catch_same_resp.rt,image_1_text_catch_same,image_2_text_catch_same,image_catch_same,catch_different_resp.keys,catch_different_resp.rt,image_1_text_catch_different,image_2_text_catch_different,image_catch_different
space,10.693725,space,12.904495,3,11.211735,0,0,0,482,1,people shop at an outdoor market under white and blue canopies,people shop at an outdoor market under white and red canopies,wolfe1,image-117,4,39,ASFFW3A9FFHPN,2021-01-08_12h36.24.213,MetaAwareness,2020.1.2,Win32,60,3FVBZG9CLKHBDEV52UB6LDSACUE0H0,ASFFW3A9FFHPN,3X1FV8S5JYUGS3Z4BNMF9P1NH3KVGO,5V1X8,5V1X8,3X1FV8S5JYUGS3Z4BNMF9P1NH3KVGO,3X1FV8S5JYUGS3Z4BNMF9P1NH3KVGO,268048,268048,,,,,,,,,,
,,,,4,8.315325,0,1,1,61,1,"a small building with a hammock, and a small circular object on the ground outside",a small building with a hammock,wolfe1,image-012,2,39,ASFFW3A9FFHPN,2021-01-08_12h36.24.213,MetaAwareness,2020.1.2,Win32,60,3FVBZG9CLKHBDEV52UB6LDSACUE0H0,ASFFW3A9FFHPN,3X1FV8S5JYUGS3Z4BNMF9P1NH3KVGO,5V1X8,5V1X8,3X1FV8S5JYUGS3Z4BNMF9P1NH3KVGO,3X1FV8S5JYUGS3Z4BNMF9P1NH3KVGO,268048,268048,,,,,,,,,,
,,,,3,6.529635,0,2,2,531,1,a group of people cleaning off a car with the lady on the right using a blue shovel.,a group of people cleaning off a car with the lady on the right using a green shovel.,wolfe1,image-127,2,39,ASFFW3A9FFHPN,2021-01-08_12h36.24.213,MetaAwareness,2020.1.2,Win32,60,3FVBZG9CLKHBDEV52UB6LDSACUE0H0,ASFFW3A9FFHPN,3X1FV8S5JYUGS3Z4BNMF9P1NH3KVGO,5V1X8,5V1X8,3X1FV8S5JYUGS3Z4BNMF9P1NH3KVGO,3X1FV8S5JYUGS3Z4BNMF9P1NH3KVGO,268048,268048,,,,,,,,,,
,,,,3,10.014685,0,3,3,377,1,"a music classroom with a teacher, students, and a blue box under a stool.","a music classroom with a teacher, students, and a green box under a stool.",wolfe1,image-096,6,39,ASFFW3A9FFHPN,2021-01-08_12h36.24.213,MetaAwareness,2020.1.2,Win32,60,3FVBZG9CLKHBDEV52UB6LDSACUE0H0,ASFFW3A9FFHPN,3X1FV8S5JYUGS3Z4BNMF9P1NH3KVGO,5V1X8,5V1X8,3X1FV8S5JYUGS3Z4BNMF9P1NH3KVGO,3X1FV8S5JYUGS3Z4BNMF9P1NH3KVGO,268048,268048,,,,,,,,,,
,,,,3,7.698475,0,4,4,284,1,group of people following a tour guide. one man with a blue striped shirt looks off at one of the local clothing stores.,group of people following a tour guide. one man with a green striped shirt looks off at one of the local clothing stores.,wolfe1,image-078,2,39,ASFFW3A9FFHPN,2021-01-08_12h36.24.213,MetaAwareness,2020.1.2,Win32,60,3FVBZG9CLKHBDEV52UB6LDSACUE0H0,ASFFW3A9FFHPN,3X1FV8S5JYUGS3Z4BNMF9P1NH3KVGO,5V1X8,5V1X8,3X1FV8S5JYUGS3Z4BNMF9P1NH3KVGO,3X1FV8S5JYUGS3Z4BNMF9P1NH3KVGO,268048,268048,,,,,,,,,,
,,,,4,11.18199,0,5,5,242,1,people gathered around a spot where they will be digging with a white container sitting in front of one man.,people gathered around a spot where they will be digging.,wolfe1,image-046,1,39,ASFFW3A9FFHPN,2021-01-08_12h36.24.213,MetaAwareness,2020.1.2,Win32,60,3FVBZG9CLKHBDEV52UB6LDSACUE0H0,ASFFW3A9FFHPN,3X1FV8S5JYUGS3Z4BNMF9P1NH3KVGO,5V1X8,5V1X8,3X1FV8S5JYUGS3Z4BNMF9P1NH3KVGO,3X1FV8S5JYUGS3Z4BNMF9P1NH3KVGO,268048,268048,,,,,,,,,,
,,,,6,4.88229,0,6,6,425,1,an assortment of candles,an assortment of candles,wolfe1,image-107,2,39,ASFFW3A9FFHPN,2021-01-08_12h36.24.213,MetaAwareness,2020.1.2,Win32,60,3FVBZG9CLKHBDEV52UB6LDSACUE0H0,ASFFW3A9FFHPN,3X1FV8S5JYUGS3Z4BNMF9P1NH3KVGO,5V1X8,5V1X8,3X1FV8S5JYUGS3Z4BNMF9P1NH3KVGO,3X1FV8S5JYUGS3Z4BNMF9P1NH3KVGO,268048,268048,,,,,,,,,,
,,,,3,6.97408,0,7,7,468,1,"a group of people listening to a concert, with a woman sitting in a green chair.",a group of people listening to a concert and a woman sitting in a purple chair.,wolfe1,image-115,1,39,ASFFW3A9FFHPN,2021-01-08_12h36.24.213,MetaAwareness,2020.1.2,Win32,60,3FVBZG9CLKHBDEV52UB6LDSACUE0H0,ASFFW3A9FFHPN,3X1FV8S5JYUGS3Z4BNMF9P1NH3KVGO,5V1X8,5V1X8,3X1FV8S5JYUGS3Z4BNMF9P1NH3KVGO,3X1FV8S5JYUGS3Z4BNMF9P1NH3KVGO,268048,268048,,,,,,,,,,
,,,,4,5.34707,0,8,8,228,1,a modern living room featuring a white vase on a table,a modern living room,wolfe1,image-043,2,39,ASFFW3A9FFHPN,2021-01-08_12h36.24.213,MetaAwareness,2020.1.2,Win32,60,3FVBZG9CLKHBDEV52UB6LDSACUE0H0,ASFFW3A9FFHPN,3X1FV8S5JYUGS3Z4BNMF9P1NH3KVGO,5V1X8,5V1X8,3X1FV8S5JYUGS3Z4BNMF9P1NH3KVGO,3X1FV8S5JYUGS3Z4BNMF9P1NH3KVGO,268048,268048,,,,,,,,,,
,,,,3,6.21399,0,9,9,369,1,a person  hiking with a hiking stick passing by red flower weeds,a person hiking with a hiking stick passing by yellow flower weeds,wolfe1,image-095,5,39,ASFFW3A9FFHPN,2021-01-08_12h36.24.213,MetaAwareness,2020.1.2,Win32,60,3FVBZG9CLKHBDEV52UB6LDSACUE0H0,ASFFW3A9FFHPN,3X1FV8S5JYUGS3Z4BNMF9P1NH3KVGO,5V1X8,5V1X8,3X1FV8S5JYUGS3Z4BNMF9P1NH3KVGO,3X1FV8S5JYUGS3Z4BNMF9P1NH3KVGO,268048,268048,,,,,,,,,,
,,,,3,9.55539,0,10,10,56,1,a minimalist looking room with a mirror and chair next to a low table with three plants,a minimalist looking room with a mirror and a chair next to a low table with two plants,wolfe1,image-011,4,39,ASFFW3A9FFHPN,2021-01-08_12h36.24.213,MetaAwareness,2020.1.2,Win32,60,3FVBZG9CLKHBDEV52UB6LDSACUE0H0,ASFFW3A9FFHPN,3X1FV8S5JYUGS3Z4BNMF9P1NH3KVGO,5V1X8,5V1X8,3X1FV8S5JYUGS3Z4BNMF9P1NH3KVGO,3X1FV8S5JYUGS3Z4BNMF9P1NH3KVGO,268048,268048,,,,,,,,,,
,,,,3,13.03035,0,11,11,121,1,three runners jogging next to a building and two patches of grass that contain an object on one of them,three runners jogging next to a building and two patches of grass that are open and do not have any objects on them,wolfe1,image-022,1,39,ASFFW3A9FFHPN,2021-01-08_12h36.24.213,MetaAwareness,2020.1.2,Win32,60,3FVBZG9CLKHBDEV52UB6LDSACUE0H0,ASFFW3A9FFHPN,3X1FV8S5JYUGS3Z4BNMF9P1NH3KVGO,5V1X8,5V1X8,3X1FV8S5JYUGS3Z4BNMF9P1NH3KVGO,3X1FV8S5JYUGS3Z4BNMF9P1NH3KVGO,268048,268048,,,,,,,,,,
,,,,5,9.067255,0,12,12,51,1,someone sets up camp in the snow and a yellow piece of plastic is by their equipment,someone sets up camp in the snow and their equipment is all around them,wolfe1,image-010,5,39,ASFFW3A9FFHPN,2021-01-08_12h36.24.213,MetaAwareness,2020.1.2,Win32,60,3FVBZG9CLKHBDEV52UB6LDSACUE0H0,ASFFW3A9FFHPN,3X1FV8S5JYUGS3Z4BNMF9P1NH3KVGO,5V1X8,5V1X8,3X1FV8S5JYUGS3Z4BNMF9P1NH3KVGO,3X1FV8S5JYUGS3Z4BNMF9P1NH3KVGO,268048,268048,,,,,,,,,,
,,,,3,4.499195,0,13,13,139,1,a street market has a lot of people and two towering trees in the background.,a street market has a lot of people and one towering tree in the background,wolfe1,image-025,5,39,ASFFW3A9FFHPN,2021-01-08_12h36.24.213,MetaAwareness,2020.1.2,Win32,60,3FVBZG9CLKHBDEV52UB6LDSACUE0H0,ASFFW3A9FFHPN,3X1FV8S5JYUGS3Z4BNMF9P1NH3KVGO,5V1X8,5V1X8,3X1FV8S5JYUGS3Z4BNMF9P1NH3KVGO,3X1FV8S5JYUGS3Z4BNMF9P1NH3KVGO,268048,268048,,,,,,,,,,
,,,,3,6.80388,0,14,14,10,1,eight people sitting in a classroom with a window with a closed curtain in the far corner.,eight people sitting in a classroom with no window in the corner.,wolfe1,image-003,3,39,ASFFW3A9FFHPN,2021-01-08_12h36.24.213,MetaAwareness,2020.1.2,Win32,60,3FVBZG9CLKHBDEV52UB6LDSACUE0H0,ASFFW3A9FFHPN,3X1FV8S5JYUGS3Z4BNMF9P1NH3KVGO,5V1X8,5V1X8,3X1FV8S5JYUGS3Z4BNMF9P1NH3KVGO,3X1FV8S5JYUGS3Z4BNMF9P1NH3KVGO,268048,268048,,,,,,,,,,
,,,,3,7.37598,0,15,15,170,1,a family feeding birds in front of all of them.,a family feeding birds that are in front of all of them except the young boy.,wolfe1,image-032,4,39,ASFFW3A9FFHPN,2021-01-08_12h36.24.213,MetaAwareness,2020.1.2,Win32,60,3FVBZG9CLKHBDEV52UB6LDSACUE0H0,ASFFW3A9FFHPN,3X1FV8S5JYUGS3Z4BNMF9P1NH3KVGO,5V1X8,5V1X8,3X1FV8S5JYUGS3Z4BNMF9P1NH3KVGO,3X1FV8S5JYUGS3Z4BNMF9P1NH3KVGO,268048,268048,,,,,,,,,,
,,,,3,3.635845,0,16,16,356,1,the woman has a backback with a blue tag.,the woman has a backpack with a green tag.,wolfe1,image-094,1,39,ASFFW3A9FFHPN,2021-01-08_12h36.24.213,MetaAwareness,2020.1.2,Win32,60,3FVBZG9CLKHBDEV52UB6LDSACUE0H0,ASFFW3A9FFHPN,3X1FV8S5JYUGS3Z4BNMF9P1NH3KVGO,5V1X8,5V1X8,3X1FV8S5JYUGS3Z4BNMF9P1NH3KVGO,3X1FV8S5JYUGS3Z4BNMF9P1NH3KVGO,268048,268048,,,,,,,,,,
,,,,5,9.882675,0,17,17,83,1,two men with a bird mascot and a recycle bin and an art piece behind them,two men with a bird mascot and an art piece behind them,wolfe1,image-015,4,39,ASFFW3A9FFHPN,2021-01-08_12h36.24.213,MetaAwareness,2020.1.2,Win32,60,3FVBZG9CLKHBDEV52UB6LDSACUE0H0,ASFFW3A9FFHPN,3X1FV8S5JYUGS3Z4BNMF9P1NH3KVGO,5V1X8,5V1X8,3X1FV8S5JYUGS3Z4BNMF9P1NH3KVGO,3X1FV8S5JYUGS3Z4BNMF9P1NH3KVGO,268048,268048,,,,,,,,,,
,,,,5,12.882135,0,18,18,268,1,"several people at desks facing three speakers in the front of a classroom, several white boxes are stacked behind the speakers on the left",several people at desks facing three speakers in the front of a classroom,wolfe1,image-050,3,39,ASFFW3A9FFHPN,2021-01-08_12h36.24.213,MetaAwareness,2020.1.2,Win32,60,3FVBZG9CLKHBDEV52UB6LDSACUE0H0,ASFFW3A9FFHPN,3X1FV8S5JYUGS3Z4BNMF9P1NH3KVGO,5V1X8,5V1X8,3X1FV8S5JYUGS3Z4BNMF9P1NH3KVGO,3X1FV8S5JYUGS3Z4BNMF9P1NH3KVGO,268048,268048,,,,,,,,,,
,,,,3,3.86708,0,19,19,292,1,a mall with storefronts with red in the windows,a mall with storefronts with purple in the windows,wolfe1,image-079,6,39,ASFFW3A9FFHPN,2021-01-08_12h36.24.213,MetaAwareness,2020.1.2,Win32,60,3FVBZG9CLKHBDEV52UB6LDSACUE0H0,ASFFW3A9FFHPN,3X1FV8S5JYUGS3Z4BNMF9P1NH3KVGO,5V1X8,5V1X8,3X1FV8S5JYUGS3Z4BNMF9P1NH3KVGO,3X1FV8S5JYUGS3Z4BNMF9P1NH3KVGO,268048,268048,,,,,,,,,,
,,,,2,7.153445,0,20,20,253,1,there is one small thing in the yellow box,there is nothing in the yellow box,wolfe1,image-047,4,39,ASFFW3A9FFHPN,2021-01-08_12h36.24.213,MetaAwareness,2020.1.2,Win32,60,3FVBZG9CLKHBDEV52UB6LDSACUE0H0,ASFFW3A9FFHPN,3X1FV8S5JYUGS3Z4BNMF9P1NH3KVGO,5V1X8,5V1X8,3X1FV8S5JYUGS3Z4BNMF9P1NH3KVGO,3X1FV8S5JYUGS3Z4BNMF9P1NH3KVGO,268048,268048,,,,,,,,,,
,,,,3,5.33045,0,21,21,320,1,at an outdoor restaurant near the beach a man in a purple hat looks out towards the ocean.,at an outdoor restaurant near the beach a man in a green hat looks out towards the ocean.,wolfe1,image-085,2,39,ASFFW3A9FFHPN,2021-01-08_12h36.24.213,MetaAwareness,2020.1.2,Win32,60,3FVBZG9CLKHBDEV52UB6LDSACUE0H0,ASFFW3A9FFHPN,3X1FV8S5JYUGS3Z4BNMF9P1NH3KVGO,5V1X8,5V1X8,3X1FV8S5JYUGS3Z4BNMF9P1NH3KVGO,3X1FV8S5JYUGS3Z4BNMF9P1NH3KVGO,268048,268048,,,,,,,,,,
,,,,3,8.86715,0,22,22,440,1,sseveral people outdoors with backpacks,several people outdoors and a bman with a blue backpack,wolfe1,image-109,4,39,ASFFW3A9FFHPN,2021-01-08_12h36.24.213,MetaAwareness,2020.1.2,Win32,60,3FVBZG9CLKHBDEV52UB6LDSACUE0H0,ASFFW3A9FFHPN,3X1FV8S5JYUGS3Z4BNMF9P1NH3KVGO,5V1X8,5V1X8,3X1FV8S5JYUGS3Z4BNMF9P1NH3KVGO,3X1FV8S5JYUGS3Z4BNMF9P1NH3KVGO,268048,268048,,,,,,,,,,
,,,,3,7.674325,0,23,23,594,1,there is a patch of sand that has bench tables and chairs with blue and yellow umbrellas hanging over them. the blue umbrella is on the far left.,there is a patch of sand that has bench tables and chairs with blue and yellow umbrellas hanging over them. there is a yellow umbrella on the far left side.,wolfe1,image-137,6,39,ASFFW3A9FFHPN,2021-01-08_12h36.24.213,MetaAwareness,2020.1.2,Win32,60,3FVBZG9CLKHBDEV52UB6LDSACUE0H0,ASFFW3A9FFHPN,3X1FV8S5JYUGS3Z4BNMF9P1NH3KVGO,5V1X8,5V1X8,3X1FV8S5JYUGS3Z4BNMF9P1NH3KVGO,3X1FV8S5JYUGS3Z4BNMF9P1NH3KVGO,268048,268048,,,,,,,,,,
,,,,3,8.755395,0,24,24,18,1,five girls jump in the air in their cap and gowns while standing in front of a bench,five girls jump in the air in their cap and gowns while standing in front of a tree,wolfe1,image-005,1,39,ASFFW3A9FFHPN,2021-01-08_12h36.24.213,MetaAwareness,2020.1.2,Win32,60,3FVBZG9CLKHBDEV52UB6LDSACUE0H0,ASFFW3A9FFHPN,3X1FV8S5JYUGS3Z4BNMF9P1NH3KVGO,5V1X8,5V1X8,3X1FV8S5JYUGS3Z4BNMF9P1NH3KVGO,3X1FV8S5JYUGS3Z4BNMF9P1NH3KVGO,268048,268048,,,,,,,,,,
,,,,3,3.02295,0,25,25,326,1,a boy in a red shirt plays with other children in a grassy field,a boy in a purple shirt plays with other children in a grassy field,wolfe1,image-086,5,39,ASFFW3A9FFHPN,2021-01-08_12h36.24.213,MetaAwareness,2020.1.2,Win32,60,3FVBZG9CLKHBDEV52UB6LDSACUE0H0,ASFFW3A9FFHPN,3X1FV8S5JYUGS3Z4BNMF9P1NH3KVGO,5V1X8,5V1X8,3X1FV8S5JYUGS3Z4BNMF9P1NH3KVGO,3X1FV8S5JYUGS3Z4BNMF9P1NH3KVGO,268048,268048,,,,,,,,,,
,,,,4,11.847755,0,26,26,91,1,a group of men are on a golf course golfing next a small box,a group of men are golfing on the fairway of a golf course,wolfe1,image-017,2,39,ASFFW3A9FFHPN,2021-01-08_12h36.24.213,MetaAwareness,2020.1.2,Win32,60,3FVBZG9CLKHBDEV52UB6LDSACUE0H0,ASFFW3A9FFHPN,3X1FV8S5JYUGS3Z4BNMF9P1NH3KVGO,5V1X8,5V1X8,3X1FV8S5JYUGS3Z4BNMF9P1NH3KVGO,3X1FV8S5JYUGS3Z4BNMF9P1NH3KVGO,268048,268048,,,,,,,,,,
,,,,4,12.368925,0,27,27,235,1,"seven small barns adorn a grassy countryside that rests near a lake, rolling hills, and a large mountain","six small barns adorn a grassy countryside that rests near a lake, rolling hills, and a large mountain",wolfe1,image-044,4,39,ASFFW3A9FFHPN,2021-01-08_12h36.24.213,MetaAwareness,2020.1.2,Win32,60,3FVBZG9CLKHBDEV52UB6LDSACUE0H0,ASFFW3A9FFHPN,3X1FV8S5JYUGS3Z4BNMF9P1NH3KVGO,5V1X8,5V1X8,3X1FV8S5JYUGS3Z4BNMF9P1NH3KVGO,3X1FV8S5JYUGS3Z4BNMF9P1NH3KVGO,268048,268048,,,,,,,,,,
,,,,3,8.313895,0,28,28,183,1,a patio at the back of a house with a walkway of 6 stone slabs leading to a sitting area,a patio at the back of a house with a walkway of 5 stone slabs leading to a sitting area,wolfe1,image-034,3,39,ASFFW3A9FFHPN,2021-01-08_12h36.24.213,MetaAwareness,2020.1.2,Win32,60,3FVBZG9CLKHBDEV52UB6LDSACUE0H0,ASFFW3A9FFHPN,3X1FV8S5JYUGS3Z4BNMF9P1NH3KVGO,5V1X8,5V1X8,3X1FV8S5JYUGS3Z4BNMF9P1NH3KVGO,3X1FV8S5JYUGS3Z4BNMF9P1NH3KVGO,268048,268048,,,,,,,,,,
,,,,3,3.429105,0,29,29,497,1,an asian gardan with a statue in the center in front of a light blue fabic with a tassel,an asian garden with a statue in the center in front of a dark blue puple fabric with a tassel,wolfe1,image-120,2,39,ASFFW3A9FFHPN,2021-01-08_12h36.24.213,MetaAwareness,2020.1.2,Win32,60,3FVBZG9CLKHBDEV52UB6LDSACUE0H0,ASFFW3A9FFHPN,3X1FV8S5JYUGS3Z4BNMF9P1NH3KVGO,5V1X8,5V1X8,3X1FV8S5JYUGS3Z4BNMF9P1NH3KVGO,3X1FV8S5JYUGS3Z4BNMF9P1NH3KVGO,268048,268048,,,,,,,,,,
,,,,,,,,,,,,,,,,39,ASFFW3A9FFHPN,2021-01-08_12h36.24.213,MetaAwareness,2020.1.2,Win32,60,3FVBZG9CLKHBDEV52UB6LDSACUE0H0,ASFFW3A9FFHPN,3X1FV8S5JYUGS3Z4BNMF9P1NH3KVGO,5V1X8,5V1X8,3X1FV8S5JYUGS3Z4BNMF9P1NH3KVGO,3X1FV8S5JYUGS3Z4BNMF9P1NH3KVGO,268048,268048,6,5.35477,someone laying underneath a blue beach umbrella on a crowded beach,someone laying underneath a blue beach umbrella on a crowded beach,same,1,8.11589,members of a marching band crossing a track that all have feather plumes at the front of their hats,a cluttered and rustic looking cafe with 10 hanging lights,different
